"success","trial_type","trial_index","time_elapsed","internal_node_id","rt","url","view_history","stimulus","key_press","animation_sequence","response","TD_rt","TD_target","test_part","TD_trial_number","onset","offset","attention_state","TD_target_position","TD_within_triplet_counter","participant","yoke_participant","responses","init_locations","moves","final_locations","question_order"
"true","fullscreen","0","2681","0.0-0.0","","","","","","","","","","","","","","","","","","","","","","",""
"","external-html","1","11910","0.0-1.0","9062.5","https://ziweizhang0304.github.io/Stats_learning_trig/content/consent.html","","","","","","","","","","","","","","","","","","","","",""
"","instructions","2","23210","0.0-2.0","11296","","[{""page_index"":0,""viewing_time"":1843.3999999761581},{""page_index"":1,""viewing_time"":4734.600000023842},{""page_index"":2,""viewing_time"":3149.7999999523163},{""page_index"":3,""viewing_time"":1566.7000000476837}]","","","","","","","","","","","","","","","","","","","",""
"","image-keyboard-response","3","27017","0.0-3.0-0.0-0.0","3804.899999976158","","","https://ziweizhang0304.github.io/Stats_learning_trig/img/Stim/FN_025_g.png","13","","","","","","","","","","","","","","","","","",""
"","animation","4","31453","0.0-3.0-0.0-1.0","","","","","","[{""stimulus"":""https://ziweizhang0304.github.io/Stats_learning_trig/img/Stim/FN_020_g.png"",""time"":352.60000002384186},{""stimulus"":""blank"",""time"":656},{""stimulus"":""https://ziweizhang0304.github.io/Stats_learning_trig/img/Stim/FN_015_g.png"",""time"":685.8999999761581},{""stimulus"":""blank"",""time"":986.7999999523163},{""stimulus"":""https://ziweizhang0304.github.io/Stats_learning_trig/img/Stim/FN_022_g.png"",""time"":1021.1999999284744},{""stimulus"":""blank"",""time"":1330.3999999761581},{""stimulus"":""https://ziweizhang0304.github.io/Stats_learning_trig/img/Stim/FN_025_g.png"",""time"":1362.6999999284744},{""stimulus"":""blank"",""time"":1669.1999999284744},{""stimulus"":""https://ziweizhang0304.github.io/Stats_learning_trig/img/Stim/FN_003_g.png"",""time"":1703.6999999284744},{""stimulus"":""blank"",""time"":2017.5},{""stimulus"":""https://ziweizhang0304.github.io/Stats_learning_trig/img/Stim/FN_012_g.png"",""time"":2052.899999976158},{""stimulus"":""blank"",""time"":2361.899999976158},{""stimulus"":""https://ziweizhang0304.github.io/Stats_learning_trig/img/Stim/FN_001_g.png"",""time"":2387},{""stimulus"":""blank"",""time"":2703.1999999284744},{""stimulus"":""https://ziweizhang0304.github.io/Stats_learning_trig/img/Stim/FN_019_g.png"",""time"":2721.399999976158},{""stimulus"":""blank"",""time"":3038.1999999284744},{""stimulus"":""https://ziweizhang0304.github.io/Stats_learning_trig/img/Stim/FN_005_g.png"",""time"":3061.899999976158},{""stimulus"":""blank"",""time"":3367.6999999284744},{""stimulus"":""https://ziweizhang0304.github.io/Stats_learning_trig/img/Stim/FN_008_g.png"",""time"":3406.7999999523163},{""stimulus"":""blank"",""time"":3709.2999999523163},{""stimulus"":""https://ziweizhang0304.github.io/Stats_learning_trig/img/Stim/FN_002_g.png"",""time"":3744.2999999523163},{""stimulus"":""blank"",""time"":4060.1999999284744},{""stimulus"":""https://ziweizhang0304.github.io/Stats_learning_trig/img/Stim/FN_007_g.png"",""time"":4083},{""stimulus"":""blank"",""time"":4390.5}]","[{""key_press"":32,""rt"":1717.2000000476837,""stimulus"":""https://ziweizhang0304.github.io/Stats_learning_trig/img/Stim/FN_003_g.png""}]","354.5000001192093","https://ziweizhang0304.github.io/Stats_learning_trig/img/Stim/FN_025_g.png","post_prac","","","","","","","","","","","","",""
"","html-keyboard-response","5","44891","0.0-3.0-0.0-2.0","13432.5","","","<p>Your reaction time for this trial was 354.5 ms.</p><p>Remember that you should only press the SPACEBAR when you see the shape presented at the beginning of the trial. </b> </p><p>Press enter to move on.</p>","13","","","","","","","","","","","","","","","","","",""
"","image-keyboard-response","6","47578","0.0-3.0-1.0-0.0","2686.399999976158","","","https://ziweizhang0304.github.io/Stats_learning_trig/img/Stim/FN_025_g.png","13","","","","","","","","","","","","","","","","","",""
"","animation","7","52004","0.0-3.0-1.0-1.0","","","","","","[{""stimulus"":""https://ziweizhang0304.github.io/Stats_learning_trig/img/Stim/FN_022_g.png"",""time"":345.60000002384186},{""stimulus"":""blank"",""time"":657.8000000715256},{""stimulus"":""https://ziweizhang0304.github.io/Stats_learning_trig/img/Stim/FN_002_g.png"",""time"":684.8999999761581},{""stimulus"":""blank"",""time"":995.6000000238419},{""stimulus"":""https://ziweizhang0304.github.io/Stats_learning_trig/img/Stim/FN_008_g.png"",""time"":1024.3999999761581},{""stimulus"":""blank"",""time"":1325.8000000715256},{""stimulus"":""https://ziweizhang0304.github.io/Stats_learning_trig/img/Stim/FN_019_g.png"",""time"":1361.8000000715256},{""stimulus"":""blank"",""time"":1672.3000000715256},{""stimulus"":""https://ziweizhang0304.github.io/Stats_learning_trig/img/Stim/FN_001_g.png"",""time"":1700.8999999761581},{""stimulus"":""blank"",""time"":2008.2000000476837},{""stimulus"":""https://ziweizhang0304.github.io/Stats_learning_trig/img/Stim/FN_007_g.png"",""time"":2041},{""stimulus"":""blank"",""time"":2345.399999976158},{""stimulus"":""https://ziweizhang0304.github.io/Stats_learning_trig/img/Stim/FN_012_g.png"",""time"":2385.7000000476837},{""stimulus"":""blank"",""time"":2688.7000000476837},{""stimulus"":""https://ziweizhang0304.github.io/Stats_learning_trig/img/Stim/FN_025_g.png"",""time"":2728.7000000476837},{""stimulus"":""blank"",""time"":3028.899999976158},{""stimulus"":""https://ziweizhang0304.github.io/Stats_learning_trig/img/Stim/FN_020_g.png"",""time"":3066.100000023842},{""stimulus"":""blank"",""time"":3385.7000000476837},{""stimulus"":""https://ziweizhang0304.github.io/Stats_learning_trig/img/Stim/FN_015_g.png"",""time"":3402.2000000476837},{""stimulus"":""blank"",""time"":3704.8000000715256},{""stimulus"":""https://ziweizhang0304.github.io/Stats_learning_trig/img/Stim/FN_003_g.png"",""time"":3741.899999976158},{""stimulus"":""blank"",""time"":4049.5},{""stimulus"":""https://ziweizhang0304.github.io/Stats_learning_trig/img/Stim/FN_005_g.png"",""time"":4091.100000023842},{""stimulus"":""blank"",""time"":4403}]","[{""key_press"":32,""rt"":1980.1000000238419,""stimulus"":""https://ziweizhang0304.github.io/Stats_learning_trig/img/Stim/FN_001_g.png""},{""key_press"":32,""rt"":3026.5,""stimulus"":""https://ziweizhang0304.github.io/Stats_learning_trig/img/Stim/FN_025_g.png""}]","297.7999999523163","https://ziweizhang0304.github.io/Stats_learning_trig/img/Stim/FN_025_g.png","post_prac","","","","","","","","","","","","",""
"","html-keyboard-response","8","53987","0.0-3.0-1.0-2.0","1980.3000000715256","","","<p>Your reaction time for this trial was 297.8 ms.</p><p>Remember that you should only press the SPACEBAR when you see the shape presented at the beginning of the trial. </b> </p><p>Press enter to move on.</p>","13","","","","","","","","","","","","","","","","","",""
"","image-keyboard-response","9","56322","0.0-3.0-2.0-0.0","2333.9000000953674","","","https://ziweizhang0304.github.io/Stats_learning_trig/img/Stim/FN_013_g.png","13","","","","","","","","","","","","","","","","","",""
"","animation","10","60746","0.0-3.0-2.0-1.0","","","","","","[{""stimulus"":""https://ziweizhang0304.github.io/Stats_learning_trig/img/Stim/FN_008_g.png"",""time"":353.1999999284744},{""stimulus"":""blank"",""time"":663.2999999523163},{""stimulus"":""https://ziweizhang0304.github.io/Stats_learning_trig/img/Stim/FN_022_g.png"",""time"":695.6000000238419},{""stimulus"":""blank"",""time"":1008.5},{""stimulus"":""https://ziweizhang0304.github.io/Stats_learning_trig/img/Stim/FN_005_g.png"",""time"":1020.7999999523163},{""stimulus"":""blank"",""time"":1329.5},{""stimulus"":""https://ziweizhang0304.github.io/Stats_learning_trig/img/Stim/FN_014_g.png"",""time"":1362.2999999523163},{""stimulus"":""blank"",""time"":1662.7999999523163},{""stimulus"":""https://ziweizhang0304.github.io/Stats_learning_trig/img/Stim/FN_013_g.png"",""time"":1709.3999999761581},{""stimulus"":""blank"",""time"":2016.1000000238419},{""stimulus"":""https://ziweizhang0304.github.io/Stats_learning_trig/img/Stim/FN_024_g.png"",""time"":2043.6000000238419},{""stimulus"":""blank"",""time"":2355.399999976158},{""stimulus"":""https://ziweizhang0304.github.io/Stats_learning_trig/img/Stim/FN_020_g.png"",""time"":2380.899999976158},{""stimulus"":""blank"",""time"":2695.100000023842},{""stimulus"":""https://ziweizhang0304.github.io/Stats_learning_trig/img/Stim/FN_001_g.png"",""time"":2733.100000023842},{""stimulus"":""blank"",""time"":3035.1999999284744},{""stimulus"":""https://ziweizhang0304.github.io/Stats_learning_trig/img/Stim/FN_019_g.png"",""time"":3066},{""stimulus"":""blank"",""time"":3368.6999999284744},{""stimulus"":""https://ziweizhang0304.github.io/Stats_learning_trig/img/Stim/FN_015_g.png"",""time"":3400.899999976158},{""stimulus"":""blank"",""time"":3709.7999999523163},{""stimulus"":""https://ziweizhang0304.github.io/Stats_learning_trig/img/Stim/FN_003_g.png"",""time"":3742.399999976158},{""stimulus"":""blank"",""time"":4043.399999976158},{""stimulus"":""https://ziweizhang0304.github.io/Stats_learning_trig/img/Stim/FN_002_g.png"",""time"":4083.399999976158},{""stimulus"":""blank"",""time"":4393.799999952316}]","[{""key_press"":32,""rt"":2024.5,""stimulus"":""blank""}]","315.10000002384186","https://ziweizhang0304.github.io/Stats_learning_trig/img/Stim/FN_013_g.png","post_prac","","","","","","","","","","","","",""
"","html-keyboard-response","11","62055","0.0-3.0-2.0-2.0","1306.6999999284744","","","<p>Your reaction time for this trial was 315.1 ms.</p><p>Remember that you should only press the SPACEBAR when you see the shape presented at the beginning of the trial. </b> </p><p>Press enter to move on.</p>","13","","","","","","","","","","","","","","","","","",""
"","instructions","12","63719","0.0-4.0","1663.5","","[{""page_index"":0,""viewing_time"":1663.2000000476837}]","","","","","","","","","","","","","","","","","","","",""
"","image-keyboard-response","13","65263","0.0-5.0-0.0-0.0","1543.1000000238419","","","https://ziweizhang0304.github.io/Stats_learning_trig/img/Stim/FN_024_g.png","13","","","","","","","","","","","","","","","","","",""
"","animation","14","69692","0.0-5.0-0.0-1.0","","","","","","[{""stimulus"":""https://ziweizhang0304.github.io/Stats_learning_trig/img/Stim/FN_001_g.png"",""time"":345.39999997615814},{""stimulus"":""blank"",""time"":652.1999999284744},{""stimulus"":""https://ziweizhang0304.github.io/Stats_learning_trig/img/Stim/FN_005_g.png"",""time"":684.6999999284744},{""stimulus"":""blank"",""time"":989.5},{""stimulus"":""https://ziweizhang0304.github.io/Stats_learning_trig/img/Stim/FN_015_g.png"",""time"":1026.5},{""stimulus"":""blank"",""time"":1327.5},{""stimulus"":""https://ziweizhang0304.github.io/Stats_learning_trig/img/Stim/FN_019_g.png"",""time"":1360.6999999284744},{""stimulus"":""blank"",""time"":1661.7999999523163},{""stimulus"":""https://ziweizhang0304.github.io/Stats_learning_trig/img/Stim/FN_014_g.png"",""time"":1707.1000000238419},{""stimulus"":""blank"",""time"":2020.5},{""stimulus"":""https://ziweizhang0304.github.io/Stats_learning_trig/img/Stim/FN_013_g.png"",""time"":2049.1999999284744},{""stimulus"":""blank"",""time"":2359.7999999523163},{""stimulus"":""https://ziweizhang0304.github.io/Stats_learning_trig/img/Stim/FN_024_g.png"",""time"":2381.6999999284744},{""stimulus"":""blank"",""time"":2684.1999999284744},{""stimulus"":""https://ziweizhang0304.github.io/Stats_learning_trig/img/Stim/FN_008_g.png"",""time"":2722.2999999523163},{""stimulus"":""blank"",""time"":3026},{""stimulus"":""https://ziweizhang0304.github.io/Stats_learning_trig/img/Stim/FN_020_g.png"",""time"":3076.1999999284744},{""stimulus"":""blank"",""time"":3381.399999976158},{""stimulus"":""https://ziweizhang0304.github.io/Stats_learning_trig/img/Stim/FN_022_g.png"",""time"":3410.7999999523163},{""stimulus"":""blank"",""time"":3717.2999999523163},{""stimulus"":""https://ziweizhang0304.github.io/Stats_learning_trig/img/Stim/FN_003_g.png"",""time"":3743.100000023842},{""stimulus"":""blank"",""time"":4045.6999999284744},{""stimulus"":""https://ziweizhang0304.github.io/Stats_learning_trig/img/Stim/FN_002_g.png"",""time"":4080.600000023842},{""stimulus"":""blank"",""time"":4387.799999952316}]","[{""key_press"":32,""rt"":2704.5,""stimulus"":""blank""}]","322.8000000715256","https://ziweizhang0304.github.io/Stats_learning_trig/img/Stim/FN_024_g.png","post_TD","1","2381.6999999284744","2704.5","fast","7","3","5dcca2db88381e92c96b9ac5","","","","","",""
"","image-keyboard-response","15","70711","0.0-5.0-1.0-0.0","1016.3999999761581","","","https://ziweizhang0304.github.io/Stats_learning_trig/img/Stim/FN_025_g.png","13","","","","","","","","","","","","","","","","","",""
"","animation","16","75132","0.0-5.0-1.0-1.0","","","","","","[{""stimulus"":""https://ziweizhang0304.github.io/Stats_learning_trig/img/Stim/FN_022_g.png"",""time"":354.2999999523163},{""stimulus"":""blank"",""time"":663.3999999761581},{""stimulus"":""https://ziweizhang0304.github.io/Stats_learning_trig/img/Stim/FN_002_g.png"",""time"":692.6999999284744},{""stimulus"":""blank"",""time"":999.5},{""stimulus"":""https://ziweizhang0304.github.io/Stats_learning_trig/img/Stim/FN_008_g.png"",""time"":1025},{""stimulus"":""blank"",""time"":1333.7999999523163},{""stimulus"":""https://ziweizhang0304.github.io/Stats_learning_trig/img/Stim/FN_019_g.png"",""time"":1361.6999999284744},{""stimulus"":""blank"",""time"":1681.7999999523163},{""stimulus"":""https://ziweizhang0304.github.io/Stats_learning_trig/img/Stim/FN_001_g.png"",""time"":1708.0999999046326},{""stimulus"":""blank"",""time"":2018.5999999046326},{""stimulus"":""https://ziweizhang0304.github.io/Stats_learning_trig/img/Stim/FN_007_g.png"",""time"":2045.8999999761581},{""stimulus"":""blank"",""time"":2357.2999999523163},{""stimulus"":""https://ziweizhang0304.github.io/Stats_learning_trig/img/Stim/FN_012_g.png"",""time"":2383.5},{""stimulus"":""blank"",""time"":2688.7999999523163},{""stimulus"":""https://ziweizhang0304.github.io/Stats_learning_trig/img/Stim/FN_025_g.png"",""time"":2721},{""stimulus"":""blank"",""time"":3022.5999999046326},{""stimulus"":""https://ziweizhang0304.github.io/Stats_learning_trig/img/Stim/FN_020_g.png"",""time"":3068.2999999523163},{""stimulus"":""blank"",""time"":3379.399999976158},{""stimulus"":""https://ziweizhang0304.github.io/Stats_learning_trig/img/Stim/FN_015_g.png"",""time"":3410.899999976158},{""stimulus"":""blank"",""time"":3724.1999999284744},{""stimulus"":""https://ziweizhang0304.github.io/Stats_learning_trig/img/Stim/FN_003_g.png"",""time"":3750.5},{""stimulus"":""blank"",""time"":4052.899999976158},{""stimulus"":""https://ziweizhang0304.github.io/Stats_learning_trig/img/Stim/FN_005_g.png"",""time"":4083.399999976158},{""stimulus"":""blank"",""time"":4394.199999928474}]","[{""key_press"":32,""rt"":3002.7000000476837,""stimulus"":""https://ziweizhang0304.github.io/Stats_learning_trig/img/Stim/FN_025_g.png""}]","281.7000000476837","https://ziweizhang0304.github.io/Stats_learning_trig/img/Stim/FN_025_g.png","post_TD","2","2721","3002.7000000476837","slow","8","3","5dcca2db88381e92c96b9ac5","","","","","",""
"","image-keyboard-response","17","76620","0.0-5.0-2.0-0.0","1486","","","https://ziweizhang0304.github.io/Stats_learning_trig/img/Stim/FN_013_g.png","13","","","","","","","","","","","","","","","","","",""
"","animation","18","81045","0.0-5.0-2.0-1.0","","","","","","[{""stimulus"":""https://ziweizhang0304.github.io/Stats_learning_trig/img/Stim/FN_001_g.png"",""time"":356.1999999284744},{""stimulus"":""blank"",""time"":661.2999999523163},{""stimulus"":""https://ziweizhang0304.github.io/Stats_learning_trig/img/Stim/FN_003_g.png"",""time"":693.1999999284744},{""stimulus"":""blank"",""time"":994.1000000238419},{""stimulus"":""https://ziweizhang0304.github.io/Stats_learning_trig/img/Stim/FN_008_g.png"",""time"":1029.2999999523163},{""stimulus"":""blank"",""time"":1338.1000000238419},{""stimulus"":""https://ziweizhang0304.github.io/Stats_learning_trig/img/Stim/FN_015_g.png"",""time"":1368.3999999761581},{""stimulus"":""blank"",""time"":1669.6999999284744},{""stimulus"":""https://ziweizhang0304.github.io/Stats_learning_trig/img/Stim/FN_002_g.png"",""time"":1709.1000000238419},{""stimulus"":""blank"",""time"":2017.7999999523163},{""stimulus"":""https://ziweizhang0304.github.io/Stats_learning_trig/img/Stim/FN_014_g.png"",""time"":2049.2999999523163},{""stimulus"":""blank"",""time"":2364.2999999523163},{""stimulus"":""https://ziweizhang0304.github.io/Stats_learning_trig/img/Stim/FN_013_g.png"",""time"":2388},{""stimulus"":""blank"",""time"":2697.399999976158},{""stimulus"":""https://ziweizhang0304.github.io/Stats_learning_trig/img/Stim/FN_024_g.png"",""time"":2730.7999999523163},{""stimulus"":""blank"",""time"":3039.5},{""stimulus"":""https://ziweizhang0304.github.io/Stats_learning_trig/img/Stim/FN_020_g.png"",""time"":3071.100000023842},{""stimulus"":""blank"",""time"":3372.2999999523163},{""stimulus"":""https://ziweizhang0304.github.io/Stats_learning_trig/img/Stim/FN_019_g.png"",""time"":3401},{""stimulus"":""blank"",""time"":3702.6999999284744},{""stimulus"":""https://ziweizhang0304.github.io/Stats_learning_trig/img/Stim/FN_022_g.png"",""time"":3749.5},{""stimulus"":""blank"",""time"":4058.6999999284744},{""stimulus"":""https://ziweizhang0304.github.io/Stats_learning_trig/img/Stim/FN_005_g.png"",""time"":4083.1999999284744},{""stimulus"":""blank"",""time"":4393.100000023842}]","[{""key_press"":32,""rt"":2768.5,""stimulus"":""https://ziweizhang0304.github.io/Stats_learning_trig/img/Stim/FN_024_g.png""}]","380.5","https://ziweizhang0304.github.io/Stats_learning_trig/img/Stim/FN_013_g.png","post_TD","3","2388","2768.5","fast","7","2","5dcca2db88381e92c96b9ac5","","","","","",""
"","image-keyboard-response","19","85591","0.0-5.0-3.0-0.0","4543.200000047684","","","https://ziweizhang0304.github.io/Stats_learning_trig/img/Stim/FN_014_g.png","13","","","","","","","","","","","","","","","","","",""
"","animation","20","90021","0.0-5.0-3.0-1.0","","","","","","[{""stimulus"":""https://ziweizhang0304.github.io/Stats_learning_trig/img/Stim/FN_001_g.png"",""time"":346.39999997615814},{""stimulus"":""blank"",""time"":658.8999999761581},{""stimulus"":""https://ziweizhang0304.github.io/Stats_learning_trig/img/Stim/FN_005_g.png"",""time"":691},{""stimulus"":""blank"",""time"":1005.6000000238419},{""stimulus"":""https://ziweizhang0304.github.io/Stats_learning_trig/img/Stim/FN_015_g.png"",""time"":1032.6000000238419},{""stimulus"":""blank"",""time"":1341.3000000715256},{""stimulus"":""https://ziweizhang0304.github.io/Stats_learning_trig/img/Stim/FN_019_g.png"",""time"":1369.3000000715256},{""stimulus"":""blank"",""time"":1674.8000000715256},{""stimulus"":""https://ziweizhang0304.github.io/Stats_learning_trig/img/Stim/FN_014_g.png"",""time"":1706.2000000476837},{""stimulus"":""blank"",""time"":2007.5},{""stimulus"":""https://ziweizhang0304.github.io/Stats_learning_trig/img/Stim/FN_013_g.png"",""time"":2043.8999999761581},{""stimulus"":""blank"",""time"":2347.899999976158},{""stimulus"":""https://ziweizhang0304.github.io/Stats_learning_trig/img/Stim/FN_024_g.png"",""time"":2385.8000000715256},{""stimulus"":""blank"",""time"":2698},{""stimulus"":""https://ziweizhang0304.github.io/Stats_learning_trig/img/Stim/FN_008_g.png"",""time"":2727.3000000715256},{""stimulus"":""blank"",""time"":3032.8000000715256},{""stimulus"":""https://ziweizhang0304.github.io/Stats_learning_trig/img/Stim/FN_020_g.png"",""time"":3064.899999976158},{""stimulus"":""blank"",""time"":3370.600000023842},{""stimulus"":""https://ziweizhang0304.github.io/Stats_learning_trig/img/Stim/FN_022_g.png"",""time"":3400.899999976158},{""stimulus"":""blank"",""time"":3713.5},{""stimulus"":""https://ziweizhang0304.github.io/Stats_learning_trig/img/Stim/FN_003_g.png"",""time"":3743.899999976158},{""stimulus"":""blank"",""time"":4052.2000000476837},{""stimulus"":""https://ziweizhang0304.github.io/Stats_learning_trig/img/Stim/FN_002_g.png"",""time"":4081.7000000476837},{""stimulus"":""blank"",""time"":4389.800000071526}]","[{""key_press"":32,""rt"":1796.1000000238419,""stimulus"":""https://ziweizhang0304.github.io/Stats_learning_trig/img/Stim/FN_014_g.png""}]","89.89999997615814","https://ziweizhang0304.github.io/Stats_learning_trig/img/Stim/FN_014_g.png","post_TD","4","1706.2000000476837","1796.1000000238419","fast","5","1","5dcca2db88381e92c96b9ac5","","","","","",""
"","image-keyboard-response","21","93590","0.0-5.0-4.0-0.0","3567.100000023842","","","https://ziweizhang0304.github.io/Stats_learning_trig/img/Stim/FN_007_g.png","13","","","","","","","","","","","","","","","","","",""
"","animation","22","98017","0.0-5.0-4.0-1.0","","","","","","[{""stimulus"":""https://ziweizhang0304.github.io/Stats_learning_trig/img/Stim/FN_003_g.png"",""time"":352.3000000715256},{""stimulus"":""blank"",""time"":655.2000000476837},{""stimulus"":""https://ziweizhang0304.github.io/Stats_learning_trig/img/Stim/FN_001_g.png"",""time"":687},{""stimulus"":""blank"",""time"":995.2000000476837},{""stimulus"":""https://ziweizhang0304.github.io/Stats_learning_trig/img/Stim/FN_002_g.png"",""time"":1024.8000000715256},{""stimulus"":""blank"",""time"":1341.1000000238419},{""stimulus"":""https://ziweizhang0304.github.io/Stats_learning_trig/img/Stim/FN_015_g.png"",""time"":1363.6000000238419},{""stimulus"":""blank"",""time"":1673.7000000476837},{""stimulus"":""https://ziweizhang0304.github.io/Stats_learning_trig/img/Stim/FN_020_g.png"",""time"":1714.8999999761581},{""stimulus"":""blank"",""time"":2021.1000000238419},{""stimulus"":""https://ziweizhang0304.github.io/Stats_learning_trig/img/Stim/FN_005_g.png"",""time"":2050.8000000715256},{""stimulus"":""blank"",""time"":2354.7000000476837},{""stimulus"":""https://ziweizhang0304.github.io/Stats_learning_trig/img/Stim/FN_007_g.png"",""time"":2388.899999976158},{""stimulus"":""blank"",""time"":2693.5},{""stimulus"":""https://ziweizhang0304.github.io/Stats_learning_trig/img/Stim/FN_012_g.png"",""time"":2730},{""stimulus"":""blank"",""time"":3031.899999976158},{""stimulus"":""https://ziweizhang0304.github.io/Stats_learning_trig/img/Stim/FN_025_g.png"",""time"":3066.2000000476837},{""stimulus"":""blank"",""time"":3368.5},{""stimulus"":""https://ziweizhang0304.github.io/Stats_learning_trig/img/Stim/FN_008_g.png"",""time"":3403.7000000476837},{""stimulus"":""blank"",""time"":3720.2000000476837},{""stimulus"":""https://ziweizhang0304.github.io/Stats_learning_trig/img/Stim/FN_019_g.png"",""time"":3752.5},{""stimulus"":""blank"",""time"":4054.2000000476837},{""stimulus"":""https://ziweizhang0304.github.io/Stats_learning_trig/img/Stim/FN_022_g.png"",""time"":4082.7000000476837},{""stimulus"":""blank"",""time"":4393.100000023842}]","[{""key_press"":32,""rt"":2710.7999999523163,""stimulus"":""blank""}]","321.89999997615814","https://ziweizhang0304.github.io/Stats_learning_trig/img/Stim/FN_007_g.png","post_TD","5","2388.899999976158","2710.7999999523163","slow","7","1","5dcca2db88381e92c96b9ac5","","","","","",""
"","image-keyboard-response","23","99313","0.0-5.0-5.0-0.0","1294.3999999761581","","","https://ziweizhang0304.github.io/Stats_learning_trig/img/Stim/FN_014_g.png","13","","","","","","","","","","","","","","","","","",""
"","animation","24","103735","0.0-5.0-5.0-1.0","","","","","","[{""stimulus"":""https://ziweizhang0304.github.io/Stats_learning_trig/img/Stim/FN_008_g.png"",""time"":356.60000002384186},{""stimulus"":""blank"",""time"":659.8999999761581},{""stimulus"":""https://ziweizhang0304.github.io/Stats_learning_trig/img/Stim/FN_022_g.png"",""time"":690},{""stimulus"":""blank"",""time"":999.2000000476837},{""stimulus"":""https://ziweizhang0304.github.io/Stats_learning_trig/img/Stim/FN_005_g.png"",""time"":1026.5},{""stimulus"":""blank"",""time"":1332},{""stimulus"":""https://ziweizhang0304.github.io/Stats_learning_trig/img/Stim/FN_014_g.png"",""time"":1363.6000000238419},{""stimulus"":""blank"",""time"":1672.6000000238419},{""stimulus"":""https://ziweizhang0304.github.io/Stats_learning_trig/img/Stim/FN_013_g.png"",""time"":1701.7000000476837},{""stimulus"":""blank"",""time"":2003.7000000476837},{""stimulus"":""https://ziweizhang0304.github.io/Stats_learning_trig/img/Stim/FN_024_g.png"",""time"":2049},{""stimulus"":""blank"",""time"":2356.7000000476837},{""stimulus"":""https://ziweizhang0304.github.io/Stats_learning_trig/img/Stim/FN_020_g.png"",""time"":2386},{""stimulus"":""blank"",""time"":2690.8000000715256},{""stimulus"":""https://ziweizhang0304.github.io/Stats_learning_trig/img/Stim/FN_001_g.png"",""time"":2728},{""stimulus"":""blank"",""time"":3031.600000023842},{""stimulus"":""https://ziweizhang0304.github.io/Stats_learning_trig/img/Stim/FN_019_g.png"",""time"":3065.3000000715256},{""stimulus"":""blank"",""time"":3371.2000000476837},{""stimulus"":""https://ziweizhang0304.github.io/Stats_learning_trig/img/Stim/FN_015_g.png"",""time"":3406.899999976158},{""stimulus"":""blank"",""time"":3714.600000023842},{""stimulus"":""https://ziweizhang0304.github.io/Stats_learning_trig/img/Stim/FN_003_g.png"",""time"":3741.100000023842},{""stimulus"":""blank"",""time"":4048.8000000715256},{""stimulus"":""https://ziweizhang0304.github.io/Stats_learning_trig/img/Stim/FN_002_g.png"",""time"":4080.7000000476837},{""stimulus"":""blank"",""time"":4388.399999976158}]","[{""key_press"":32,""rt"":1740.8999999761581,""stimulus"":""https://ziweizhang0304.github.io/Stats_learning_trig/img/Stim/FN_013_g.png""}]","377.2999999523163","https://ziweizhang0304.github.io/Stats_learning_trig/img/Stim/FN_014_g.png","post_TD","6","1363.6000000238419","1740.8999999761581","fast","4","1","5dcca2db88381e92c96b9ac5","","","","","",""
"","image-keyboard-response","25","104768","0.0-5.0-6.0-0.0","1030.5","","","https://ziweizhang0304.github.io/Stats_learning_trig/img/Stim/FN_025_g.png","13","","","","","","","","","","","","","","","","","",""
"","animation","26","109189","0.0-5.0-6.0-1.0","","","","","","[{""stimulus"":""https://ziweizhang0304.github.io/Stats_learning_trig/img/Stim/FN_019_g.png"",""time"":343.7000000476837},{""stimulus"":""blank"",""time"":655.7000000476837},{""stimulus"":""https://ziweizhang0304.github.io/Stats_learning_trig/img/Stim/FN_005_g.png"",""time"":682.5},{""stimulus"":""blank"",""time"":999.3999999761581},{""stimulus"":""https://ziweizhang0304.github.io/Stats_learning_trig/img/Stim/FN_003_g.png"",""time"":1027.1000000238419},{""stimulus"":""blank"",""time"":1333.8999999761581},{""stimulus"":""https://ziweizhang0304.github.io/Stats_learning_trig/img/Stim/FN_001_g.png"",""time"":1369.2000000476837},{""stimulus"":""blank"",""time"":1676.5},{""stimulus"":""https://ziweizhang0304.github.io/Stats_learning_trig/img/Stim/FN_007_g.png"",""time"":1708.3999999761581},{""stimulus"":""blank"",""time"":2015.1000000238419},{""stimulus"":""https://ziweizhang0304.github.io/Stats_learning_trig/img/Stim/FN_012_g.png"",""time"":2044.7000000476837},{""stimulus"":""blank"",""time"":2357.7000000476837},{""stimulus"":""https://ziweizhang0304.github.io/Stats_learning_trig/img/Stim/FN_025_g.png"",""time"":2389.399999976158},{""stimulus"":""blank"",""time"":2697.2000000476837},{""stimulus"":""https://ziweizhang0304.github.io/Stats_learning_trig/img/Stim/FN_008_g.png"",""time"":2721.899999976158},{""stimulus"":""blank"",""time"":3031},{""stimulus"":""https://ziweizhang0304.github.io/Stats_learning_trig/img/Stim/FN_020_g.png"",""time"":3077.100000023842},{""stimulus"":""blank"",""time"":3391},{""stimulus"":""https://ziweizhang0304.github.io/Stats_learning_trig/img/Stim/FN_015_g.png"",""time"":3403.399999976158},{""stimulus"":""blank"",""time"":3716.3000000715256},{""stimulus"":""https://ziweizhang0304.github.io/Stats_learning_trig/img/Stim/FN_022_g.png"",""time"":3742.600000023842},{""stimulus"":""blank"",""time"":4051.899999976158},{""stimulus"":""https://ziweizhang0304.github.io/Stats_learning_trig/img/Stim/FN_002_g.png"",""time"":4084.399999976158},{""stimulus"":""blank"",""time"":4395.200000047684}]","[{""key_press"":32,""rt"":2379.2000000476837,""stimulus"":""blank""},{""key_press"":32,""rt"":2833.399999976158,""stimulus"":""https://ziweizhang0304.github.io/Stats_learning_trig/img/Stim/FN_008_g.png""}]","444","https://ziweizhang0304.github.io/Stats_learning_trig/img/Stim/FN_025_g.png","post_TD","7","2389.399999976158","2833.399999976158","slow","7","3","5dcca2db88381e92c96b9ac5","","","","","",""
"","image-keyboard-response","27","110165","0.0-5.0-7.0-0.0","974.3000000715256","","","https://ziweizhang0304.github.io/Stats_learning_trig/img/Stim/FN_025_g.png","13","","","","","","","","","","","","","","","","","",""
"","animation","28","114586","0.0-5.0-7.0-1.0","","","","","","[{""stimulus"":""https://ziweizhang0304.github.io/Stats_learning_trig/img/Stim/FN_003_g.png"",""time"":356.5},{""stimulus"":""blank"",""time"":672.1000000238419},{""stimulus"":""https://ziweizhang0304.github.io/Stats_learning_trig/img/Stim/FN_001_g.png"",""time"":685.7000000476837},{""stimulus"":""blank"",""time"":990.7999999523163},{""stimulus"":""https://ziweizhang0304.github.io/Stats_learning_trig/img/Stim/FN_002_g.png"",""time"":1020.6000000238419},{""stimulus"":""blank"",""time"":1322.2000000476837},{""stimulus"":""https://ziweizhang0304.github.io/Stats_learning_trig/img/Stim/FN_015_g.png"",""time"":1362.7999999523163},{""stimulus"":""blank"",""time"":1673.6000000238419},{""stimulus"":""https://ziweizhang0304.github.io/Stats_learning_trig/img/Stim/FN_020_g.png"",""time"":1704},{""stimulus"":""blank"",""time"":2018.6000000238419},{""stimulus"":""https://ziweizhang0304.github.io/Stats_learning_trig/img/Stim/FN_005_g.png"",""time"":2049.7999999523163},{""stimulus"":""blank"",""time"":2351.2000000476837},{""stimulus"":""https://ziweizhang0304.github.io/Stats_learning_trig/img/Stim/FN_007_g.png"",""time"":2382},{""stimulus"":""blank"",""time"":2682.399999976158},{""stimulus"":""https://ziweizhang0304.github.io/Stats_learning_trig/img/Stim/FN_012_g.png"",""time"":2729.600000023842},{""stimulus"":""blank"",""time"":3037.399999976158},{""stimulus"":""https://ziweizhang0304.github.io/Stats_learning_trig/img/Stim/FN_025_g.png"",""time"":3066.100000023842},{""stimulus"":""blank"",""time"":3371.2000000476837},{""stimulus"":""https://ziweizhang0304.github.io/Stats_learning_trig/img/Stim/FN_008_g.png"",""time"":3402},{""stimulus"":""blank"",""time"":3710.7999999523163},{""stimulus"":""https://ziweizhang0304.github.io/Stats_learning_trig/img/Stim/FN_019_g.png"",""time"":3741.600000023842},{""stimulus"":""blank"",""time"":4055.100000023842},{""stimulus"":""https://ziweizhang0304.github.io/Stats_learning_trig/img/Stim/FN_022_g.png"",""time"":4091.600000023842},{""stimulus"":""blank"",""time"":4394.299999952316}]","[{""key_press"":32,""rt"":2681.899999976158,""stimulus"":""https://ziweizhang0304.github.io/Stats_learning_trig/img/Stim/FN_007_g.png""},{""key_press"":32,""rt"":3401.2999999523163,""stimulus"":""blank""}]","335.1999999284744","https://ziweizhang0304.github.io/Stats_learning_trig/img/Stim/FN_025_g.png","post_TD","8","3066.100000023842","3401.2999999523163","slow","9","3","5dcca2db88381e92c96b9ac5","","","","","",""
"","image-keyboard-response","29","115405","0.0-5.0-8.0-0.0","816","","","https://ziweizhang0304.github.io/Stats_learning_trig/img/Stim/FN_007_g.png","13","","","","","","","","","","","","","","","","","",""
"","animation","30","119829","0.0-5.0-8.0-1.0","","","","","","[{""stimulus"":""https://ziweizhang0304.github.io/Stats_learning_trig/img/Stim/FN_022_g.png"",""time"":346},{""stimulus"":""blank"",""time"":654.7999999523163},{""stimulus"":""https://ziweizhang0304.github.io/Stats_learning_trig/img/Stim/FN_002_g.png"",""time"":687.1999999284744},{""stimulus"":""blank"",""time"":988.1999999284744},{""stimulus"":""https://ziweizhang0304.github.io/Stats_learning_trig/img/Stim/FN_008_g.png"",""time"":1023.2999999523163},{""stimulus"":""blank"",""time"":1338.2999999523163},{""stimulus"":""https://ziweizhang0304.github.io/Stats_learning_trig/img/Stim/FN_019_g.png"",""time"":1364.5999999046326},{""stimulus"":""blank"",""time"":1667.0999999046326},{""stimulus"":""https://ziweizhang0304.github.io/Stats_learning_trig/img/Stim/FN_001_g.png"",""time"":1700.6999999284744},{""stimulus"":""blank"",""time"":2009.1999999284744},{""stimulus"":""https://ziweizhang0304.github.io/Stats_learning_trig/img/Stim/FN_007_g.png"",""time"":2042.6999999284744},{""stimulus"":""blank"",""time"":2346.899999976158},{""stimulus"":""https://ziweizhang0304.github.io/Stats_learning_trig/img/Stim/FN_012_g.png"",""time"":2381.7999999523163},{""stimulus"":""blank"",""time"":2691.6999999284744},{""stimulus"":""https://ziweizhang0304.github.io/Stats_learning_trig/img/Stim/FN_025_g.png"",""time"":2727.5},{""stimulus"":""blank"",""time"":3033.0999999046326},{""stimulus"":""https://ziweizhang0304.github.io/Stats_learning_trig/img/Stim/FN_020_g.png"",""time"":3064.899999976158},{""stimulus"":""blank"",""time"":3370.5999999046326},{""stimulus"":""https://ziweizhang0304.github.io/Stats_learning_trig/img/Stim/FN_015_g.png"",""time"":3408.6999999284744},{""stimulus"":""blank"",""time"":3711.399999976158},{""stimulus"":""https://ziweizhang0304.github.io/Stats_learning_trig/img/Stim/FN_003_g.png"",""time"":3745.2999999523163},{""stimulus"":""blank"",""time"":4051.399999976158},{""stimulus"":""https://ziweizhang0304.github.io/Stats_learning_trig/img/Stim/FN_005_g.png"",""time"":4087.899999976158},{""stimulus"":""blank"",""time"":4389.299999952316}]","[{""key_press"":32,""rt"":2386.8000000715256,""stimulus"":""https://ziweizhang0304.github.io/Stats_learning_trig/img/Stim/FN_012_g.png""}]","344.10000014305115","https://ziweizhang0304.github.io/Stats_learning_trig/img/Stim/FN_007_g.png","post_TD","9","2042.6999999284744","2386.8000000715256","slow","6","1","5dcca2db88381e92c96b9ac5","","","","","",""
"","image-keyboard-response","31","120486","0.0-5.0-9.0-0.0","655.3999999761581","","","https://ziweizhang0304.github.io/Stats_learning_trig/img/Stim/FN_024_g.png","13","","","","","","","","","","","","","","","","","",""
"","animation","32","124914","0.0-5.0-9.0-1.0","","","","","","[{""stimulus"":""https://ziweizhang0304.github.io/Stats_learning_trig/img/Stim/FN_008_g.png"",""time"":345.5},{""stimulus"":""blank"",""time"":647.6000000238419},{""stimulus"":""https://ziweizhang0304.github.io/Stats_learning_trig/img/Stim/FN_022_g.png"",""time"":685.5},{""stimulus"":""blank"",""time"":989.3999999761581},{""stimulus"":""https://ziweizhang0304.github.io/Stats_learning_trig/img/Stim/FN_005_g.png"",""time"":1023.1999999284744},{""stimulus"":""blank"",""time"":1344.6999999284744},{""stimulus"":""https://ziweizhang0304.github.io/Stats_learning_trig/img/Stim/FN_014_g.png"",""time"":1376.3999999761581},{""stimulus"":""blank"",""time"":1680},{""stimulus"":""https://ziweizhang0304.github.io/Stats_learning_trig/img/Stim/FN_013_g.png"",""time"":1702.3999999761581},{""stimulus"":""blank"",""time"":2012.6000000238419},{""stimulus"":""https://ziweizhang0304.github.io/Stats_learning_trig/img/Stim/FN_024_g.png"",""time"":2045.1999999284744},{""stimulus"":""blank"",""time"":2346.600000023842},{""stimulus"":""https://ziweizhang0304.github.io/Stats_learning_trig/img/Stim/FN_020_g.png"",""time"":2386.1999999284744},{""stimulus"":""blank"",""time"":2689.1999999284744},{""stimulus"":""https://ziweizhang0304.github.io/Stats_learning_trig/img/Stim/FN_001_g.png"",""time"":2727.2999999523163},{""stimulus"":""blank"",""time"":3039},{""stimulus"":""https://ziweizhang0304.github.io/Stats_learning_trig/img/Stim/FN_019_g.png"",""time"":3068.5},{""stimulus"":""blank"",""time"":3371.600000023842},{""stimulus"":""https://ziweizhang0304.github.io/Stats_learning_trig/img/Stim/FN_015_g.png"",""time"":3404.5},{""stimulus"":""blank"",""time"":3714.899999976158},{""stimulus"":""https://ziweizhang0304.github.io/Stats_learning_trig/img/Stim/FN_003_g.png"",""time"":3752.600000023842},{""stimulus"":""blank"",""time"":4056.7999999523163},{""stimulus"":""https://ziweizhang0304.github.io/Stats_learning_trig/img/Stim/FN_002_g.png"",""time"":4086.5},{""stimulus"":""blank"",""time"":4389.100000023842}]","[{""key_press"":32,""rt"":2338.399999976158,""stimulus"":""https://ziweizhang0304.github.io/Stats_learning_trig/img/Stim/FN_024_g.png""}]","293.2000000476837","https://ziweizhang0304.github.io/Stats_learning_trig/img/Stim/FN_024_g.png","post_TD","10","2045.1999999284744","2338.399999976158","fast","6","3","5dcca2db88381e92c96b9ac5","","","","","",""
"","image-keyboard-response","33","126059","0.0-5.0-10.0-0.0","1141.6999999284744","","","https://ziweizhang0304.github.io/Stats_learning_trig/img/Stim/FN_013_g.png","13","","","","","","","","","","","","","","","","","",""
"","animation","34","130489","0.0-5.0-10.0-1.0","","","","","","[{""stimulus"":""https://ziweizhang0304.github.io/Stats_learning_trig/img/Stim/FN_008_g.png"",""time"":348.5},{""stimulus"":""blank"",""time"":650.8999999761581},{""stimulus"":""https://ziweizhang0304.github.io/Stats_learning_trig/img/Stim/FN_022_g.png"",""time"":684.2000000476837},{""stimulus"":""blank"",""time"":991.2999999523163},{""stimulus"":""https://ziweizhang0304.github.io/Stats_learning_trig/img/Stim/FN_005_g.png"",""time"":1021.6000000238419},{""stimulus"":""blank"",""time"":1325.2999999523163},{""stimulus"":""https://ziweizhang0304.github.io/Stats_learning_trig/img/Stim/FN_014_g.png"",""time"":1373},{""stimulus"":""blank"",""time"":1675.7000000476837},{""stimulus"":""https://ziweizhang0304.github.io/Stats_learning_trig/img/Stim/FN_013_g.png"",""time"":1705.7999999523163},{""stimulus"":""blank"",""time"":2017.6000000238419},{""stimulus"":""https://ziweizhang0304.github.io/Stats_learning_trig/img/Stim/FN_024_g.png"",""time"":2048.899999976158},{""stimulus"":""blank"",""time"":2358.100000023842},{""stimulus"":""https://ziweizhang0304.github.io/Stats_learning_trig/img/Stim/FN_020_g.png"",""time"":2391.100000023842},{""stimulus"":""blank"",""time"":2692.2000000476837},{""stimulus"":""https://ziweizhang0304.github.io/Stats_learning_trig/img/Stim/FN_001_g.png"",""time"":2723.2999999523163},{""stimulus"":""blank"",""time"":3033.5},{""stimulus"":""https://ziweizhang0304.github.io/Stats_learning_trig/img/Stim/FN_019_g.png"",""time"":3071.5},{""stimulus"":""blank"",""time"":3376.7999999523163},{""stimulus"":""https://ziweizhang0304.github.io/Stats_learning_trig/img/Stim/FN_015_g.png"",""time"":3401.7000000476837},{""stimulus"":""blank"",""time"":3709.2000000476837},{""stimulus"":""https://ziweizhang0304.github.io/Stats_learning_trig/img/Stim/FN_003_g.png"",""time"":3750.100000023842},{""stimulus"":""blank"",""time"":4052.899999976158},{""stimulus"":""https://ziweizhang0304.github.io/Stats_learning_trig/img/Stim/FN_002_g.png"",""time"":4082.899999976158},{""stimulus"":""blank"",""time"":4392.5}]","[{""key_press"":32,""rt"":2084.600000023842,""stimulus"":""https://ziweizhang0304.github.io/Stats_learning_trig/img/Stim/FN_024_g.png""}]","378.8000000715256","https://ziweizhang0304.github.io/Stats_learning_trig/img/Stim/FN_013_g.png","post_TD","11","1705.7999999523163","2084.600000023842","fast","5","2","5dcca2db88381e92c96b9ac5","","","","","",""
"","image-keyboard-response","35","131216","0.0-5.0-11.0-0.0","724.6000000238419","","","https://ziweizhang0304.github.io/Stats_learning_trig/img/Stim/FN_014_g.png","13","","","","","","","","","","","","","","","","","",""
"","animation","36","135642","0.0-5.0-11.0-1.0","","","","","","[{""stimulus"":""https://ziweizhang0304.github.io/Stats_learning_trig/img/Stim/FN_001_g.png"",""time"":354.2000000476837},{""stimulus"":""blank"",""time"":664.6000000238419},{""stimulus"":""https://ziweizhang0304.github.io/Stats_learning_trig/img/Stim/FN_003_g.png"",""time"":689.3000000715256},{""stimulus"":""blank"",""time"":990.8999999761581},{""stimulus"":""https://ziweizhang0304.github.io/Stats_learning_trig/img/Stim/FN_008_g.png"",""time"":1028.8000000715256},{""stimulus"":""blank"",""time"":1332},{""stimulus"":""https://ziweizhang0304.github.io/Stats_learning_trig/img/Stim/FN_015_g.png"",""time"":1362.3000000715256},{""stimulus"":""blank"",""time"":1666.3000000715256},{""stimulus"":""https://ziweizhang0304.github.io/Stats_learning_trig/img/Stim/FN_002_g.png"",""time"":1704.3000000715256},{""stimulus"":""blank"",""time"":2006.8999999761581},{""stimulus"":""https://ziweizhang0304.github.io/Stats_learning_trig/img/Stim/FN_014_g.png"",""time"":2046.8000000715256},{""stimulus"":""blank"",""time"":2350},{""stimulus"":""https://ziweizhang0304.github.io/Stats_learning_trig/img/Stim/FN_013_g.png"",""time"":2387.7000000476837},{""stimulus"":""blank"",""time"":2698.899999976158},{""stimulus"":""https://ziweizhang0304.github.io/Stats_learning_trig/img/Stim/FN_024_g.png"",""time"":2729.100000023842},{""stimulus"":""blank"",""time"":3039.8000000715256},{""stimulus"":""https://ziweizhang0304.github.io/Stats_learning_trig/img/Stim/FN_020_g.png"",""time"":3063.2000000476837},{""stimulus"":""blank"",""time"":3372.2000000476837},{""stimulus"":""https://ziweizhang0304.github.io/Stats_learning_trig/img/Stim/FN_019_g.png"",""time"":3404.5},{""stimulus"":""blank"",""time"":3716.600000023842},{""stimulus"":""https://ziweizhang0304.github.io/Stats_learning_trig/img/Stim/FN_022_g.png"",""time"":3746.8000000715256},{""stimulus"":""blank"",""time"":4050.5},{""stimulus"":""https://ziweizhang0304.github.io/Stats_learning_trig/img/Stim/FN_005_g.png"",""time"":4088},{""stimulus"":""blank"",""time"":4398.300000071526}]","[{""key_press"":32,""rt"":2362.7999999523163,""stimulus"":""blank""}]","315.9999998807907","https://ziweizhang0304.github.io/Stats_learning_trig/img/Stim/FN_014_g.png","post_TD","12","2046.8000000715256","2362.7999999523163","fast","6","1","5dcca2db88381e92c96b9ac5","","","","","",""
"","image-keyboard-response","37","136321","0.0-5.0-12.0-0.0","675.7000000476837","","","https://ziweizhang0304.github.io/Stats_learning_trig/img/Stim/FN_012_g.png","13","","","","","","","","","","","","","","","","","",""
"","animation","38","140748","0.0-5.0-12.0-1.0","","","","","","[{""stimulus"":""https://ziweizhang0304.github.io/Stats_learning_trig/img/Stim/FN_022_g.png"",""time"":342.7000000476837},{""stimulus"":""blank"",""time"":647.2000000476837},{""stimulus"":""https://ziweizhang0304.github.io/Stats_learning_trig/img/Stim/FN_002_g.png"",""time"":684.5},{""stimulus"":""blank"",""time"":995.8999999761581},{""stimulus"":""https://ziweizhang0304.github.io/Stats_learning_trig/img/Stim/FN_008_g.png"",""time"":1021.8000000715256},{""stimulus"":""blank"",""time"":1338},{""stimulus"":""https://ziweizhang0304.github.io/Stats_learning_trig/img/Stim/FN_019_g.png"",""time"":1361.7000000476837},{""stimulus"":""blank"",""time"":1663.3000000715256},{""stimulus"":""https://ziweizhang0304.github.io/Stats_learning_trig/img/Stim/FN_001_g.png"",""time"":1702.6000000238419},{""stimulus"":""blank"",""time"":2014.6000000238419},{""stimulus"":""https://ziweizhang0304.github.io/Stats_learning_trig/img/Stim/FN_007_g.png"",""time"":2043.8999999761581},{""stimulus"":""blank"",""time"":2354.3000000715256},{""stimulus"":""https://ziweizhang0304.github.io/Stats_learning_trig/img/Stim/FN_012_g.png"",""time"":2386.899999976158},{""stimulus"":""blank"",""time"":2696.7000000476837},{""stimulus"":""https://ziweizhang0304.github.io/Stats_learning_trig/img/Stim/FN_025_g.png"",""time"":2728.5},{""stimulus"":""blank"",""time"":3036.7000000476837},{""stimulus"":""https://ziweizhang0304.github.io/Stats_learning_trig/img/Stim/FN_020_g.png"",""time"":3062.100000023842},{""stimulus"":""blank"",""time"":3365.399999976158},{""stimulus"":""https://ziweizhang0304.github.io/Stats_learning_trig/img/Stim/FN_015_g.png"",""time"":3401.2000000476837},{""stimulus"":""blank"",""time"":3712.3000000715256},{""stimulus"":""https://ziweizhang0304.github.io/Stats_learning_trig/img/Stim/FN_003_g.png"",""time"":3744.600000023842},{""stimulus"":""blank"",""time"":4047.2000000476837},{""stimulus"":""https://ziweizhang0304.github.io/Stats_learning_trig/img/Stim/FN_005_g.png"",""time"":4086.100000023842},{""stimulus"":""blank"",""time"":4390.800000071526}]","[{""key_press"":32,""rt"":1428.3999999761581,""stimulus"":""https://ziweizhang0304.github.io/Stats_learning_trig/img/Stim/FN_019_g.png""},{""key_press"":32,""rt"":2736.5,""stimulus"":""https://ziweizhang0304.github.io/Stats_learning_trig/img/Stim/FN_025_g.png""}]","349.60000002384186","https://ziweizhang0304.github.io/Stats_learning_trig/img/Stim/FN_012_g.png","post_TD","13","2386.899999976158","2736.5","slow","7","2","5dcca2db88381e92c96b9ac5","","","","","",""
"","image-keyboard-response","39","141231","0.0-5.0-13.0-0.0","481","","","https://ziweizhang0304.github.io/Stats_learning_trig/img/Stim/FN_024_g.png","13","","","","","","","","","","","","","","","","","",""
"","animation","40","145656","0.0-5.0-13.0-1.0","","","","","","[{""stimulus"":""https://ziweizhang0304.github.io/Stats_learning_trig/img/Stim/FN_002_g.png"",""time"":348.7999999523163},{""stimulus"":""blank"",""time"":658.7000000476837},{""stimulus"":""https://ziweizhang0304.github.io/Stats_learning_trig/img/Stim/FN_008_g.png"",""time"":686.2000000476837},{""stimulus"":""blank"",""time"":992.7000000476837},{""stimulus"":""https://ziweizhang0304.github.io/Stats_learning_trig/img/Stim/FN_020_g.png"",""time"":1022.7000000476837},{""stimulus"":""blank"",""time"":1323.1000000238419},{""stimulus"":""https://ziweizhang0304.github.io/Stats_learning_trig/img/Stim/FN_019_g.png"",""time"":1361},{""stimulus"":""blank"",""time"":1668.3999999761581},{""stimulus"":""https://ziweizhang0304.github.io/Stats_learning_trig/img/Stim/FN_001_g.png"",""time"":1706.2000000476837},{""stimulus"":""blank"",""time"":2009.7000000476837},{""stimulus"":""https://ziweizhang0304.github.io/Stats_learning_trig/img/Stim/FN_022_g.png"",""time"":2049.2000000476837},{""stimulus"":""blank"",""time"":2355.2999999523163},{""stimulus"":""https://ziweizhang0304.github.io/Stats_learning_trig/img/Stim/FN_014_g.png"",""time"":2386.7999999523163},{""stimulus"":""blank"",""time"":2700.100000023842},{""stimulus"":""https://ziweizhang0304.github.io/Stats_learning_trig/img/Stim/FN_013_g.png"",""time"":2724.2000000476837},{""stimulus"":""blank"",""time"":3034.7000000476837},{""stimulus"":""https://ziweizhang0304.github.io/Stats_learning_trig/img/Stim/FN_024_g.png"",""time"":3064.7000000476837},{""stimulus"":""blank"",""time"":3376},{""stimulus"":""https://ziweizhang0304.github.io/Stats_learning_trig/img/Stim/FN_015_g.png"",""time"":3407.2000000476837},{""stimulus"":""blank"",""time"":3709.899999976158},{""stimulus"":""https://ziweizhang0304.github.io/Stats_learning_trig/img/Stim/FN_003_g.png"",""time"":3743},{""stimulus"":""blank"",""time"":4046.600000023842},{""stimulus"":""https://ziweizhang0304.github.io/Stats_learning_trig/img/Stim/FN_005_g.png"",""time"":4083},{""stimulus"":""blank"",""time"":4384.200000047684}]","[{""key_press"":32,""rt"":1994.7999999523163,""stimulus"":""https://ziweizhang0304.github.io/Stats_learning_trig/img/Stim/FN_001_g.png""},{""key_press"":32,""rt"":3047.1999999284744,""stimulus"":""blank""}]","NaN","https://ziweizhang0304.github.io/Stats_learning_trig/img/Stim/FN_024_g.png","post_TD","14","3064.7000000476837","","fast","9","3","5dcca2db88381e92c96b9ac5","","","","","",""
"","image-keyboard-response","41","146033","0.0-5.0-14.0-0.0","374.2999999523163","","","https://ziweizhang0304.github.io/Stats_learning_trig/img/Stim/FN_013_g.png","13","","","","","","","","","","","","","","","","","",""
"","animation","42","150468","0.0-5.0-14.0-1.0","","","","","","[{""stimulus"":""https://ziweizhang0304.github.io/Stats_learning_trig/img/Stim/FN_002_g.png"",""time"":351.6999999284744},{""stimulus"":""blank"",""time"":655.1000000238419},{""stimulus"":""https://ziweizhang0304.github.io/Stats_learning_trig/img/Stim/FN_008_g.png"",""time"":680.6000000238419},{""stimulus"":""blank"",""time"":988.1999999284744},{""stimulus"":""https://ziweizhang0304.github.io/Stats_learning_trig/img/Stim/FN_020_g.png"",""time"":1026.6000000238419},{""stimulus"":""blank"",""time"":1336.6999999284744},{""stimulus"":""https://ziweizhang0304.github.io/Stats_learning_trig/img/Stim/FN_019_g.png"",""time"":1368},{""stimulus"":""blank"",""time"":1672.1000000238419},{""stimulus"":""https://ziweizhang0304.github.io/Stats_learning_trig/img/Stim/FN_001_g.png"",""time"":1700.6999999284744},{""stimulus"":""blank"",""time"":2005.8999999761581},{""stimulus"":""https://ziweizhang0304.github.io/Stats_learning_trig/img/Stim/FN_022_g.png"",""time"":2044.1999999284744},{""stimulus"":""blank"",""time"":2356.600000023842},{""stimulus"":""https://ziweizhang0304.github.io/Stats_learning_trig/img/Stim/FN_014_g.png"",""time"":2386.5},{""stimulus"":""blank"",""time"":2687.6999999284744},{""stimulus"":""https://ziweizhang0304.github.io/Stats_learning_trig/img/Stim/FN_013_g.png"",""time"":2734.5},{""stimulus"":""blank"",""time"":3038.5},{""stimulus"":""https://ziweizhang0304.github.io/Stats_learning_trig/img/Stim/FN_024_g.png"",""time"":3061.899999976158},{""stimulus"":""blank"",""time"":3364},{""stimulus"":""https://ziweizhang0304.github.io/Stats_learning_trig/img/Stim/FN_015_g.png"",""time"":3401.899999976158},{""stimulus"":""blank"",""time"":3704.899999976158},{""stimulus"":""https://ziweizhang0304.github.io/Stats_learning_trig/img/Stim/FN_003_g.png"",""time"":3752.899999976158},{""stimulus"":""blank"",""time"":4063.2999999523163},{""stimulus"":""https://ziweizhang0304.github.io/Stats_learning_trig/img/Stim/FN_005_g.png"",""time"":4085.2999999523163},{""stimulus"":""blank"",""time"":4389.399999976158}]","[{""key_press"":32,""rt"":3029,""stimulus"":""https://ziweizhang0304.github.io/Stats_learning_trig/img/Stim/FN_013_g.png""}]","294.5","https://ziweizhang0304.github.io/Stats_learning_trig/img/Stim/FN_013_g.png","post_TD","15","2734.5","3029","fast","8","2","5dcca2db88381e92c96b9ac5","","","","","",""
"","image-keyboard-response","43","150839","0.0-5.0-15.0-0.0","368.3000000715256","","","https://ziweizhang0304.github.io/Stats_learning_trig/img/Stim/FN_012_g.png","13","","","","","","","","","","","","","","","","","",""
"","animation","44","155274","0.0-5.0-15.0-1.0","","","","","","[{""stimulus"":""https://ziweizhang0304.github.io/Stats_learning_trig/img/Stim/FN_003_g.png"",""time"":351.60000002384186},{""stimulus"":""blank"",""time"":653.3999999761581},{""stimulus"":""https://ziweizhang0304.github.io/Stats_learning_trig/img/Stim/FN_001_g.png"",""time"":690.8999999761581},{""stimulus"":""blank"",""time"":995.8000000715256},{""stimulus"":""https://ziweizhang0304.github.io/Stats_learning_trig/img/Stim/FN_002_g.png"",""time"":1026.3000000715256},{""stimulus"":""blank"",""time"":1329.3000000715256},{""stimulus"":""https://ziweizhang0304.github.io/Stats_learning_trig/img/Stim/FN_015_g.png"",""time"":1365.6000000238419},{""stimulus"":""blank"",""time"":1678.3999999761581},{""stimulus"":""https://ziweizhang0304.github.io/Stats_learning_trig/img/Stim/FN_020_g.png"",""time"":1702.5},{""stimulus"":""blank"",""time"":2012},{""stimulus"":""https://ziweizhang0304.github.io/Stats_learning_trig/img/Stim/FN_005_g.png"",""time"":2043.5},{""stimulus"":""blank"",""time"":2353.600000023842},{""stimulus"":""https://ziweizhang0304.github.io/Stats_learning_trig/img/Stim/FN_007_g.png"",""time"":2386.2000000476837},{""stimulus"":""blank"",""time"":2689.100000023842},{""stimulus"":""https://ziweizhang0304.github.io/Stats_learning_trig/img/Stim/FN_012_g.png"",""time"":2721},{""stimulus"":""blank"",""time"":3021.7000000476837},{""stimulus"":""https://ziweizhang0304.github.io/Stats_learning_trig/img/Stim/FN_025_g.png"",""time"":3061.2000000476837},{""stimulus"":""blank"",""time"":3364.3000000715256},{""stimulus"":""https://ziweizhang0304.github.io/Stats_learning_trig/img/Stim/FN_008_g.png"",""time"":3403.2000000476837},{""stimulus"":""blank"",""time"":3706.3000000715256},{""stimulus"":""https://ziweizhang0304.github.io/Stats_learning_trig/img/Stim/FN_019_g.png"",""time"":3743.600000023842},{""stimulus"":""blank"",""time"":4055.5},{""stimulus"":""https://ziweizhang0304.github.io/Stats_learning_trig/img/Stim/FN_022_g.png"",""time"":4085.7000000476837},{""stimulus"":""blank"",""time"":4395.700000047684}]","[{""key_press"":32,""rt"":2719.399999976158,""stimulus"":""blank""},{""key_press"":32,""rt"":3162.8000000715256,""stimulus"":""https://ziweizhang0304.github.io/Stats_learning_trig/img/Stim/FN_025_g.png""}]","441.8000000715256","https://ziweizhang0304.github.io/Stats_learning_trig/img/Stim/FN_012_g.png","post_TD","16","2721","3162.8000000715256","slow","8","2","5dcca2db88381e92c96b9ac5","","","","","",""
"","image-keyboard-response","45","155647","0.0-5.0-16.0-0.0","370.1999999284744","","","https://ziweizhang0304.github.io/Stats_learning_trig/img/Stim/FN_007_g.png","13","","","","","","","","","","","","","","","","","",""
"","animation","46","160073","0.0-5.0-16.0-1.0","","","","","","[{""stimulus"":""https://ziweizhang0304.github.io/Stats_learning_trig/img/Stim/FN_002_g.png"",""time"":341.39999997615814},{""stimulus"":""blank"",""time"":652.6999999284744},{""stimulus"":""https://ziweizhang0304.github.io/Stats_learning_trig/img/Stim/FN_005_g.png"",""time"":683.5},{""stimulus"":""blank"",""time"":994.1000000238419},{""stimulus"":""https://ziweizhang0304.github.io/Stats_learning_trig/img/Stim/FN_003_g.png"",""time"":1025.3999999761581},{""stimulus"":""blank"",""time"":1328.2999999523163},{""stimulus"":""https://ziweizhang0304.github.io/Stats_learning_trig/img/Stim/FN_007_g.png"",""time"":1366},{""stimulus"":""blank"",""time"":1677.1000000238419},{""stimulus"":""https://ziweizhang0304.github.io/Stats_learning_trig/img/Stim/FN_012_g.png"",""time"":1707.5},{""stimulus"":""blank"",""time"":2018.6999999284744},{""stimulus"":""https://ziweizhang0304.github.io/Stats_learning_trig/img/Stim/FN_025_g.png"",""time"":2049.6999999284744},{""stimulus"":""blank"",""time"":2360.600000023842},{""stimulus"":""https://ziweizhang0304.github.io/Stats_learning_trig/img/Stim/FN_008_g.png"",""time"":2384},{""stimulus"":""blank"",""time"":2686.100000023842},{""stimulus"":""https://ziweizhang0304.github.io/Stats_learning_trig/img/Stim/FN_020_g.png"",""time"":2726.5},{""stimulus"":""blank"",""time"":3027.899999976158},{""stimulus"":""https://ziweizhang0304.github.io/Stats_learning_trig/img/Stim/FN_001_g.png"",""time"":3066.6999999284744},{""stimulus"":""blank"",""time"":3376.5},{""stimulus"":""https://ziweizhang0304.github.io/Stats_learning_trig/img/Stim/FN_019_g.png"",""time"":3401.2999999523163},{""stimulus"":""blank"",""time"":3703.600000023842},{""stimulus"":""https://ziweizhang0304.github.io/Stats_learning_trig/img/Stim/FN_015_g.png"",""time"":3740.6999999284744},{""stimulus"":""blank"",""time"":4045.600000023842},{""stimulus"":""https://ziweizhang0304.github.io/Stats_learning_trig/img/Stim/FN_022_g.png"",""time"":4084.100000023842},{""stimulus"":""blank"",""time"":4386}]","[{""key_press"":32,""rt"":1714.5999999046326,""stimulus"":""https://ziweizhang0304.github.io/Stats_learning_trig/img/Stim/FN_012_g.png""}]","348.59999990463257","https://ziweizhang0304.github.io/Stats_learning_trig/img/Stim/FN_007_g.png","post_TD","17","1366","1714.5999999046326","slow","4","1","5dcca2db88381e92c96b9ac5","","","","","",""
"","image-keyboard-response","47","160456","0.0-5.0-17.0-0.0","380.89999997615814","","","https://ziweizhang0304.github.io/Stats_learning_trig/img/Stim/FN_007_g.png","13","","","","","","","","","","","","","","","","","",""
"","animation","48","164880","0.0-5.0-17.0-1.0","","","","","","[{""stimulus"":""https://ziweizhang0304.github.io/Stats_learning_trig/img/Stim/FN_019_g.png"",""time"":347.2999999523163},{""stimulus"":""blank"",""time"":661.6999999284744},{""stimulus"":""https://ziweizhang0304.github.io/Stats_learning_trig/img/Stim/FN_005_g.png"",""time"":686.2999999523163},{""stimulus"":""blank"",""time"":999},{""stimulus"":""https://ziweizhang0304.github.io/Stats_learning_trig/img/Stim/FN_003_g.png"",""time"":1022.2999999523163},{""stimulus"":""blank"",""time"":1325.0999999046326},{""stimulus"":""https://ziweizhang0304.github.io/Stats_learning_trig/img/Stim/FN_001_g.png"",""time"":1362.5999999046326},{""stimulus"":""blank"",""time"":1674},{""stimulus"":""https://ziweizhang0304.github.io/Stats_learning_trig/img/Stim/FN_007_g.png"",""time"":1701.8999999761581},{""stimulus"":""blank"",""time"":2006.5999999046326},{""stimulus"":""https://ziweizhang0304.github.io/Stats_learning_trig/img/Stim/FN_012_g.png"",""time"":2047.3999999761581},{""stimulus"":""blank"",""time"":2357.399999976158},{""stimulus"":""https://ziweizhang0304.github.io/Stats_learning_trig/img/Stim/FN_025_g.png"",""time"":2387.1999999284744},{""stimulus"":""blank"",""time"":2691.0999999046326},{""stimulus"":""https://ziweizhang0304.github.io/Stats_learning_trig/img/Stim/FN_008_g.png"",""time"":2729.5},{""stimulus"":""blank"",""time"":3040},{""stimulus"":""https://ziweizhang0304.github.io/Stats_learning_trig/img/Stim/FN_020_g.png"",""time"":3064.0999999046326},{""stimulus"":""blank"",""time"":3372.7999999523163},{""stimulus"":""https://ziweizhang0304.github.io/Stats_learning_trig/img/Stim/FN_015_g.png"",""time"":3405.7999999523163},{""stimulus"":""blank"",""time"":3708.2999999523163},{""stimulus"":""https://ziweizhang0304.github.io/Stats_learning_trig/img/Stim/FN_022_g.png"",""time"":3743.6999999284744},{""stimulus"":""blank"",""time"":4050},{""stimulus"":""https://ziweizhang0304.github.io/Stats_learning_trig/img/Stim/FN_002_g.png"",""time"":4085.5999999046326},{""stimulus"":""blank"",""time"":4388}]","[{""key_press"":32,""rt"":2101.7000000476837,""stimulus"":""https://ziweizhang0304.github.io/Stats_learning_trig/img/Stim/FN_012_g.png""}]","399.8000000715256","https://ziweizhang0304.github.io/Stats_learning_trig/img/Stim/FN_007_g.png","post_TD","18","1701.8999999761581","2101.7000000476837","slow","5","1","5dcca2db88381e92c96b9ac5","","","","","",""
"","image-keyboard-response","49","165307","0.0-5.0-18.0-0.0","424.7999999523163","","","https://ziweizhang0304.github.io/Stats_learning_trig/img/Stim/FN_012_g.png","13","","","","","","","","","","","","","","","","","",""
"","animation","50","169731","0.0-5.0-18.0-1.0","","","","","","[{""stimulus"":""https://ziweizhang0304.github.io/Stats_learning_trig/img/Stim/FN_002_g.png"",""time"":349.7999999523163},{""stimulus"":""blank"",""time"":658.8999999761581},{""stimulus"":""https://ziweizhang0304.github.io/Stats_learning_trig/img/Stim/FN_005_g.png"",""time"":689.0999999046326},{""stimulus"":""blank"",""time"":993},{""stimulus"":""https://ziweizhang0304.github.io/Stats_learning_trig/img/Stim/FN_003_g.png"",""time"":1023.0999999046326},{""stimulus"":""blank"",""time"":1334.1999999284744},{""stimulus"":""https://ziweizhang0304.github.io/Stats_learning_trig/img/Stim/FN_007_g.png"",""time"":1363.8999999761581},{""stimulus"":""blank"",""time"":1674.8999999761581},{""stimulus"":""https://ziweizhang0304.github.io/Stats_learning_trig/img/Stim/FN_012_g.png"",""time"":1701.2999999523163},{""stimulus"":""blank"",""time"":2001.7999999523163},{""stimulus"":""https://ziweizhang0304.github.io/Stats_learning_trig/img/Stim/FN_025_g.png"",""time"":2048.7999999523163},{""stimulus"":""blank"",""time"":2351.0999999046326},{""stimulus"":""https://ziweizhang0304.github.io/Stats_learning_trig/img/Stim/FN_008_g.png"",""time"":2389.899999976158},{""stimulus"":""blank"",""time"":2706.5999999046326},{""stimulus"":""https://ziweizhang0304.github.io/Stats_learning_trig/img/Stim/FN_020_g.png"",""time"":2723.6999999284744},{""stimulus"":""blank"",""time"":3027.1999999284744},{""stimulus"":""https://ziweizhang0304.github.io/Stats_learning_trig/img/Stim/FN_001_g.png"",""time"":3064.6999999284744},{""stimulus"":""blank"",""time"":3375.2999999523163},{""stimulus"":""https://ziweizhang0304.github.io/Stats_learning_trig/img/Stim/FN_019_g.png"",""time"":3401.5},{""stimulus"":""blank"",""time"":3708.899999976158},{""stimulus"":""https://ziweizhang0304.github.io/Stats_learning_trig/img/Stim/FN_015_g.png"",""time"":3746},{""stimulus"":""blank"",""time"":4050.5999999046326},{""stimulus"":""https://ziweizhang0304.github.io/Stats_learning_trig/img/Stim/FN_022_g.png"",""time"":4091.2999999523163},{""stimulus"":""blank"",""time"":4407.599999904633}]","[{""key_press"":32,""rt"":2061.5,""stimulus"":""https://ziweizhang0304.github.io/Stats_learning_trig/img/Stim/FN_025_g.png""}]","360.2000000476837","https://ziweizhang0304.github.io/Stats_learning_trig/img/Stim/FN_012_g.png","post_TD","19","1701.2999999523163","2061.5","slow","5","2","5dcca2db88381e92c96b9ac5","","","","","",""
"","image-keyboard-response","51","170231","0.0-5.0-19.0-0.0","497.39999997615814","","","https://ziweizhang0304.github.io/Stats_learning_trig/img/Stim/FN_013_g.png","13","","","","","","","","","","","","","","","","","",""
"","animation","52","174653","0.0-5.0-19.0-1.0","","","","","","[{""stimulus"":""https://ziweizhang0304.github.io/Stats_learning_trig/img/Stim/FN_001_g.png"",""time"":347.5},{""stimulus"":""blank"",""time"":648.5},{""stimulus"":""https://ziweizhang0304.github.io/Stats_learning_trig/img/Stim/FN_005_g.png"",""time"":687.2999999523163},{""stimulus"":""blank"",""time"":989.7999999523163},{""stimulus"":""https://ziweizhang0304.github.io/Stats_learning_trig/img/Stim/FN_015_g.png"",""time"":1027.2999999523163},{""stimulus"":""blank"",""time"":1340.8999999761581},{""stimulus"":""https://ziweizhang0304.github.io/Stats_learning_trig/img/Stim/FN_019_g.png"",""time"":1371},{""stimulus"":""blank"",""time"":1681},{""stimulus"":""https://ziweizhang0304.github.io/Stats_learning_trig/img/Stim/FN_014_g.png"",""time"":1712.1999999284744},{""stimulus"":""blank"",""time"":2021.8999999761581},{""stimulus"":""https://ziweizhang0304.github.io/Stats_learning_trig/img/Stim/FN_013_g.png"",""time"":2046.2999999523163},{""stimulus"":""blank"",""time"":2349.5},{""stimulus"":""https://ziweizhang0304.github.io/Stats_learning_trig/img/Stim/FN_024_g.png"",""time"":2381.0999999046326},{""stimulus"":""blank"",""time"":2691.7999999523163},{""stimulus"":""https://ziweizhang0304.github.io/Stats_learning_trig/img/Stim/FN_008_g.png"",""time"":2730.899999976158},{""stimulus"":""blank"",""time"":3033.399999976158},{""stimulus"":""https://ziweizhang0304.github.io/Stats_learning_trig/img/Stim/FN_020_g.png"",""time"":3063.899999976158},{""stimulus"":""blank"",""time"":3374},{""stimulus"":""https://ziweizhang0304.github.io/Stats_learning_trig/img/Stim/FN_022_g.png"",""time"":3413.2999999523163},{""stimulus"":""blank"",""time"":3723.5999999046326},{""stimulus"":""https://ziweizhang0304.github.io/Stats_learning_trig/img/Stim/FN_003_g.png"",""time"":3747.899999976158},{""stimulus"":""blank"",""time"":4049.399999976158},{""stimulus"":""https://ziweizhang0304.github.io/Stats_learning_trig/img/Stim/FN_002_g.png"",""time"":4089.2999999523163},{""stimulus"":""blank"",""time"":4392.399999976158}]","[{""key_press"":32,""rt"":1405.6000000238419,""stimulus"":""https://ziweizhang0304.github.io/Stats_learning_trig/img/Stim/FN_019_g.png""}]","NaN","https://ziweizhang0304.github.io/Stats_learning_trig/img/Stim/FN_013_g.png","post_TD","20","2046.2999999523163","","fast","6","2","5dcca2db88381e92c96b9ac5","","","","","",""
"","image-keyboard-response","53","175273","0.0-5.0-20.0-0.0","616.8000000715256","","","https://ziweizhang0304.github.io/Stats_learning_trig/img/Stim/FN_012_g.png","13","","","","","","","","","","","","","","","","","",""
"","animation","54","179701","0.0-5.0-20.0-1.0","","","","","","[{""stimulus"":""https://ziweizhang0304.github.io/Stats_learning_trig/img/Stim/FN_019_g.png"",""time"":353.10000002384186},{""stimulus"":""blank"",""time"":664.5},{""stimulus"":""https://ziweizhang0304.github.io/Stats_learning_trig/img/Stim/FN_005_g.png"",""time"":692.9000000953674},{""stimulus"":""blank"",""time"":995.9000000953674},{""stimulus"":""https://ziweizhang0304.github.io/Stats_learning_trig/img/Stim/FN_003_g.png"",""time"":1027},{""stimulus"":""blank"",""time"":1330.6000000238419},{""stimulus"":""https://ziweizhang0304.github.io/Stats_learning_trig/img/Stim/FN_001_g.png"",""time"":1362.6000000238419},{""stimulus"":""blank"",""time"":1672.1000000238419},{""stimulus"":""https://ziweizhang0304.github.io/Stats_learning_trig/img/Stim/FN_007_g.png"",""time"":1704},{""stimulus"":""blank"",""time"":2005.4000000953674},{""stimulus"":""https://ziweizhang0304.github.io/Stats_learning_trig/img/Stim/FN_012_g.png"",""time"":2045},{""stimulus"":""blank"",""time"":2347},{""stimulus"":""https://ziweizhang0304.github.io/Stats_learning_trig/img/Stim/FN_025_g.png"",""time"":2381.3000000715256},{""stimulus"":""blank"",""time"":2688.600000023842},{""stimulus"":""https://ziweizhang0304.github.io/Stats_learning_trig/img/Stim/FN_008_g.png"",""time"":2728.5},{""stimulus"":""blank"",""time"":3039.2000000476837},{""stimulus"":""https://ziweizhang0304.github.io/Stats_learning_trig/img/Stim/FN_020_g.png"",""time"":3062.600000023842},{""stimulus"":""blank"",""time"":3372},{""stimulus"":""https://ziweizhang0304.github.io/Stats_learning_trig/img/Stim/FN_015_g.png"",""time"":3402.3000000715256},{""stimulus"":""blank"",""time"":3705.8000000715256},{""stimulus"":""https://ziweizhang0304.github.io/Stats_learning_trig/img/Stim/FN_022_g.png"",""time"":3744.4000000953674},{""stimulus"":""blank"",""time"":4054.8000000715256},{""stimulus"":""https://ziweizhang0304.github.io/Stats_learning_trig/img/Stim/FN_002_g.png"",""time"":4087.3000000715256},{""stimulus"":""blank"",""time"":4398.200000047684}]","[{""key_press"":32,""rt"":2399.399999976158,""stimulus"":""https://ziweizhang0304.github.io/Stats_learning_trig/img/Stim/FN_025_g.png""}]","354.39999997615814","https://ziweizhang0304.github.io/Stats_learning_trig/img/Stim/FN_012_g.png","post_TD","21","2045","2399.399999976158","slow","6","2","5dcca2db88381e92c96b9ac5","","","","","",""
"","image-keyboard-response","55","180060","0.0-5.0-21.0-0.0","355.7999999523163","","","https://ziweizhang0304.github.io/Stats_learning_trig/img/Stim/FN_025_g.png","13","","","","","","","","","","","","","","","","","",""
"","animation","56","184483","0.0-5.0-21.0-1.0","","","","","","[{""stimulus"":""https://ziweizhang0304.github.io/Stats_learning_trig/img/Stim/FN_002_g.png"",""time"":341.39999997615814},{""stimulus"":""blank"",""time"":642.7000000476837},{""stimulus"":""https://ziweizhang0304.github.io/Stats_learning_trig/img/Stim/FN_005_g.png"",""time"":681.7000000476837},{""stimulus"":""blank"",""time"":984.1000000238419},{""stimulus"":""https://ziweizhang0304.github.io/Stats_learning_trig/img/Stim/FN_003_g.png"",""time"":1031.8999999761581},{""stimulus"":""blank"",""time"":1342.2999999523163},{""stimulus"":""https://ziweizhang0304.github.io/Stats_learning_trig/img/Stim/FN_007_g.png"",""time"":1372.7000000476837},{""stimulus"":""blank"",""time"":1684.2999999523163},{""stimulus"":""https://ziweizhang0304.github.io/Stats_learning_trig/img/Stim/FN_012_g.png"",""time"":1715.7000000476837},{""stimulus"":""blank"",""time"":2025.7999999523163},{""stimulus"":""https://ziweizhang0304.github.io/Stats_learning_trig/img/Stim/FN_025_g.png"",""time"":2041.1000000238419},{""stimulus"":""blank"",""time"":2351.399999976158},{""stimulus"":""https://ziweizhang0304.github.io/Stats_learning_trig/img/Stim/FN_008_g.png"",""time"":2382.5},{""stimulus"":""blank"",""time"":2699.899999976158},{""stimulus"":""https://ziweizhang0304.github.io/Stats_learning_trig/img/Stim/FN_020_g.png"",""time"":2727.399999976158},{""stimulus"":""blank"",""time"":3036.5},{""stimulus"":""https://ziweizhang0304.github.io/Stats_learning_trig/img/Stim/FN_001_g.png"",""time"":3065.2000000476837},{""stimulus"":""blank"",""time"":3376.2999999523163},{""stimulus"":""https://ziweizhang0304.github.io/Stats_learning_trig/img/Stim/FN_019_g.png"",""time"":3402.5},{""stimulus"":""blank"",""time"":3702.600000023842},{""stimulus"":""https://ziweizhang0304.github.io/Stats_learning_trig/img/Stim/FN_015_g.png"",""time"":3749.5},{""stimulus"":""blank"",""time"":4060.5},{""stimulus"":""https://ziweizhang0304.github.io/Stats_learning_trig/img/Stim/FN_022_g.png"",""time"":4081.600000023842},{""stimulus"":""blank"",""time"":4384.899999976158}]","[{""key_press"":32,""rt"":2106.2999999523163,""stimulus"":""https://ziweizhang0304.github.io/Stats_learning_trig/img/Stim/FN_025_g.png""}]","65.19999992847443","https://ziweizhang0304.github.io/Stats_learning_trig/img/Stim/FN_025_g.png","post_TD","22","2041.1000000238419","2106.2999999523163","slow","6","3","5dcca2db88381e92c96b9ac5","","","","","",""
"","image-keyboard-response","57","185882","0.0-5.0-22.0-0.0","1396.0999999046326","","","https://ziweizhang0304.github.io/Stats_learning_trig/img/Stim/FN_014_g.png","13","","","","","","","","","","","","","","","","","",""
"","animation","58","190304","0.0-5.0-22.0-1.0","","","","","","[{""stimulus"":""https://ziweizhang0304.github.io/Stats_learning_trig/img/Stim/FN_002_g.png"",""time"":342.39999997615814},{""stimulus"":""blank"",""time"":645.3999999761581},{""stimulus"":""https://ziweizhang0304.github.io/Stats_learning_trig/img/Stim/FN_008_g.png"",""time"":682.3999999761581},{""stimulus"":""blank"",""time"":994.2999999523163},{""stimulus"":""https://ziweizhang0304.github.io/Stats_learning_trig/img/Stim/FN_020_g.png"",""time"":1030.7999999523163},{""stimulus"":""blank"",""time"":1334.6000000238419},{""stimulus"":""https://ziweizhang0304.github.io/Stats_learning_trig/img/Stim/FN_019_g.png"",""time"":1366.6000000238419},{""stimulus"":""blank"",""time"":1669.3999999761581},{""stimulus"":""https://ziweizhang0304.github.io/Stats_learning_trig/img/Stim/FN_001_g.png"",""time"":1701.5},{""stimulus"":""blank"",""time"":2003.8999999761581},{""stimulus"":""https://ziweizhang0304.github.io/Stats_learning_trig/img/Stim/FN_022_g.png"",""time"":2041.5},{""stimulus"":""blank"",""time"":2352.2999999523163},{""stimulus"":""https://ziweizhang0304.github.io/Stats_learning_trig/img/Stim/FN_014_g.png"",""time"":2384.2000000476837},{""stimulus"":""blank"",""time"":2685.899999976158},{""stimulus"":""https://ziweizhang0304.github.io/Stats_learning_trig/img/Stim/FN_013_g.png"",""time"":2722.100000023842},{""stimulus"":""blank"",""time"":3028.7000000476837},{""stimulus"":""https://ziweizhang0304.github.io/Stats_learning_trig/img/Stim/FN_024_g.png"",""time"":3066.100000023842},{""stimulus"":""blank"",""time"":3376.399999976158},{""stimulus"":""https://ziweizhang0304.github.io/Stats_learning_trig/img/Stim/FN_015_g.png"",""time"":3401.399999976158},{""stimulus"":""blank"",""time"":3713.399999976158},{""stimulus"":""https://ziweizhang0304.github.io/Stats_learning_trig/img/Stim/FN_003_g.png"",""time"":3741.899999976158},{""stimulus"":""blank"",""time"":4044.600000023842},{""stimulus"":""https://ziweizhang0304.github.io/Stats_learning_trig/img/Stim/FN_005_g.png"",""time"":4084.600000023842},{""stimulus"":""blank"",""time"":4387.299999952316}]","[{""key_press"":32,""rt"":2730.6999999284744,""stimulus"":""https://ziweizhang0304.github.io/Stats_learning_trig/img/Stim/FN_013_g.png""}]","346.4999998807907","https://ziweizhang0304.github.io/Stats_learning_trig/img/Stim/FN_014_g.png","post_TD","23","2384.2000000476837","2730.6999999284744","fast","7","1","5dcca2db88381e92c96b9ac5","","","","","",""
"","image-keyboard-response","59","194733","0.0-5.0-23.0-0.0","4427.300000071526","","","https://ziweizhang0304.github.io/Stats_learning_trig/img/Stim/FN_024_g.png","13","","","","","","","","","","","","","","","","","",""
"","animation","60","199158","0.0-5.0-23.0-1.0","","","","","","[{""stimulus"":""https://ziweizhang0304.github.io/Stats_learning_trig/img/Stim/FN_001_g.png"",""time"":342.8000000715256},{""stimulus"":""blank"",""time"":652.3000000715256},{""stimulus"":""https://ziweizhang0304.github.io/Stats_learning_trig/img/Stim/FN_003_g.png"",""time"":690.4000000953674},{""stimulus"":""blank"",""time"":1001.8000000715256},{""stimulus"":""https://ziweizhang0304.github.io/Stats_learning_trig/img/Stim/FN_008_g.png"",""time"":1031.9000000953674},{""stimulus"":""blank"",""time"":1334},{""stimulus"":""https://ziweizhang0304.github.io/Stats_learning_trig/img/Stim/FN_015_g.png"",""time"":1362.5},{""stimulus"":""blank"",""time"":1677.4000000953674},{""stimulus"":""https://ziweizhang0304.github.io/Stats_learning_trig/img/Stim/FN_002_g.png"",""time"":1711.8000000715256},{""stimulus"":""blank"",""time"":2026.1000000238419},{""stimulus"":""https://ziweizhang0304.github.io/Stats_learning_trig/img/Stim/FN_014_g.png"",""time"":2049.100000023842},{""stimulus"":""blank"",""time"":2351.9000000953674},{""stimulus"":""https://ziweizhang0304.github.io/Stats_learning_trig/img/Stim/FN_013_g.png"",""time"":2390.8000000715256},{""stimulus"":""blank"",""time"":2702.3000000715256},{""stimulus"":""https://ziweizhang0304.github.io/Stats_learning_trig/img/Stim/FN_024_g.png"",""time"":2724.4000000953674},{""stimulus"":""blank"",""time"":3027},{""stimulus"":""https://ziweizhang0304.github.io/Stats_learning_trig/img/Stim/FN_020_g.png"",""time"":3067.2000000476837},{""stimulus"":""blank"",""time"":3375.9000000953674},{""stimulus"":""https://ziweizhang0304.github.io/Stats_learning_trig/img/Stim/FN_019_g.png"",""time"":3408.3000000715256},{""stimulus"":""blank"",""time"":3710},{""stimulus"":""https://ziweizhang0304.github.io/Stats_learning_trig/img/Stim/FN_022_g.png"",""time"":3742.5},{""stimulus"":""blank"",""time"":4044.7000000476837},{""stimulus"":""https://ziweizhang0304.github.io/Stats_learning_trig/img/Stim/FN_005_g.png"",""time"":4082.600000023842},{""stimulus"":""blank"",""time"":4394.100000023842}]","[{""key_press"":32,""rt"":3115.7999999523163,""stimulus"":""https://ziweizhang0304.github.io/Stats_learning_trig/img/Stim/FN_020_g.png""}]","391.39999985694885","https://ziweizhang0304.github.io/Stats_learning_trig/img/Stim/FN_024_g.png","post_TD","24","2724.4000000953674","3115.7999999523163","fast","8","3","5dcca2db88381e92c96b9ac5","5dc39","","","","",""
"","survey-text","61","217487","0.0-6.0","18318.699999928474","","","","","","","","","","","","","","","","","","{""Q0"":""no strategies used. just tried to be fast""}","","","",""
"","survey-text","62","222396","0.0-7.0","4905.200000047684","","","","","","","","","","","","","","","","","","{""[object Object]"":""no""}","","","",""
"","instructions","63","226867","0.0-8.0","4470.199999928474","","[{""page_index"":0,""viewing_time"":4469.899999976158}]","","","","","","","","","","","","","","","","","","","",""
"","free-sort","64","237392","0.0-9.0","10522.5","","","","","","","","","post_drag","","","","fast","","","","","","[{""src"":""https://ziweizhang0304.github.io/Stats_learning_trig/img/Stim/FN_024_g.png"",""x"":475,""y"":0},{""src"":""https://ziweizhang0304.github.io/Stats_learning_trig/img/Stim/FN_013_g.png"",""x"":-225,""y"":50},{""src"":""https://ziweizhang0304.github.io/Stats_learning_trig/img/Stim/FN_014_g.png"",""x"":475,""y"":50}]","[{""src"":""https://ziweizhang0304.github.io/Stats_learning_trig/img/Stim/FN_024_g.png"",""x"":41,""y"":39},{""src"":""https://ziweizhang0304.github.io/Stats_learning_trig/img/Stim/FN_014_g.png"",""x"":201,""y"":39},{""src"":""https://ziweizhang0304.github.io/Stats_learning_trig/img/Stim/FN_013_g.png"",""x"":122,""y"":75},{""src"":""https://ziweizhang0304.github.io/Stats_learning_trig/img/Stim/FN_013_g.png"",""x"":122,""y"":42}]","[{""src"":""https://ziweizhang0304.github.io/Stats_learning_trig/img/Stim/FN_024_g.png"",""x"":41,""y"":39},{""src"":""https://ziweizhang0304.github.io/Stats_learning_trig/img/Stim/FN_013_g.png"",""x"":122,""y"":42},{""src"":""https://ziweizhang0304.github.io/Stats_learning_trig/img/Stim/FN_014_g.png"",""x"":201,""y"":39}]",""
"","free-sort","65","244805","0.0-10.0","7410.199999928474","","","","","","","","","post_drag","","","","slow","","","","","","[{""src"":""https://ziweizhang0304.github.io/Stats_learning_trig/img/Stim/FN_012_g.png"",""x"":475,""y"":0},{""src"":""https://ziweizhang0304.github.io/Stats_learning_trig/img/Stim/FN_007_g.png"",""x"":-225,""y"":50},{""src"":""https://ziweizhang0304.github.io/Stats_learning_trig/img/Stim/FN_025_g.png"",""x"":475,""y"":50}]","[{""src"":""https://ziweizhang0304.github.io/Stats_learning_trig/img/Stim/FN_012_g.png"",""x"":180,""y"":13},{""src"":""https://ziweizhang0304.github.io/Stats_learning_trig/img/Stim/FN_025_g.png"",""x"":63,""y"":34},{""src"":""https://ziweizhang0304.github.io/Stats_learning_trig/img/Stim/FN_007_g.png"",""x"":226,""y"":50},{""src"":""https://ziweizhang0304.github.io/Stats_learning_trig/img/Stim/FN_012_g.png"",""x"":135,""y"":23},{""src"":""https://ziweizhang0304.github.io/Stats_learning_trig/img/Stim/FN_007_g.png"",""x"":222,""y"":34}]","[{""src"":""https://ziweizhang0304.github.io/Stats_learning_trig/img/Stim/FN_012_g.png"",""x"":135,""y"":23},{""src"":""https://ziweizhang0304.github.io/Stats_learning_trig/img/Stim/FN_007_g.png"",""x"":222,""y"":34},{""src"":""https://ziweizhang0304.github.io/Stats_learning_trig/img/Stim/FN_025_g.png"",""x"":63,""y"":34}]",""
"","survey-multi-choice","66","250292","0.0-11.0","5481.200000047684","","","","","","","","","","","","","","","","5dcca2db88381e92c96b9ac5","","{""awareness"":""No"",""attention_check"":""Press SPACEBAR to a target""}","","","","[0,1]"
