"success","trial_type","trial_index","time_elapsed","internal_node_id","rt","url","view_history","stimulus","key_press","animation_sequence","response","TD_rt","TD_target","test_part","TD_trial_number","onset","offset","attention_state","TD_target_position","TD_within_triplet_counter","participant","yoke_participant","responses","init_locations","moves","final_locations","question_order"
"true","fullscreen","0","24240","0.0-0.0","","","","","","","","","","","","","","","","","","","","","","",""
"","external-html","1","61555","0.0-1.0","37040.10000002384","https://ziweizhang0304.github.io/Stats_learning_trig/content/consent.html","","","","","","","","","","","","","","","","","","","","",""
"","instructions","2","108833","0.0-2.0","47275.299999952316","","[{""page_index"":0,""viewing_time"":3075.5},{""page_index"":1,""viewing_time"":29914.600000023842},{""page_index"":2,""viewing_time"":11976.799999952316},{""page_index"":3,""viewing_time"":2307.7000000476837}]","","","","","","","","","","","","","","","","","","","",""
"","image-keyboard-response","3","119180","0.0-3.0-0.0-0.0","10345.899999976158","","","https://ziweizhang0304.github.io/Stats_learning_trig/img/Stim/FN_006_g.png","13","","","","","","","","","","","","","","","","","",""
"","animation","4","123601","0.0-3.0-0.0-1.0","","","","","","[{""stimulus"":""https://ziweizhang0304.github.io/Stats_learning_trig/img/Stim/FN_015_g.png"",""time"":352.39999997615814},{""stimulus"":""blank"",""time"":654.1000000238419},{""stimulus"":""https://ziweizhang0304.github.io/Stats_learning_trig/img/Stim/FN_018_g.png"",""time"":681.1000000238419},{""stimulus"":""blank"",""time"":984.5},{""stimulus"":""https://ziweizhang0304.github.io/Stats_learning_trig/img/Stim/FN_010_g.png"",""time"":1021.2999999523163},{""stimulus"":""blank"",""time"":1321.8999999761581},{""stimulus"":""https://ziweizhang0304.github.io/Stats_learning_trig/img/Stim/FN_011_g.png"",""time"":1363.6999999284744},{""stimulus"":""blank"",""time"":1668.2999999523163},{""stimulus"":""https://ziweizhang0304.github.io/Stats_learning_trig/img/Stim/FN_004_g.png"",""time"":1704.8999999761581},{""stimulus"":""blank"",""time"":2005.1999999284744},{""stimulus"":""https://ziweizhang0304.github.io/Stats_learning_trig/img/Stim/FN_008_g.png"",""time"":2042.2999999523163},{""stimulus"":""blank"",""time"":2343.399999976158},{""stimulus"":""https://ziweizhang0304.github.io/Stats_learning_trig/img/Stim/FN_001_g.png"",""time"":2382.899999976158},{""stimulus"":""blank"",""time"":2685.7999999523163},{""stimulus"":""https://ziweizhang0304.github.io/Stats_learning_trig/img/Stim/FN_022_g.png"",""time"":2723.100000023842},{""stimulus"":""blank"",""time"":3024.399999976158},{""stimulus"":""https://ziweizhang0304.github.io/Stats_learning_trig/img/Stim/FN_025_g.png"",""time"":3065.899999976158},{""stimulus"":""blank"",""time"":3371.100000023842},{""stimulus"":""https://ziweizhang0304.github.io/Stats_learning_trig/img/Stim/FN_014_g.png"",""time"":3401.1999999284744},{""stimulus"":""blank"",""time"":3706.5},{""stimulus"":""https://ziweizhang0304.github.io/Stats_learning_trig/img/Stim/FN_006_g.png"",""time"":3744.899999976158},{""stimulus"":""blank"",""time"":4050.100000023842},{""stimulus"":""https://ziweizhang0304.github.io/Stats_learning_trig/img/Stim/FN_013_g.png"",""time"":4083.899999976158},{""stimulus"":""blank"",""time"":4385.899999976158}]","[{""key_press"":32,""rt"":4126.800000071526,""stimulus"":""https://ziweizhang0304.github.io/Stats_learning_trig/img/Stim/FN_013_g.png""}]","381.90000009536743","https://ziweizhang0304.github.io/Stats_learning_trig/img/Stim/FN_006_g.png","post_prac","","","","","","","","","","","","",""
"","html-keyboard-response","5","131115","0.0-3.0-0.0-2.0","7510.5","","","<p>Your reaction time for this trial was 381.9 ms.</p><p>Remember that you should only press the SPACEBAR when you see the shape presented at the beginning of the trial. </b> </p><p>Press enter to move on.</p>","13","","","","","","","","","","","","","","","","","",""
"","image-keyboard-response","6","135261","0.0-3.0-1.0-0.0","4145.300000071526","","","https://ziweizhang0304.github.io/Stats_learning_trig/img/Stim/FN_006_g.png","13","","","","","","","","","","","","","","","","","",""
"","animation","7","139682","0.0-3.0-1.0-1.0","","","","","","[{""stimulus"":""https://ziweizhang0304.github.io/Stats_learning_trig/img/Stim/FN_013_g.png"",""time"":342},{""stimulus"":""blank"",""time"":642.3000000715256},{""stimulus"":""https://ziweizhang0304.github.io/Stats_learning_trig/img/Stim/FN_008_g.png"",""time"":681.6000000238419},{""stimulus"":""blank"",""time"":986.8000000715256},{""stimulus"":""https://ziweizhang0304.github.io/Stats_learning_trig/img/Stim/FN_010_g.png"",""time"":1021.5},{""stimulus"":""blank"",""time"":1321.8999999761581},{""stimulus"":""https://ziweizhang0304.github.io/Stats_learning_trig/img/Stim/FN_001_g.png"",""time"":1364.7000000476837},{""stimulus"":""blank"",""time"":1665.8000000715256},{""stimulus"":""https://ziweizhang0304.github.io/Stats_learning_trig/img/Stim/FN_014_g.png"",""time"":1704},{""stimulus"":""blank"",""time"":2004.3000000715256},{""stimulus"":""https://ziweizhang0304.github.io/Stats_learning_trig/img/Stim/FN_011_g.png"",""time"":2041},{""stimulus"":""blank"",""time"":2342},{""stimulus"":""https://ziweizhang0304.github.io/Stats_learning_trig/img/Stim/FN_006_g.png"",""time"":2385.7000000476837},{""stimulus"":""blank"",""time"":2690.899999976158},{""stimulus"":""https://ziweizhang0304.github.io/Stats_learning_trig/img/Stim/FN_018_g.png"",""time"":2724},{""stimulus"":""blank"",""time"":3029.3000000715256},{""stimulus"":""https://ziweizhang0304.github.io/Stats_learning_trig/img/Stim/FN_004_g.png"",""time"":3063.399999976158},{""stimulus"":""blank"",""time"":3368.600000023842},{""stimulus"":""https://ziweizhang0304.github.io/Stats_learning_trig/img/Stim/FN_025_g.png"",""time"":3403.8000000715256},{""stimulus"":""blank"",""time"":3704.399999976158},{""stimulus"":""https://ziweizhang0304.github.io/Stats_learning_trig/img/Stim/FN_015_g.png"",""time"":3741.8000000715256},{""stimulus"":""blank"",""time"":4042},{""stimulus"":""https://ziweizhang0304.github.io/Stats_learning_trig/img/Stim/FN_022_g.png"",""time"":4085.7000000476837},{""stimulus"":""blank"",""time"":4390.899999976158}]","[{""key_press"":32,""rt"":2706.3000000715256,""stimulus"":""blank""}]","320.60000002384186","https://ziweizhang0304.github.io/Stats_learning_trig/img/Stim/FN_006_g.png","post_prac","","","","","","","","","","","","",""
"","html-keyboard-response","8","143066","0.0-3.0-1.0-2.0","3381.9000000953674","","","<p>Your reaction time for this trial was 320.6 ms.</p><p>Remember that you should only press the SPACEBAR when you see the shape presented at the beginning of the trial. </b> </p><p>Press enter to move on.</p>","13","","","","","","","","","","","","","","","","","",""
"","image-keyboard-response","9","145045","0.0-3.0-2.0-0.0","1977.9000000953674","","","https://ziweizhang0304.github.io/Stats_learning_trig/img/Stim/FN_006_g.png","13","","","","","","","","","","","","","","","","","",""
"","animation","10","149471","0.0-3.0-2.0-1.0","","","","","","[{""stimulus"":""https://ziweizhang0304.github.io/Stats_learning_trig/img/Stim/FN_001_g.png"",""time"":342},{""stimulus"":""blank"",""time"":647.2000000476837},{""stimulus"":""https://ziweizhang0304.github.io/Stats_learning_trig/img/Stim/FN_013_g.png"",""time"":681.7000000476837},{""stimulus"":""blank"",""time"":986.8999999761581},{""stimulus"":""https://ziweizhang0304.github.io/Stats_learning_trig/img/Stim/FN_015_g.png"",""time"":1021.8999999761581},{""stimulus"":""blank"",""time"":1325.8000000715256},{""stimulus"":""https://ziweizhang0304.github.io/Stats_learning_trig/img/Stim/FN_014_g.png"",""time"":1361.3000000715256},{""stimulus"":""blank"",""time"":1662.5},{""stimulus"":""https://ziweizhang0304.github.io/Stats_learning_trig/img/Stim/FN_011_g.png"",""time"":1703.6000000238419},{""stimulus"":""blank"",""time"":2006},{""stimulus"":""https://ziweizhang0304.github.io/Stats_learning_trig/img/Stim/FN_006_g.png"",""time"":2042.5},{""stimulus"":""blank"",""time"":2343},{""stimulus"":""https://ziweizhang0304.github.io/Stats_learning_trig/img/Stim/FN_018_g.png"",""time"":2382.100000023842},{""stimulus"":""blank"",""time"":2687.3000000715256},{""stimulus"":""https://ziweizhang0304.github.io/Stats_learning_trig/img/Stim/FN_004_g.png"",""time"":2724.899999976158},{""stimulus"":""blank"",""time"":3030},{""stimulus"":""https://ziweizhang0304.github.io/Stats_learning_trig/img/Stim/FN_008_g.png"",""time"":3061},{""stimulus"":""blank"",""time"":3362.2000000476837},{""stimulus"":""https://ziweizhang0304.github.io/Stats_learning_trig/img/Stim/FN_025_g.png"",""time"":3405.2000000476837},{""stimulus"":""blank"",""time"":3706.3000000715256},{""stimulus"":""https://ziweizhang0304.github.io/Stats_learning_trig/img/Stim/FN_010_g.png"",""time"":3740.5},{""stimulus"":""blank"",""time"":4045.7000000476837},{""stimulus"":""https://ziweizhang0304.github.io/Stats_learning_trig/img/Stim/FN_022_g.png"",""time"":4081.8000000715256},{""stimulus"":""blank"",""time"":4384.600000023842}]","[]","NaN","https://ziweizhang0304.github.io/Stats_learning_trig/img/Stim/FN_006_g.png","post_prac","","","","","","","","","","","","",""
"","html-keyboard-response","11","160871","0.0-3.0-2.0-2.0","11398.199999928474","","","<p>Your reaction time for this trial was NaN ms.</p><p>Remember that you should only press the SPACEBAR when you see the shape presented at the beginning of the trial. </b> </p><p>Press enter to move on.</p>","13","","","","","","","","","","","","","","","","","",""
"","instructions","12","163292","0.0-4.0","2421.0999999046326","","[{""page_index"":0,""viewing_time"":2421}]","","","","","","","","","","","","","","","","","","","",""
"","image-keyboard-response","13","166500","0.0-5.0-0.0-0.0","3207.2000000476837","","","https://ziweizhang0304.github.io/Stats_learning_trig/img/Stim/FN_006_g.png","13","","","","","","","","","","","","","","","","","",""
"","animation","14","170924","0.0-5.0-0.0-1.0","","","","","","[{""stimulus"":""https://ziweizhang0304.github.io/Stats_learning_trig/img/Stim/FN_001_g.png"",""time"":343.3000000715256},{""stimulus"":""blank"",""time"":644.5},{""stimulus"":""https://ziweizhang0304.github.io/Stats_learning_trig/img/Stim/FN_013_g.png"",""time"":685.6000000238419},{""stimulus"":""blank"",""time"":986.8000000715256},{""stimulus"":""https://ziweizhang0304.github.io/Stats_learning_trig/img/Stim/FN_015_g.png"",""time"":1021.4000000953674},{""stimulus"":""blank"",""time"":1326},{""stimulus"":""https://ziweizhang0304.github.io/Stats_learning_trig/img/Stim/FN_014_g.png"",""time"":1360.9000000953674},{""stimulus"":""blank"",""time"":1664.1000000238419},{""stimulus"":""https://ziweizhang0304.github.io/Stats_learning_trig/img/Stim/FN_011_g.png"",""time"":1701.1000000238419},{""stimulus"":""blank"",""time"":2002.6000000238419},{""stimulus"":""https://ziweizhang0304.github.io/Stats_learning_trig/img/Stim/FN_006_g.png"",""time"":2042.2000000476837},{""stimulus"":""blank"",""time"":2347.4000000953674},{""stimulus"":""https://ziweizhang0304.github.io/Stats_learning_trig/img/Stim/FN_018_g.png"",""time"":2381.9000000953674},{""stimulus"":""blank"",""time"":2685.2000000476837},{""stimulus"":""https://ziweizhang0304.github.io/Stats_learning_trig/img/Stim/FN_004_g.png"",""time"":2724.7000000476837},{""stimulus"":""blank"",""time"":3027.7000000476837},{""stimulus"":""https://ziweizhang0304.github.io/Stats_learning_trig/img/Stim/FN_008_g.png"",""time"":3063.600000023842},{""stimulus"":""blank"",""time"":3366.100000023842},{""stimulus"":""https://ziweizhang0304.github.io/Stats_learning_trig/img/Stim/FN_025_g.png"",""time"":3401.100000023842},{""stimulus"":""blank"",""time"":3702.600000023842},{""stimulus"":""https://ziweizhang0304.github.io/Stats_learning_trig/img/Stim/FN_010_g.png"",""time"":3745.3000000715256},{""stimulus"":""blank"",""time"":4050.5},{""stimulus"":""https://ziweizhang0304.github.io/Stats_learning_trig/img/Stim/FN_022_g.png"",""time"":4083.2000000476837},{""stimulus"":""blank"",""time"":4388.400000095367}]","[{""key_press"":32,""rt"":2489.7000000476837,""stimulus"":""https://ziweizhang0304.github.io/Stats_learning_trig/img/Stim/FN_018_g.png""}]","447.5","https://ziweizhang0304.github.io/Stats_learning_trig/img/Stim/FN_006_g.png","post_TD","1","2042.2000000476837","2489.7000000476837","fast","6","3","6087308a21c5d44f55c3e296","","","","","",""
"","image-keyboard-response","15","174637","0.0-5.0-1.0-0.0","3711.7999999523163","","","https://ziweizhang0304.github.io/Stats_learning_trig/img/Stim/FN_005_g.png","13","","","","","","","","","","","","","","","","","",""
"","animation","16","179061","0.0-5.0-1.0-1.0","","","","","","[{""stimulus"":""https://ziweizhang0304.github.io/Stats_learning_trig/img/Stim/FN_015_g.png"",""time"":345.7000000476837},{""stimulus"":""blank"",""time"":646.1000000238419},{""stimulus"":""https://ziweizhang0304.github.io/Stats_learning_trig/img/Stim/FN_025_g.png"",""time"":683.3000000715256},{""stimulus"":""blank"",""time"":986},{""stimulus"":""https://ziweizhang0304.github.io/Stats_learning_trig/img/Stim/FN_013_g.png"",""time"":1022.9000000953674},{""stimulus"":""blank"",""time"":1324.9000000953674},{""stimulus"":""https://ziweizhang0304.github.io/Stats_learning_trig/img/Stim/FN_018_g.png"",""time"":1365.3000000715256},{""stimulus"":""blank"",""time"":1665.5},{""stimulus"":""https://ziweizhang0304.github.io/Stats_learning_trig/img/Stim/FN_001_g.png"",""time"":1703.8000000715256},{""stimulus"":""blank"",""time"":2005.8000000715256},{""stimulus"":""https://ziweizhang0304.github.io/Stats_learning_trig/img/Stim/FN_010_g.png"",""time"":2041.5},{""stimulus"":""blank"",""time"":2346.7000000476837},{""stimulus"":""https://ziweizhang0304.github.io/Stats_learning_trig/img/Stim/FN_023_g.png"",""time"":2383.9000000953674},{""stimulus"":""blank"",""time"":2688.8000000715256},{""stimulus"":""https://ziweizhang0304.github.io/Stats_learning_trig/img/Stim/FN_026_g.png"",""time"":2720.4000000953674},{""stimulus"":""blank"",""time"":3022.5},{""stimulus"":""https://ziweizhang0304.github.io/Stats_learning_trig/img/Stim/FN_005_g.png"",""time"":3065.3000000715256},{""stimulus"":""blank"",""time"":3365.4000000953674},{""stimulus"":""https://ziweizhang0304.github.io/Stats_learning_trig/img/Stim/FN_004_g.png"",""time"":3405.100000023842},{""stimulus"":""blank"",""time"":3710.3000000715256},{""stimulus"":""https://ziweizhang0304.github.io/Stats_learning_trig/img/Stim/FN_008_g.png"",""time"":3744.100000023842},{""stimulus"":""blank"",""time"":4049.100000023842},{""stimulus"":""https://ziweizhang0304.github.io/Stats_learning_trig/img/Stim/FN_022_g.png"",""time"":4082.3000000715256},{""stimulus"":""blank"",""time"":4386.400000095367}]","[{""key_press"":32,""rt"":3466.899999976158,""stimulus"":""https://ziweizhang0304.github.io/Stats_learning_trig/img/Stim/FN_004_g.png""}]","401.59999990463257","https://ziweizhang0304.github.io/Stats_learning_trig/img/Stim/FN_005_g.png","post_TD","2","3065.3000000715256","3466.899999976158","slow","9","3","6087308a21c5d44f55c3e296","","","","","",""
"","image-keyboard-response","17","181233","0.0-5.0-2.0-0.0","2171","","","https://ziweizhang0304.github.io/Stats_learning_trig/img/Stim/FN_011_g.png","13","","","","","","","","","","","","","","","","","",""
"","animation","18","185654","0.0-5.0-2.0-1.0","","","","","","[{""stimulus"":""https://ziweizhang0304.github.io/Stats_learning_trig/img/Stim/FN_001_g.png"",""time"":342.39999997615814},{""stimulus"":""blank"",""time"":647.6000000238419},{""stimulus"":""https://ziweizhang0304.github.io/Stats_learning_trig/img/Stim/FN_018_g.png"",""time"":682.2999999523163},{""stimulus"":""blank"",""time"":985.6999999284744},{""stimulus"":""https://ziweizhang0304.github.io/Stats_learning_trig/img/Stim/FN_025_g.png"",""time"":1021.5},{""stimulus"":""blank"",""time"":1322.2999999523163},{""stimulus"":""https://ziweizhang0304.github.io/Stats_learning_trig/img/Stim/FN_004_g.png"",""time"":1365},{""stimulus"":""blank"",""time"":1669.2999999523163},{""stimulus"":""https://ziweizhang0304.github.io/Stats_learning_trig/img/Stim/FN_010_g.png"",""time"":1705.6999999284744},{""stimulus"":""blank"",""time"":2005.8999999761581},{""stimulus"":""https://ziweizhang0304.github.io/Stats_learning_trig/img/Stim/FN_013_g.png"",""time"":2040.7999999523163},{""stimulus"":""blank"",""time"":2346},{""stimulus"":""https://ziweizhang0304.github.io/Stats_learning_trig/img/Stim/FN_014_g.png"",""time"":2380.6999999284744},{""stimulus"":""blank"",""time"":2683.7999999523163},{""stimulus"":""https://ziweizhang0304.github.io/Stats_learning_trig/img/Stim/FN_011_g.png"",""time"":2721},{""stimulus"":""blank"",""time"":3022.6999999284744},{""stimulus"":""https://ziweizhang0304.github.io/Stats_learning_trig/img/Stim/FN_006_g.png"",""time"":3065.7999999523163},{""stimulus"":""blank"",""time"":3369.1999999284744},{""stimulus"":""https://ziweizhang0304.github.io/Stats_learning_trig/img/Stim/FN_008_g.png"",""time"":3404.600000023842},{""stimulus"":""blank"",""time"":3709.899999976158},{""stimulus"":""https://ziweizhang0304.github.io/Stats_learning_trig/img/Stim/FN_015_g.png"",""time"":3744},{""stimulus"":""blank"",""time"":4049.2999999523163},{""stimulus"":""https://ziweizhang0304.github.io/Stats_learning_trig/img/Stim/FN_022_g.png"",""time"":4081.6999999284744},{""stimulus"":""blank"",""time"":4385}]","[]","NaN","https://ziweizhang0304.github.io/Stats_learning_trig/img/Stim/FN_011_g.png","post_TD","3","2721","","fast","8","2","6087308a21c5d44f55c3e296","","","","","",""
"","image-keyboard-response","19","189528","0.0-5.0-3.0-0.0","3871.899999976158","","","https://ziweizhang0304.github.io/Stats_learning_trig/img/Stim/FN_011_g.png","13","","","","","","","","","","","","","","","","","",""
"","animation","20","193952","0.0-5.0-3.0-1.0","","","","","","[{""stimulus"":""https://ziweizhang0304.github.io/Stats_learning_trig/img/Stim/FN_013_g.png"",""time"":344.7999999523163},{""stimulus"":""blank"",""time"":647.6000000238419},{""stimulus"":""https://ziweizhang0304.github.io/Stats_learning_trig/img/Stim/FN_008_g.png"",""time"":681.7000000476837},{""stimulus"":""blank"",""time"":982.3999999761581},{""stimulus"":""https://ziweizhang0304.github.io/Stats_learning_trig/img/Stim/FN_010_g.png"",""time"":1024.7000000476837},{""stimulus"":""blank"",""time"":1324.8999999761581},{""stimulus"":""https://ziweizhang0304.github.io/Stats_learning_trig/img/Stim/FN_001_g.png"",""time"":1365.7999999523163},{""stimulus"":""blank"",""time"":1671},{""stimulus"":""https://ziweizhang0304.github.io/Stats_learning_trig/img/Stim/FN_014_g.png"",""time"":1705},{""stimulus"":""blank"",""time"":2007.1000000238419},{""stimulus"":""https://ziweizhang0304.github.io/Stats_learning_trig/img/Stim/FN_011_g.png"",""time"":2041.7000000476837},{""stimulus"":""blank"",""time"":2346.2000000476837},{""stimulus"":""https://ziweizhang0304.github.io/Stats_learning_trig/img/Stim/FN_006_g.png"",""time"":2380.7999999523163},{""stimulus"":""blank"",""time"":2682},{""stimulus"":""https://ziweizhang0304.github.io/Stats_learning_trig/img/Stim/FN_018_g.png"",""time"":2725.100000023842},{""stimulus"":""blank"",""time"":3025.7999999523163},{""stimulus"":""https://ziweizhang0304.github.io/Stats_learning_trig/img/Stim/FN_004_g.png"",""time"":3063.7000000476837},{""stimulus"":""blank"",""time"":3368.899999976158},{""stimulus"":""https://ziweizhang0304.github.io/Stats_learning_trig/img/Stim/FN_025_g.png"",""time"":3404.899999976158},{""stimulus"":""blank"",""time"":3707.399999976158},{""stimulus"":""https://ziweizhang0304.github.io/Stats_learning_trig/img/Stim/FN_015_g.png"",""time"":3742.2999999523163},{""stimulus"":""blank"",""time"":4047.600000023842},{""stimulus"":""https://ziweizhang0304.github.io/Stats_learning_trig/img/Stim/FN_022_g.png"",""time"":4081.7000000476837},{""stimulus"":""blank"",""time"":4382.100000023842}]","[{""key_press"":32,""rt"":2456.399999976158,""stimulus"":""https://ziweizhang0304.github.io/Stats_learning_trig/img/Stim/FN_006_g.png""}]","414.6999999284744","https://ziweizhang0304.github.io/Stats_learning_trig/img/Stim/FN_011_g.png","post_TD","4","2041.7000000476837","2456.399999976158","fast","6","2","6087308a21c5d44f55c3e296","","","","","",""
"","image-keyboard-response","21","200840","0.0-5.0-4.0-0.0","6886.399999976158","","","https://ziweizhang0304.github.io/Stats_learning_trig/img/Stim/FN_005_g.png","13","","","","","","","","","","","","","","","","","",""
"","animation","22","205264","0.0-5.0-4.0-1.0","","","","","","[{""stimulus"":""https://ziweizhang0304.github.io/Stats_learning_trig/img/Stim/FN_025_g.png"",""time"":345.5},{""stimulus"":""blank"",""time"":650.7000000476837},{""stimulus"":""https://ziweizhang0304.github.io/Stats_learning_trig/img/Stim/FN_008_g.png"",""time"":683},{""stimulus"":""blank"",""time"":988.2000000476837},{""stimulus"":""https://ziweizhang0304.github.io/Stats_learning_trig/img/Stim/FN_015_g.png"",""time"":1023},{""stimulus"":""blank"",""time"":1326.7999999523163},{""stimulus"":""https://ziweizhang0304.github.io/Stats_learning_trig/img/Stim/FN_023_g.png"",""time"":1361.7999999523163},{""stimulus"":""blank"",""time"":1662.3999999761581},{""stimulus"":""https://ziweizhang0304.github.io/Stats_learning_trig/img/Stim/FN_026_g.png"",""time"":1701.8999999761581},{""stimulus"":""blank"",""time"":2002.6000000238419},{""stimulus"":""https://ziweizhang0304.github.io/Stats_learning_trig/img/Stim/FN_005_g.png"",""time"":2040.7999999523163},{""stimulus"":""blank"",""time"":2344.899999976158},{""stimulus"":""https://ziweizhang0304.github.io/Stats_learning_trig/img/Stim/FN_018_g.png"",""time"":2384.7999999523163},{""stimulus"":""blank"",""time"":2687.399999976158},{""stimulus"":""https://ziweizhang0304.github.io/Stats_learning_trig/img/Stim/FN_001_g.png"",""time"":2721.7999999523163},{""stimulus"":""blank"",""time"":3025.2999999523163},{""stimulus"":""https://ziweizhang0304.github.io/Stats_learning_trig/img/Stim/FN_004_g.png"",""time"":3062.7000000476837},{""stimulus"":""blank"",""time"":3362.899999976158},{""stimulus"":""https://ziweizhang0304.github.io/Stats_learning_trig/img/Stim/FN_013_g.png"",""time"":3403.7999999523163},{""stimulus"":""blank"",""time"":3709},{""stimulus"":""https://ziweizhang0304.github.io/Stats_learning_trig/img/Stim/FN_010_g.png"",""time"":3742.899999976158},{""stimulus"":""blank"",""time"":4048.2000000476837},{""stimulus"":""https://ziweizhang0304.github.io/Stats_learning_trig/img/Stim/FN_022_g.png"",""time"":4081.899999976158},{""stimulus"":""blank"",""time"":4385}]","[]","NaN","https://ziweizhang0304.github.io/Stats_learning_trig/img/Stim/FN_005_g.png","post_TD","5","2040.7999999523163","","slow","6","3","6087308a21c5d44f55c3e296","","","","","",""
"","image-keyboard-response","23","207081","0.0-5.0-5.0-0.0","1815","","","https://ziweizhang0304.github.io/Stats_learning_trig/img/Stim/FN_023_g.png","13","","","","","","","","","","","","","","","","","",""
"","animation","24","211502","0.0-5.0-5.0-1.0","","","","","","[{""stimulus"":""https://ziweizhang0304.github.io/Stats_learning_trig/img/Stim/FN_025_g.png"",""time"":345.2999999523163},{""stimulus"":""blank"",""time"":650.5},{""stimulus"":""https://ziweizhang0304.github.io/Stats_learning_trig/img/Stim/FN_008_g.png"",""time"":683.8999999761581},{""stimulus"":""blank"",""time"":987.5},{""stimulus"":""https://ziweizhang0304.github.io/Stats_learning_trig/img/Stim/FN_015_g.png"",""time"":1022.5},{""stimulus"":""blank"",""time"":1322.6999999284744},{""stimulus"":""https://ziweizhang0304.github.io/Stats_learning_trig/img/Stim/FN_023_g.png"",""time"":1363.5999999046326},{""stimulus"":""blank"",""time"":1668.7999999523163},{""stimulus"":""https://ziweizhang0304.github.io/Stats_learning_trig/img/Stim/FN_026_g.png"",""time"":1703.6999999284744},{""stimulus"":""blank"",""time"":2008.8999999761581},{""stimulus"":""https://ziweizhang0304.github.io/Stats_learning_trig/img/Stim/FN_005_g.png"",""time"":2043.2999999523163},{""stimulus"":""blank"",""time"":2348.399999976158},{""stimulus"":""https://ziweizhang0304.github.io/Stats_learning_trig/img/Stim/FN_018_g.png"",""time"":2383.2999999523163},{""stimulus"":""blank"",""time"":2686.399999976158},{""stimulus"":""https://ziweizhang0304.github.io/Stats_learning_trig/img/Stim/FN_001_g.png"",""time"":2721.399999976158},{""stimulus"":""blank"",""time"":3022.0999999046326},{""stimulus"":""https://ziweizhang0304.github.io/Stats_learning_trig/img/Stim/FN_004_g.png"",""time"":3063.5999999046326},{""stimulus"":""blank"",""time"":3368.7999999523163},{""stimulus"":""https://ziweizhang0304.github.io/Stats_learning_trig/img/Stim/FN_013_g.png"",""time"":3405.6999999284744},{""stimulus"":""blank"",""time"":3711},{""stimulus"":""https://ziweizhang0304.github.io/Stats_learning_trig/img/Stim/FN_010_g.png"",""time"":3740.899999976158},{""stimulus"":""blank"",""time"":4045.6999999284744},{""stimulus"":""https://ziweizhang0304.github.io/Stats_learning_trig/img/Stim/FN_022_g.png"",""time"":4083.6999999284744},{""stimulus"":""blank"",""time"":4386.799999952316}]","[{""key_press"":32,""rt"":1823.7000000476837,""stimulus"":""https://ziweizhang0304.github.io/Stats_learning_trig/img/Stim/FN_026_g.png""}]","460.10000014305115","https://ziweizhang0304.github.io/Stats_learning_trig/img/Stim/FN_023_g.png","post_TD","6","1363.5999999046326","1823.7000000476837","slow","4","1","6087308a21c5d44f55c3e296","","","","","",""
"","image-keyboard-response","25","213701","0.0-5.0-6.0-0.0","2197.5","","","https://ziweizhang0304.github.io/Stats_learning_trig/img/Stim/FN_014_g.png","13","","","","","","","","","","","","","","","","","",""
"","animation","26","218125","0.0-5.0-6.0-1.0","","","","","","[{""stimulus"":""https://ziweizhang0304.github.io/Stats_learning_trig/img/Stim/FN_010_g.png"",""time"":341.5},{""stimulus"":""blank"",""time"":646.7999999523163},{""stimulus"":""https://ziweizhang0304.github.io/Stats_learning_trig/img/Stim/FN_018_g.png"",""time"":681.3999999761581},{""stimulus"":""blank"",""time"":985.5},{""stimulus"":""https://ziweizhang0304.github.io/Stats_learning_trig/img/Stim/FN_025_g.png"",""time"":1025.2999999523163},{""stimulus"":""blank"",""time"":1330.6000000238419},{""stimulus"":""https://ziweizhang0304.github.io/Stats_learning_trig/img/Stim/FN_013_g.png"",""time"":1364},{""stimulus"":""blank"",""time"":1667.5},{""stimulus"":""https://ziweizhang0304.github.io/Stats_learning_trig/img/Stim/FN_015_g.png"",""time"":1701.1000000238419},{""stimulus"":""blank"",""time"":2001.2999999523163},{""stimulus"":""https://ziweizhang0304.github.io/Stats_learning_trig/img/Stim/FN_014_g.png"",""time"":2041.7999999523163},{""stimulus"":""blank"",""time"":2347.100000023842},{""stimulus"":""https://ziweizhang0304.github.io/Stats_learning_trig/img/Stim/FN_011_g.png"",""time"":2381},{""stimulus"":""blank"",""time"":2685.7000000476837},{""stimulus"":""https://ziweizhang0304.github.io/Stats_learning_trig/img/Stim/FN_006_g.png"",""time"":2725.100000023842},{""stimulus"":""blank"",""time"":3030.2999999523163},{""stimulus"":""https://ziweizhang0304.github.io/Stats_learning_trig/img/Stim/FN_001_g.png"",""time"":3063.899999976158},{""stimulus"":""blank"",""time"":3367.600000023842},{""stimulus"":""https://ziweizhang0304.github.io/Stats_learning_trig/img/Stim/FN_004_g.png"",""time"":3401},{""stimulus"":""blank"",""time"":3701.399999976158},{""stimulus"":""https://ziweizhang0304.github.io/Stats_learning_trig/img/Stim/FN_008_g.png"",""time"":3743.5},{""stimulus"":""blank"",""time"":4048},{""stimulus"":""https://ziweizhang0304.github.io/Stats_learning_trig/img/Stim/FN_022_g.png"",""time"":4085.7000000476837},{""stimulus"":""blank"",""time"":4390.899999976158}]","[{""key_press"":32,""rt"":2426.1999999284744,""stimulus"":""https://ziweizhang0304.github.io/Stats_learning_trig/img/Stim/FN_011_g.png""}]","384.39999997615814","https://ziweizhang0304.github.io/Stats_learning_trig/img/Stim/FN_014_g.png","post_TD","7","2041.7999999523163","2426.1999999284744","fast","6","1","6087308a21c5d44f55c3e296","","","","","",""
"","image-keyboard-response","27","219837","0.0-5.0-7.0-0.0","1710.3999999761581","","","https://ziweizhang0304.github.io/Stats_learning_trig/img/Stim/FN_005_g.png","13","","","","","","","","","","","","","","","","","",""
"","animation","28","224260","0.0-5.0-7.0-1.0","","","","","","[{""stimulus"":""https://ziweizhang0304.github.io/Stats_learning_trig/img/Stim/FN_015_g.png"",""time"":345.89999997615814},{""stimulus"":""blank"",""time"":650.1000000238419},{""stimulus"":""https://ziweizhang0304.github.io/Stats_learning_trig/img/Stim/FN_013_g.png"",""time"":684},{""stimulus"":""blank"",""time"":984.2000000476837},{""stimulus"":""https://ziweizhang0304.github.io/Stats_learning_trig/img/Stim/FN_004_g.png"",""time"":1021.7999999523163},{""stimulus"":""blank"",""time"":1324.5},{""stimulus"":""https://ziweizhang0304.github.io/Stats_learning_trig/img/Stim/FN_010_g.png"",""time"":1364.3999999761581},{""stimulus"":""blank"",""time"":1665.8999999761581},{""stimulus"":""https://ziweizhang0304.github.io/Stats_learning_trig/img/Stim/FN_008_g.png"",""time"":1705.2999999523163},{""stimulus"":""blank"",""time"":2009.2000000476837},{""stimulus"":""https://ziweizhang0304.github.io/Stats_learning_trig/img/Stim/FN_023_g.png"",""time"":2044.2000000476837},{""stimulus"":""blank"",""time"":2348.600000023842},{""stimulus"":""https://ziweizhang0304.github.io/Stats_learning_trig/img/Stim/FN_026_g.png"",""time"":2384.100000023842},{""stimulus"":""blank"",""time"":2686.399999976158},{""stimulus"":""https://ziweizhang0304.github.io/Stats_learning_trig/img/Stim/FN_005_g.png"",""time"":2721.2999999523163},{""stimulus"":""blank"",""time"":3024},{""stimulus"":""https://ziweizhang0304.github.io/Stats_learning_trig/img/Stim/FN_018_g.png"",""time"":3064.600000023842},{""stimulus"":""blank"",""time"":3365.2999999523163},{""stimulus"":""https://ziweizhang0304.github.io/Stats_learning_trig/img/Stim/FN_001_g.png"",""time"":3402.5},{""stimulus"":""blank"",""time"":3704.7999999523163},{""stimulus"":""https://ziweizhang0304.github.io/Stats_learning_trig/img/Stim/FN_025_g.png"",""time"":3741},{""stimulus"":""blank"",""time"":4046.2000000476837},{""stimulus"":""https://ziweizhang0304.github.io/Stats_learning_trig/img/Stim/FN_022_g.png"",""time"":4084.2000000476837},{""stimulus"":""blank"",""time"":4388.799999952316}]","[{""key_press"":32,""rt"":3140.5,""stimulus"":""https://ziweizhang0304.github.io/Stats_learning_trig/img/Stim/FN_018_g.png""}]","419.2000000476837","https://ziweizhang0304.github.io/Stats_learning_trig/img/Stim/FN_005_g.png","post_TD","8","2721.2999999523163","3140.5","slow","8","3","6087308a21c5d44f55c3e296","","","","","",""
"","image-keyboard-response","29","230859","0.0-5.0-8.0-0.0","6597.5","","","https://ziweizhang0304.github.io/Stats_learning_trig/img/Stim/FN_014_g.png","13","","","","","","","","","","","","","","","","","",""
"","animation","30","235284","0.0-5.0-8.0-1.0","","","","","","[{""stimulus"":""https://ziweizhang0304.github.io/Stats_learning_trig/img/Stim/FN_001_g.png"",""time"":344.09999990463257},{""stimulus"":""blank"",""time"":644.3999999761581},{""stimulus"":""https://ziweizhang0304.github.io/Stats_learning_trig/img/Stim/FN_018_g.png"",""time"":683.0999999046326},{""stimulus"":""blank"",""time"":988.2999999523163},{""stimulus"":""https://ziweizhang0304.github.io/Stats_learning_trig/img/Stim/FN_025_g.png"",""time"":1025.1999999284744},{""stimulus"":""blank"",""time"":1326.3999999761581},{""stimulus"":""https://ziweizhang0304.github.io/Stats_learning_trig/img/Stim/FN_004_g.png"",""time"":1364.3999999761581},{""stimulus"":""blank"",""time"":1668.6999999284744},{""stimulus"":""https://ziweizhang0304.github.io/Stats_learning_trig/img/Stim/FN_010_g.png"",""time"":1702.2999999523163},{""stimulus"":""blank"",""time"":2004.0999999046326},{""stimulus"":""https://ziweizhang0304.github.io/Stats_learning_trig/img/Stim/FN_013_g.png"",""time"":2044},{""stimulus"":""blank"",""time"":2344},{""stimulus"":""https://ziweizhang0304.github.io/Stats_learning_trig/img/Stim/FN_014_g.png"",""time"":2385.6999999284744},{""stimulus"":""blank"",""time"":2690.899999976158},{""stimulus"":""https://ziweizhang0304.github.io/Stats_learning_trig/img/Stim/FN_011_g.png"",""time"":2724.2999999523163},{""stimulus"":""blank"",""time"":3029.5},{""stimulus"":""https://ziweizhang0304.github.io/Stats_learning_trig/img/Stim/FN_006_g.png"",""time"":3064.399999976158},{""stimulus"":""blank"",""time"":3369.5999999046326},{""stimulus"":""https://ziweizhang0304.github.io/Stats_learning_trig/img/Stim/FN_008_g.png"",""time"":3402.399999976158},{""stimulus"":""blank"",""time"":3705.6999999284744},{""stimulus"":""https://ziweizhang0304.github.io/Stats_learning_trig/img/Stim/FN_015_g.png"",""time"":3740.5999999046326},{""stimulus"":""blank"",""time"":4043.5999999046326},{""stimulus"":""https://ziweizhang0304.github.io/Stats_learning_trig/img/Stim/FN_022_g.png"",""time"":4083.6999999284744},{""stimulus"":""blank"",""time"":4389}]","[{""key_press"":32,""rt"":2744.4000000953674,""stimulus"":""https://ziweizhang0304.github.io/Stats_learning_trig/img/Stim/FN_011_g.png""}]","358.700000166893","https://ziweizhang0304.github.io/Stats_learning_trig/img/Stim/FN_014_g.png","post_TD","9","2385.6999999284744","2744.4000000953674","fast","7","1","6087308a21c5d44f55c3e296","","","","","",""
"","image-keyboard-response","31","237077","0.0-5.0-9.0-0.0","1791.6999999284744","","","https://ziweizhang0304.github.io/Stats_learning_trig/img/Stim/FN_023_g.png","13","","","","","","","","","","","","","","","","","",""
"","animation","32","241503","0.0-5.0-9.0-1.0","","","","","","[{""stimulus"":""https://ziweizhang0304.github.io/Stats_learning_trig/img/Stim/FN_015_g.png"",""time"":340.90000009536743},{""stimulus"":""blank"",""time"":642.4000000953674},{""stimulus"":""https://ziweizhang0304.github.io/Stats_learning_trig/img/Stim/FN_013_g.png"",""time"":682.6000000238419},{""stimulus"":""blank"",""time"":983.9000000953674},{""stimulus"":""https://ziweizhang0304.github.io/Stats_learning_trig/img/Stim/FN_004_g.png"",""time"":1025.7000000476837},{""stimulus"":""blank"",""time"":1326.5},{""stimulus"":""https://ziweizhang0304.github.io/Stats_learning_trig/img/Stim/FN_010_g.png"",""time"":1361.3000000715256},{""stimulus"":""blank"",""time"":1662.3000000715256},{""stimulus"":""https://ziweizhang0304.github.io/Stats_learning_trig/img/Stim/FN_008_g.png"",""time"":1705.7000000476837},{""stimulus"":""blank"",""time"":2011},{""stimulus"":""https://ziweizhang0304.github.io/Stats_learning_trig/img/Stim/FN_023_g.png"",""time"":2043.9000000953674},{""stimulus"":""blank"",""time"":2347.9000000953674},{""stimulus"":""https://ziweizhang0304.github.io/Stats_learning_trig/img/Stim/FN_026_g.png"",""time"":2382.9000000953674},{""stimulus"":""blank"",""time"":2685},{""stimulus"":""https://ziweizhang0304.github.io/Stats_learning_trig/img/Stim/FN_005_g.png"",""time"":2723.9000000953674},{""stimulus"":""blank"",""time"":3025.5},{""stimulus"":""https://ziweizhang0304.github.io/Stats_learning_trig/img/Stim/FN_018_g.png"",""time"":3065.8000000715256},{""stimulus"":""blank"",""time"":3371},{""stimulus"":""https://ziweizhang0304.github.io/Stats_learning_trig/img/Stim/FN_001_g.png"",""time"":3404.8000000715256},{""stimulus"":""blank"",""time"":3710.100000023842},{""stimulus"":""https://ziweizhang0304.github.io/Stats_learning_trig/img/Stim/FN_025_g.png"",""time"":3744.2000000476837},{""stimulus"":""blank"",""time"":4049.100000023842},{""stimulus"":""https://ziweizhang0304.github.io/Stats_learning_trig/img/Stim/FN_022_g.png"",""time"":4082.9000000953674},{""stimulus"":""blank"",""time"":4385}]","[{""key_press"":32,""rt"":2484.100000023842,""stimulus"":""https://ziweizhang0304.github.io/Stats_learning_trig/img/Stim/FN_026_g.png""}]","440.1999999284744","https://ziweizhang0304.github.io/Stats_learning_trig/img/Stim/FN_023_g.png","post_TD","10","2043.9000000953674","2484.100000023842","slow","6","1","6087308a21c5d44f55c3e296","","","","","",""
"","image-keyboard-response","33","248274","0.0-5.0-10.0-0.0","6769.899999976158","","","https://ziweizhang0304.github.io/Stats_learning_trig/img/Stim/FN_026_g.png","13","","","","","","","","","","","","","","","","","",""
"","animation","34","252695","0.0-5.0-10.0-1.0","","","","","","[{""stimulus"":""https://ziweizhang0304.github.io/Stats_learning_trig/img/Stim/FN_015_g.png"",""time"":343.59999990463257},{""stimulus"":""blank"",""time"":647.5},{""stimulus"":""https://ziweizhang0304.github.io/Stats_learning_trig/img/Stim/FN_013_g.png"",""time"":681.0999999046326},{""stimulus"":""blank"",""time"":982.1999999284744},{""stimulus"":""https://ziweizhang0304.github.io/Stats_learning_trig/img/Stim/FN_004_g.png"",""time"":1020.6999999284744},{""stimulus"":""blank"",""time"":1325.8999999761581},{""stimulus"":""https://ziweizhang0304.github.io/Stats_learning_trig/img/Stim/FN_010_g.png"",""time"":1365.5999999046326},{""stimulus"":""blank"",""time"":1670.8999999761581},{""stimulus"":""https://ziweizhang0304.github.io/Stats_learning_trig/img/Stim/FN_008_g.png"",""time"":1703.6999999284744},{""stimulus"":""blank"",""time"":2003.7999999523163},{""stimulus"":""https://ziweizhang0304.github.io/Stats_learning_trig/img/Stim/FN_023_g.png"",""time"":2043.2999999523163},{""stimulus"":""blank"",""time"":2347.1999999284744},{""stimulus"":""https://ziweizhang0304.github.io/Stats_learning_trig/img/Stim/FN_026_g.png"",""time"":2381.0999999046326},{""stimulus"":""blank"",""time"":2682.1999999284744},{""stimulus"":""https://ziweizhang0304.github.io/Stats_learning_trig/img/Stim/FN_005_g.png"",""time"":2725.6999999284744},{""stimulus"":""blank"",""time"":3028.1999999284744},{""stimulus"":""https://ziweizhang0304.github.io/Stats_learning_trig/img/Stim/FN_018_g.png"",""time"":3063.1999999284744},{""stimulus"":""blank"",""time"":3368.5},{""stimulus"":""https://ziweizhang0304.github.io/Stats_learning_trig/img/Stim/FN_001_g.png"",""time"":3403},{""stimulus"":""blank"",""time"":3708.2999999523163},{""stimulus"":""https://ziweizhang0304.github.io/Stats_learning_trig/img/Stim/FN_025_g.png"",""time"":3743.2999999523163},{""stimulus"":""blank"",""time"":4044.5999999046326},{""stimulus"":""https://ziweizhang0304.github.io/Stats_learning_trig/img/Stim/FN_022_g.png"",""time"":4081.1999999284744},{""stimulus"":""blank"",""time"":4382.199999928474}]","[{""key_press"":32,""rt"":2777.899999976158,""stimulus"":""https://ziweizhang0304.github.io/Stats_learning_trig/img/Stim/FN_005_g.png""}]","396.8000000715256","https://ziweizhang0304.github.io/Stats_learning_trig/img/Stim/FN_026_g.png","post_TD","11","2381.0999999046326","2777.899999976158","slow","7","2","6087308a21c5d44f55c3e296","","","","","",""
"","image-keyboard-response","35","256768","0.0-5.0-11.0-0.0","4070.600000023842","","","https://ziweizhang0304.github.io/Stats_learning_trig/img/Stim/FN_026_g.png","13","","","","","","","","","","","","","","","","","",""
"","animation","36","261191","0.0-5.0-11.0-1.0","","","","","","[{""stimulus"":""https://ziweizhang0304.github.io/Stats_learning_trig/img/Stim/FN_008_g.png"",""time"":342},{""stimulus"":""blank"",""time"":644},{""stimulus"":""https://ziweizhang0304.github.io/Stats_learning_trig/img/Stim/FN_013_g.png"",""time"":685.4000000953674},{""stimulus"":""blank"",""time"":986.3000000715256},{""stimulus"":""https://ziweizhang0304.github.io/Stats_learning_trig/img/Stim/FN_015_g.png"",""time"":1020.8000000715256},{""stimulus"":""blank"",""time"":1326.2000000476837},{""stimulus"":""https://ziweizhang0304.github.io/Stats_learning_trig/img/Stim/FN_018_g.png"",""time"":1360.7000000476837},{""stimulus"":""blank"",""time"":1666},{""stimulus"":""https://ziweizhang0304.github.io/Stats_learning_trig/img/Stim/FN_023_g.png"",""time"":1705.6000000238419},{""stimulus"":""blank"",""time"":2008.3000000715256},{""stimulus"":""https://ziweizhang0304.github.io/Stats_learning_trig/img/Stim/FN_026_g.png"",""time"":2041.6000000238419},{""stimulus"":""blank"",""time"":2343.3000000715256},{""stimulus"":""https://ziweizhang0304.github.io/Stats_learning_trig/img/Stim/FN_005_g.png"",""time"":2385.3000000715256},{""stimulus"":""blank"",""time"":2685.600000023842},{""stimulus"":""https://ziweizhang0304.github.io/Stats_learning_trig/img/Stim/FN_001_g.png"",""time"":2725.7000000476837},{""stimulus"":""blank"",""time"":3029.8000000715256},{""stimulus"":""https://ziweizhang0304.github.io/Stats_learning_trig/img/Stim/FN_004_g.png"",""time"":3064.3000000715256},{""stimulus"":""blank"",""time"":3369.5},{""stimulus"":""https://ziweizhang0304.github.io/Stats_learning_trig/img/Stim/FN_025_g.png"",""time"":3405.600000023842},{""stimulus"":""blank"",""time"":3708.600000023842},{""stimulus"":""https://ziweizhang0304.github.io/Stats_learning_trig/img/Stim/FN_010_g.png"",""time"":3741.600000023842},{""stimulus"":""blank"",""time"":4043.2000000476837},{""stimulus"":""https://ziweizhang0304.github.io/Stats_learning_trig/img/Stim/FN_022_g.png"",""time"":4081},{""stimulus"":""blank"",""time"":4381.600000023842}]","[{""key_press"":32,""rt"":2319,""stimulus"":""https://ziweizhang0304.github.io/Stats_learning_trig/img/Stim/FN_026_g.png""}]","277.39999997615814","https://ziweizhang0304.github.io/Stats_learning_trig/img/Stim/FN_026_g.png","post_TD","12","2041.6000000238419","2319","slow","6","2","6087308a21c5d44f55c3e296","","","","","",""
"","image-keyboard-response","37","262389","0.0-5.0-12.0-0.0","1196.7999999523163","","","https://ziweizhang0304.github.io/Stats_learning_trig/img/Stim/FN_026_g.png","13","","","","","","","","","","","","","","","","","",""
"","animation","38","266811","0.0-5.0-12.0-1.0","","","","","","[{""stimulus"":""https://ziweizhang0304.github.io/Stats_learning_trig/img/Stim/FN_015_g.png"",""time"":345.8000000715256},{""stimulus"":""blank"",""time"":646.2000000476837},{""stimulus"":""https://ziweizhang0304.github.io/Stats_learning_trig/img/Stim/FN_025_g.png"",""time"":680.9000000953674},{""stimulus"":""blank"",""time"":985.6000000238419},{""stimulus"":""https://ziweizhang0304.github.io/Stats_learning_trig/img/Stim/FN_013_g.png"",""time"":1022},{""stimulus"":""blank"",""time"":1324.3000000715256},{""stimulus"":""https://ziweizhang0304.github.io/Stats_learning_trig/img/Stim/FN_018_g.png"",""time"":1361},{""stimulus"":""blank"",""time"":1662.5},{""stimulus"":""https://ziweizhang0304.github.io/Stats_learning_trig/img/Stim/FN_001_g.png"",""time"":1700.9000000953674},{""stimulus"":""blank"",""time"":2004.6000000238419},{""stimulus"":""https://ziweizhang0304.github.io/Stats_learning_trig/img/Stim/FN_010_g.png"",""time"":2040.7000000476837},{""stimulus"":""blank"",""time"":2346.100000023842},{""stimulus"":""https://ziweizhang0304.github.io/Stats_learning_trig/img/Stim/FN_023_g.png"",""time"":2380.9000000953674},{""stimulus"":""blank"",""time"":2684.8000000715256},{""stimulus"":""https://ziweizhang0304.github.io/Stats_learning_trig/img/Stim/FN_026_g.png"",""time"":2721.9000000953674},{""stimulus"":""blank"",""time"":3023.9000000953674},{""stimulus"":""https://ziweizhang0304.github.io/Stats_learning_trig/img/Stim/FN_005_g.png"",""time"":3061},{""stimulus"":""blank"",""time"":3363.5},{""stimulus"":""https://ziweizhang0304.github.io/Stats_learning_trig/img/Stim/FN_004_g.png"",""time"":3403.9000000953674},{""stimulus"":""blank"",""time"":3708.8000000715256},{""stimulus"":""https://ziweizhang0304.github.io/Stats_learning_trig/img/Stim/FN_008_g.png"",""time"":3742.4000000953674},{""stimulus"":""blank"",""time"":4044},{""stimulus"":""https://ziweizhang0304.github.io/Stats_learning_trig/img/Stim/FN_022_g.png"",""time"":4085.7000000476837},{""stimulus"":""blank"",""time"":4386.800000071526}]","[{""key_press"":32,""rt"":3083,""stimulus"":""https://ziweizhang0304.github.io/Stats_learning_trig/img/Stim/FN_005_g.png""}]","361.09999990463257","https://ziweizhang0304.github.io/Stats_learning_trig/img/Stim/FN_026_g.png","post_TD","13","2721.9000000953674","3083","slow","8","2","6087308a21c5d44f55c3e296","","","","","",""
"","image-keyboard-response","39","272474","0.0-5.0-13.0-0.0","5661.300000071526","","","https://ziweizhang0304.github.io/Stats_learning_trig/img/Stim/FN_014_g.png","13","","","","","","","","","","","","","","","","","",""
"","animation","40","276895","0.0-5.0-13.0-1.0","","","","","","[{""stimulus"":""https://ziweizhang0304.github.io/Stats_learning_trig/img/Stim/FN_001_g.png"",""time"":343},{""stimulus"":""blank"",""time"":646},{""stimulus"":""https://ziweizhang0304.github.io/Stats_learning_trig/img/Stim/FN_013_g.png"",""time"":680.7000000476837},{""stimulus"":""blank"",""time"":982.8000000715256},{""stimulus"":""https://ziweizhang0304.github.io/Stats_learning_trig/img/Stim/FN_015_g.png"",""time"":1024.7000000476837},{""stimulus"":""blank"",""time"":1326.3000000715256},{""stimulus"":""https://ziweizhang0304.github.io/Stats_learning_trig/img/Stim/FN_014_g.png"",""time"":1360.9000000953674},{""stimulus"":""blank"",""time"":1665},{""stimulus"":""https://ziweizhang0304.github.io/Stats_learning_trig/img/Stim/FN_011_g.png"",""time"":1704.2000000476837},{""stimulus"":""blank"",""time"":2007.6000000238419},{""stimulus"":""https://ziweizhang0304.github.io/Stats_learning_trig/img/Stim/FN_006_g.png"",""time"":2043.1000000238419},{""stimulus"":""blank"",""time"":2343.3000000715256},{""stimulus"":""https://ziweizhang0304.github.io/Stats_learning_trig/img/Stim/FN_018_g.png"",""time"":2381},{""stimulus"":""blank"",""time"":2682},{""stimulus"":""https://ziweizhang0304.github.io/Stats_learning_trig/img/Stim/FN_004_g.png"",""time"":2724.600000023842},{""stimulus"":""blank"",""time"":3028.600000023842},{""stimulus"":""https://ziweizhang0304.github.io/Stats_learning_trig/img/Stim/FN_008_g.png"",""time"":3064.100000023842},{""stimulus"":""blank"",""time"":3364.7000000476837},{""stimulus"":""https://ziweizhang0304.github.io/Stats_learning_trig/img/Stim/FN_025_g.png"",""time"":3400.9000000953674},{""stimulus"":""blank"",""time"":3703.7000000476837},{""stimulus"":""https://ziweizhang0304.github.io/Stats_learning_trig/img/Stim/FN_010_g.png"",""time"":3743.2000000476837},{""stimulus"":""blank"",""time"":4046.9000000953674},{""stimulus"":""https://ziweizhang0304.github.io/Stats_learning_trig/img/Stim/FN_022_g.png"",""time"":4081},{""stimulus"":""blank"",""time"":4381.800000071526}]","[]","NaN","https://ziweizhang0304.github.io/Stats_learning_trig/img/Stim/FN_014_g.png","post_TD","14","1360.9000000953674","","fast","4","1","6087308a21c5d44f55c3e296","","","","","",""
"","image-keyboard-response","41","278063","0.0-5.0-14.0-0.0","1165.8999999761581","","","https://ziweizhang0304.github.io/Stats_learning_trig/img/Stim/FN_014_g.png","13","","","","","","","","","","","","","","","","","",""
"","animation","42","282487","0.0-5.0-14.0-1.0","","","","","","[{""stimulus"":""https://ziweizhang0304.github.io/Stats_learning_trig/img/Stim/FN_013_g.png"",""time"":340.8000000715256},{""stimulus"":""blank"",""time"":641.1000000238419},{""stimulus"":""https://ziweizhang0304.github.io/Stats_learning_trig/img/Stim/FN_008_g.png"",""time"":680.7000000476837},{""stimulus"":""blank"",""time"":986},{""stimulus"":""https://ziweizhang0304.github.io/Stats_learning_trig/img/Stim/FN_010_g.png"",""time"":1025.7000000476837},{""stimulus"":""blank"",""time"":1331},{""stimulus"":""https://ziweizhang0304.github.io/Stats_learning_trig/img/Stim/FN_001_g.png"",""time"":1363.7000000476837},{""stimulus"":""blank"",""time"":1668.8000000715256},{""stimulus"":""https://ziweizhang0304.github.io/Stats_learning_trig/img/Stim/FN_014_g.png"",""time"":1702.3000000715256},{""stimulus"":""blank"",""time"":2005.3000000715256},{""stimulus"":""https://ziweizhang0304.github.io/Stats_learning_trig/img/Stim/FN_011_g.png"",""time"":2040.7000000476837},{""stimulus"":""blank"",""time"":2340.9000000953674},{""stimulus"":""https://ziweizhang0304.github.io/Stats_learning_trig/img/Stim/FN_006_g.png"",""time"":2385.3000000715256},{""stimulus"":""blank"",""time"":2690},{""stimulus"":""https://ziweizhang0304.github.io/Stats_learning_trig/img/Stim/FN_018_g.png"",""time"":2725.7000000476837},{""stimulus"":""blank"",""time"":3031},{""stimulus"":""https://ziweizhang0304.github.io/Stats_learning_trig/img/Stim/FN_004_g.png"",""time"":3063.5},{""stimulus"":""blank"",""time"":3365.100000023842},{""stimulus"":""https://ziweizhang0304.github.io/Stats_learning_trig/img/Stim/FN_025_g.png"",""time"":3403.8000000715256},{""stimulus"":""blank"",""time"":3706.5},{""stimulus"":""https://ziweizhang0304.github.io/Stats_learning_trig/img/Stim/FN_015_g.png"",""time"":3741.3000000715256},{""stimulus"":""blank"",""time"":4041.7000000476837},{""stimulus"":""https://ziweizhang0304.github.io/Stats_learning_trig/img/Stim/FN_022_g.png"",""time"":4085.7000000476837},{""stimulus"":""blank"",""time"":4390}]","[]","NaN","https://ziweizhang0304.github.io/Stats_learning_trig/img/Stim/FN_014_g.png","post_TD","15","1702.3000000715256","","fast","5","1","6087308a21c5d44f55c3e296","","","","","",""
"","image-keyboard-response","43","283717","0.0-5.0-15.0-0.0","1228.2999999523163","","","https://ziweizhang0304.github.io/Stats_learning_trig/img/Stim/FN_023_g.png","13","","","","","","","","","","","","","","","","","",""
"","animation","44","288141","0.0-5.0-15.0-1.0","","","","","","[{""stimulus"":""https://ziweizhang0304.github.io/Stats_learning_trig/img/Stim/FN_015_g.png"",""time"":340.8000000715256},{""stimulus"":""blank"",""time"":642.4000000953674},{""stimulus"":""https://ziweizhang0304.github.io/Stats_learning_trig/img/Stim/FN_025_g.png"",""time"":685.4000000953674},{""stimulus"":""blank"",""time"":985.6000000238419},{""stimulus"":""https://ziweizhang0304.github.io/Stats_learning_trig/img/Stim/FN_013_g.png"",""time"":1025.5},{""stimulus"":""blank"",""time"":1330.7000000476837},{""stimulus"":""https://ziweizhang0304.github.io/Stats_learning_trig/img/Stim/FN_018_g.png"",""time"":1361.4000000953674},{""stimulus"":""blank"",""time"":1666.7000000476837},{""stimulus"":""https://ziweizhang0304.github.io/Stats_learning_trig/img/Stim/FN_001_g.png"",""time"":1702.8000000715256},{""stimulus"":""blank"",""time"":2007.1000000238419},{""stimulus"":""https://ziweizhang0304.github.io/Stats_learning_trig/img/Stim/FN_010_g.png"",""time"":2042.1000000238419},{""stimulus"":""blank"",""time"":2344.3000000715256},{""stimulus"":""https://ziweizhang0304.github.io/Stats_learning_trig/img/Stim/FN_023_g.png"",""time"":2385.3000000715256},{""stimulus"":""blank"",""time"":2685.5},{""stimulus"":""https://ziweizhang0304.github.io/Stats_learning_trig/img/Stim/FN_026_g.png"",""time"":2723.2000000476837},{""stimulus"":""blank"",""time"":3024.9000000953674},{""stimulus"":""https://ziweizhang0304.github.io/Stats_learning_trig/img/Stim/FN_005_g.png"",""time"":3064.600000023842},{""stimulus"":""blank"",""time"":3364.9000000953674},{""stimulus"":""https://ziweizhang0304.github.io/Stats_learning_trig/img/Stim/FN_004_g.png"",""time"":3403.4000000953674},{""stimulus"":""blank"",""time"":3707.7000000476837},{""stimulus"":""https://ziweizhang0304.github.io/Stats_learning_trig/img/Stim/FN_008_g.png"",""time"":3742.8000000715256},{""stimulus"":""blank"",""time"":4044.9000000953674},{""stimulus"":""https://ziweizhang0304.github.io/Stats_learning_trig/img/Stim/FN_022_g.png"",""time"":4083.7000000476837},{""stimulus"":""blank"",""time"":4385.5}]","[]","NaN","https://ziweizhang0304.github.io/Stats_learning_trig/img/Stim/FN_023_g.png","post_TD","16","2385.3000000715256","","slow","7","1","6087308a21c5d44f55c3e296","","","","","",""
"","image-keyboard-response","45","289351","0.0-5.0-16.0-0.0","1208.2999999523163","","","https://ziweizhang0304.github.io/Stats_learning_trig/img/Stim/FN_006_g.png","13","","","","","","","","","","","","","","","","","",""
"","animation","46","293774","0.0-5.0-16.0-1.0","","","","","","[{""stimulus"":""https://ziweizhang0304.github.io/Stats_learning_trig/img/Stim/FN_010_g.png"",""time"":345.89999997615814},{""stimulus"":""blank"",""time"":651.1000000238419},{""stimulus"":""https://ziweizhang0304.github.io/Stats_learning_trig/img/Stim/FN_018_g.png"",""time"":684.7000000476837},{""stimulus"":""blank"",""time"":989.8999999761581},{""stimulus"":""https://ziweizhang0304.github.io/Stats_learning_trig/img/Stim/FN_025_g.png"",""time"":1023},{""stimulus"":""blank"",""time"":1328.2999999523163},{""stimulus"":""https://ziweizhang0304.github.io/Stats_learning_trig/img/Stim/FN_013_g.png"",""time"":1361.1000000238419},{""stimulus"":""blank"",""time"":1663.5},{""stimulus"":""https://ziweizhang0304.github.io/Stats_learning_trig/img/Stim/FN_015_g.png"",""time"":1701.2999999523163},{""stimulus"":""blank"",""time"":2001.7999999523163},{""stimulus"":""https://ziweizhang0304.github.io/Stats_learning_trig/img/Stim/FN_014_g.png"",""time"":2043.2999999523163},{""stimulus"":""blank"",""time"":2348.600000023842},{""stimulus"":""https://ziweizhang0304.github.io/Stats_learning_trig/img/Stim/FN_011_g.png"",""time"":2383},{""stimulus"":""blank"",""time"":2684.2999999523163},{""stimulus"":""https://ziweizhang0304.github.io/Stats_learning_trig/img/Stim/FN_006_g.png"",""time"":2725.600000023842},{""stimulus"":""blank"",""time"":3030.899999976158},{""stimulus"":""https://ziweizhang0304.github.io/Stats_learning_trig/img/Stim/FN_001_g.png"",""time"":3062.399999976158},{""stimulus"":""blank"",""time"":3365.100000023842},{""stimulus"":""https://ziweizhang0304.github.io/Stats_learning_trig/img/Stim/FN_004_g.png"",""time"":3400.899999976158},{""stimulus"":""blank"",""time"":3701.399999976158},{""stimulus"":""https://ziweizhang0304.github.io/Stats_learning_trig/img/Stim/FN_008_g.png"",""time"":3745.600000023842},{""stimulus"":""blank"",""time"":4050.7999999523163},{""stimulus"":""https://ziweizhang0304.github.io/Stats_learning_trig/img/Stim/FN_022_g.png"",""time"":4085.600000023842},{""stimulus"":""blank"",""time"":4390.799999952316}]","[{""key_press"":32,""rt"":3181.100000023842,""stimulus"":""https://ziweizhang0304.github.io/Stats_learning_trig/img/Stim/FN_001_g.png""}]","455.5","https://ziweizhang0304.github.io/Stats_learning_trig/img/Stim/FN_006_g.png","post_TD","17","2725.600000023842","3181.100000023842","fast","8","3","6087308a21c5d44f55c3e296","","","","","",""
"","image-keyboard-response","47","295071","0.0-5.0-17.0-0.0","1295.7999999523163","","","https://ziweizhang0304.github.io/Stats_learning_trig/img/Stim/FN_005_g.png","13","","","","","","","","","","","","","","","","","",""
"","animation","48","299497","0.0-5.0-17.0-1.0","","","","","","[{""stimulus"":""https://ziweizhang0304.github.io/Stats_learning_trig/img/Stim/FN_008_g.png"",""time"":342.90000009536743},{""stimulus"":""blank"",""time"":645.9000000953674},{""stimulus"":""https://ziweizhang0304.github.io/Stats_learning_trig/img/Stim/FN_013_g.png"",""time"":680.8000000715256},{""stimulus"":""blank"",""time"":981.1000000238419},{""stimulus"":""https://ziweizhang0304.github.io/Stats_learning_trig/img/Stim/FN_015_g.png"",""time"":1023.9000000953674},{""stimulus"":""blank"",""time"":1329.1000000238419},{""stimulus"":""https://ziweizhang0304.github.io/Stats_learning_trig/img/Stim/FN_018_g.png"",""time"":1365.8000000715256},{""stimulus"":""blank"",""time"":1671.1000000238419},{""stimulus"":""https://ziweizhang0304.github.io/Stats_learning_trig/img/Stim/FN_023_g.png"",""time"":1701.6000000238419},{""stimulus"":""blank"",""time"":2004.4000000953674},{""stimulus"":""https://ziweizhang0304.github.io/Stats_learning_trig/img/Stim/FN_026_g.png"",""time"":2042.6000000238419},{""stimulus"":""blank"",""time"":2345.5},{""stimulus"":""https://ziweizhang0304.github.io/Stats_learning_trig/img/Stim/FN_005_g.png"",""time"":2380.9000000953674},{""stimulus"":""blank"",""time"":2681.600000023842},{""stimulus"":""https://ziweizhang0304.github.io/Stats_learning_trig/img/Stim/FN_001_g.png"",""time"":2721.8000000715256},{""stimulus"":""blank"",""time"":3027},{""stimulus"":""https://ziweizhang0304.github.io/Stats_learning_trig/img/Stim/FN_004_g.png"",""time"":3062.100000023842},{""stimulus"":""blank"",""time"":3364.3000000715256},{""stimulus"":""https://ziweizhang0304.github.io/Stats_learning_trig/img/Stim/FN_025_g.png"",""time"":3403.600000023842},{""stimulus"":""blank"",""time"":3708.8000000715256},{""stimulus"":""https://ziweizhang0304.github.io/Stats_learning_trig/img/Stim/FN_010_g.png"",""time"":3742.5},{""stimulus"":""blank"",""time"":4045.4000000953674},{""stimulus"":""https://ziweizhang0304.github.io/Stats_learning_trig/img/Stim/FN_022_g.png"",""time"":4081.600000023842},{""stimulus"":""blank"",""time"":4382.200000047684}]","[]","NaN","https://ziweizhang0304.github.io/Stats_learning_trig/img/Stim/FN_005_g.png","post_TD","18","2380.9000000953674","","slow","7","3","6087308a21c5d44f55c3e296","","","","","",""
"","image-keyboard-response","49","305727","0.0-5.0-18.0-0.0","6228.199999928474","","","https://ziweizhang0304.github.io/Stats_learning_trig/img/Stim/FN_011_g.png","13","","","","","","","","","","","","","","","","","",""
"","animation","50","310152","0.0-5.0-18.0-1.0","","","","","","[{""stimulus"":""https://ziweizhang0304.github.io/Stats_learning_trig/img/Stim/FN_001_g.png"",""time"":344.7000000476837},{""stimulus"":""blank"",""time"":650},{""stimulus"":""https://ziweizhang0304.github.io/Stats_learning_trig/img/Stim/FN_013_g.png"",""time"":681.3999999761581},{""stimulus"":""blank"",""time"":982.8999999761581},{""stimulus"":""https://ziweizhang0304.github.io/Stats_learning_trig/img/Stim/FN_015_g.png"",""time"":1025.2999999523163},{""stimulus"":""blank"",""time"":1325.7999999523163},{""stimulus"":""https://ziweizhang0304.github.io/Stats_learning_trig/img/Stim/FN_014_g.png"",""time"":1360.7999999523163},{""stimulus"":""blank"",""time"":1661.1000000238419},{""stimulus"":""https://ziweizhang0304.github.io/Stats_learning_trig/img/Stim/FN_011_g.png"",""time"":1705.2000000476837},{""stimulus"":""blank"",""time"":2005.5},{""stimulus"":""https://ziweizhang0304.github.io/Stats_learning_trig/img/Stim/FN_006_g.png"",""time"":2045.2999999523163},{""stimulus"":""blank"",""time"":2349.600000023842},{""stimulus"":""https://ziweizhang0304.github.io/Stats_learning_trig/img/Stim/FN_018_g.png"",""time"":2381.399999976158},{""stimulus"":""blank"",""time"":2682.7000000476837},{""stimulus"":""https://ziweizhang0304.github.io/Stats_learning_trig/img/Stim/FN_004_g.png"",""time"":2725.399999976158},{""stimulus"":""blank"",""time"":3025.399999976158},{""stimulus"":""https://ziweizhang0304.github.io/Stats_learning_trig/img/Stim/FN_008_g.png"",""time"":3065.7999999523163},{""stimulus"":""blank"",""time"":3371},{""stimulus"":""https://ziweizhang0304.github.io/Stats_learning_trig/img/Stim/FN_025_g.png"",""time"":3401.5},{""stimulus"":""blank"",""time"":3706.7000000476837},{""stimulus"":""https://ziweizhang0304.github.io/Stats_learning_trig/img/Stim/FN_010_g.png"",""time"":3741.600000023842},{""stimulus"":""blank"",""time"":4045.899999976158},{""stimulus"":""https://ziweizhang0304.github.io/Stats_learning_trig/img/Stim/FN_022_g.png"",""time"":4080.899999976158},{""stimulus"":""blank"",""time"":4382.299999952316}]","[]","NaN","https://ziweizhang0304.github.io/Stats_learning_trig/img/Stim/FN_011_g.png","post_TD","19","1705.2000000476837","","fast","5","2","6087308a21c5d44f55c3e296","","","","","",""
"","image-keyboard-response","51","314069","0.0-5.0-19.0-0.0","3915.1999999284744","","","https://ziweizhang0304.github.io/Stats_learning_trig/img/Stim/FN_006_g.png","13","","","","","","","","","","","","","","","","","",""
"","animation","52","318494","0.0-5.0-19.0-1.0","","","","","","[{""stimulus"":""https://ziweizhang0304.github.io/Stats_learning_trig/img/Stim/FN_013_g.png"",""time"":342.2999999523163},{""stimulus"":""blank"",""time"":644.6000000238419},{""stimulus"":""https://ziweizhang0304.github.io/Stats_learning_trig/img/Stim/FN_008_g.png"",""time"":683.6000000238419},{""stimulus"":""blank"",""time"":984},{""stimulus"":""https://ziweizhang0304.github.io/Stats_learning_trig/img/Stim/FN_010_g.png"",""time"":1024.7999999523163},{""stimulus"":""blank"",""time"":1330},{""stimulus"":""https://ziweizhang0304.github.io/Stats_learning_trig/img/Stim/FN_001_g.png"",""time"":1365.2000000476837},{""stimulus"":""blank"",""time"":1668.2999999523163},{""stimulus"":""https://ziweizhang0304.github.io/Stats_learning_trig/img/Stim/FN_014_g.png"",""time"":1702.7999999523163},{""stimulus"":""blank"",""time"":2007.1000000238419},{""stimulus"":""https://ziweizhang0304.github.io/Stats_learning_trig/img/Stim/FN_011_g.png"",""time"":2041.8999999761581},{""stimulus"":""blank"",""time"":2343.600000023842},{""stimulus"":""https://ziweizhang0304.github.io/Stats_learning_trig/img/Stim/FN_006_g.png"",""time"":2383.5},{""stimulus"":""blank"",""time"":2683.7999999523163},{""stimulus"":""https://ziweizhang0304.github.io/Stats_learning_trig/img/Stim/FN_018_g.png"",""time"":2725.7000000476837},{""stimulus"":""blank"",""time"":3030.899999976158},{""stimulus"":""https://ziweizhang0304.github.io/Stats_learning_trig/img/Stim/FN_004_g.png"",""time"":3062.2999999523163},{""stimulus"":""blank"",""time"":3367.600000023842},{""stimulus"":""https://ziweizhang0304.github.io/Stats_learning_trig/img/Stim/FN_025_g.png"",""time"":3405.7000000476837},{""stimulus"":""blank"",""time"":3710.899999976158},{""stimulus"":""https://ziweizhang0304.github.io/Stats_learning_trig/img/Stim/FN_015_g.png"",""time"":3741.899999976158},{""stimulus"":""blank"",""time"":4044.2000000476837},{""stimulus"":""https://ziweizhang0304.github.io/Stats_learning_trig/img/Stim/FN_022_g.png"",""time"":4081.100000023842},{""stimulus"":""blank"",""time"":4383.299999952316}]","[]","NaN","https://ziweizhang0304.github.io/Stats_learning_trig/img/Stim/FN_006_g.png","post_TD","20","2383.5","","fast","7","3","6087308a21c5d44f55c3e296","","","","","",""
"","image-keyboard-response","53","319642","0.0-5.0-20.0-0.0","1146.7000000476837","","","https://ziweizhang0304.github.io/Stats_learning_trig/img/Stim/FN_006_g.png","13","","","","","","","","","","","","","","","","","",""
"","animation","54","324067","0.0-5.0-20.0-1.0","","","","","","[{""stimulus"":""https://ziweizhang0304.github.io/Stats_learning_trig/img/Stim/FN_001_g.png"",""time"":343.2999999523163},{""stimulus"":""blank"",""time"":648.5999999046326},{""stimulus"":""https://ziweizhang0304.github.io/Stats_learning_trig/img/Stim/FN_018_g.png"",""time"":683.5999999046326},{""stimulus"":""blank"",""time"":986.2999999523163},{""stimulus"":""https://ziweizhang0304.github.io/Stats_learning_trig/img/Stim/FN_025_g.png"",""time"":1024.1999999284744},{""stimulus"":""blank"",""time"":1328},{""stimulus"":""https://ziweizhang0304.github.io/Stats_learning_trig/img/Stim/FN_004_g.png"",""time"":1360.5999999046326},{""stimulus"":""blank"",""time"":1660.8999999761581},{""stimulus"":""https://ziweizhang0304.github.io/Stats_learning_trig/img/Stim/FN_010_g.png"",""time"":1702.8999999761581},{""stimulus"":""blank"",""time"":2008.0999999046326},{""stimulus"":""https://ziweizhang0304.github.io/Stats_learning_trig/img/Stim/FN_013_g.png"",""time"":2043.0999999046326},{""stimulus"":""blank"",""time"":2348.399999976158},{""stimulus"":""https://ziweizhang0304.github.io/Stats_learning_trig/img/Stim/FN_014_g.png"",""time"":2381.899999976158},{""stimulus"":""blank"",""time"":2687.2999999523163},{""stimulus"":""https://ziweizhang0304.github.io/Stats_learning_trig/img/Stim/FN_011_g.png"",""time"":2721.7999999523163},{""stimulus"":""blank"",""time"":3024.899999976158},{""stimulus"":""https://ziweizhang0304.github.io/Stats_learning_trig/img/Stim/FN_006_g.png"",""time"":3060.7999999523163},{""stimulus"":""blank"",""time"":3361.0999999046326},{""stimulus"":""https://ziweizhang0304.github.io/Stats_learning_trig/img/Stim/FN_008_g.png"",""time"":3405.399999976158},{""stimulus"":""blank"",""time"":3708.6999999284744},{""stimulus"":""https://ziweizhang0304.github.io/Stats_learning_trig/img/Stim/FN_015_g.png"",""time"":3745},{""stimulus"":""blank"",""time"":4050.2999999523163},{""stimulus"":""https://ziweizhang0304.github.io/Stats_learning_trig/img/Stim/FN_022_g.png"",""time"":4083.6999999284744},{""stimulus"":""blank"",""time"":4389}]","[{""key_press"":32,""rt"":3620.600000023842,""stimulus"":""https://ziweizhang0304.github.io/Stats_learning_trig/img/Stim/FN_008_g.png""}]","559.8000000715256","https://ziweizhang0304.github.io/Stats_learning_trig/img/Stim/FN_006_g.png","post_TD","21","3060.7999999523163","3620.600000023842","fast","9","3","6087308a21c5d44f55c3e296","","","","","",""
"","image-keyboard-response","55","324931","0.0-5.0-21.0-0.0","863.2000000476837","","","https://ziweizhang0304.github.io/Stats_learning_trig/img/Stim/FN_011_g.png","13","","","","","","","","","","","","","","","","","",""
"","animation","56","329352","0.0-5.0-21.0-1.0","","","","","","[{""stimulus"":""https://ziweizhang0304.github.io/Stats_learning_trig/img/Stim/FN_010_g.png"",""time"":344.89999997615814},{""stimulus"":""blank"",""time"":650.1999999284744},{""stimulus"":""https://ziweizhang0304.github.io/Stats_learning_trig/img/Stim/FN_018_g.png"",""time"":680.8999999761581},{""stimulus"":""blank"",""time"":983.3999999761581},{""stimulus"":""https://ziweizhang0304.github.io/Stats_learning_trig/img/Stim/FN_025_g.png"",""time"":1021.3999999761581},{""stimulus"":""blank"",""time"":1321.6999999284744},{""stimulus"":""https://ziweizhang0304.github.io/Stats_learning_trig/img/Stim/FN_013_g.png"",""time"":1365.6999999284744},{""stimulus"":""blank"",""time"":1670.8999999761581},{""stimulus"":""https://ziweizhang0304.github.io/Stats_learning_trig/img/Stim/FN_015_g.png"",""time"":1702.2999999523163},{""stimulus"":""blank"",""time"":2004.2999999523163},{""stimulus"":""https://ziweizhang0304.github.io/Stats_learning_trig/img/Stim/FN_014_g.png"",""time"":2045.6999999284744},{""stimulus"":""blank"",""time"":2351},{""stimulus"":""https://ziweizhang0304.github.io/Stats_learning_trig/img/Stim/FN_011_g.png"",""time"":2382.5999999046326},{""stimulus"":""blank"",""time"":2685.5999999046326},{""stimulus"":""https://ziweizhang0304.github.io/Stats_learning_trig/img/Stim/FN_006_g.png"",""time"":2720.5999999046326},{""stimulus"":""blank"",""time"":3021.899999976158},{""stimulus"":""https://ziweizhang0304.github.io/Stats_learning_trig/img/Stim/FN_001_g.png"",""time"":3064.1999999284744},{""stimulus"":""blank"",""time"":3369.399999976158},{""stimulus"":""https://ziweizhang0304.github.io/Stats_learning_trig/img/Stim/FN_004_g.png"",""time"":3404.5},{""stimulus"":""blank"",""time"":3706.1999999284744},{""stimulus"":""https://ziweizhang0304.github.io/Stats_learning_trig/img/Stim/FN_008_g.png"",""time"":3740.7999999523163},{""stimulus"":""blank"",""time"":4045.899999976158},{""stimulus"":""https://ziweizhang0304.github.io/Stats_learning_trig/img/Stim/FN_022_g.png"",""time"":4082.5999999046326},{""stimulus"":""blank"",""time"":4385.599999904633}]","[]","NaN","https://ziweizhang0304.github.io/Stats_learning_trig/img/Stim/FN_011_g.png","post_TD","22","2382.5999999046326","","fast","7","2","6087308a21c5d44f55c3e296","","","","","",""
"","image-keyboard-response","57","330176","0.0-5.0-22.0-0.0","822.3999999761581","","","https://ziweizhang0304.github.io/Stats_learning_trig/img/Stim/FN_026_g.png","13","","","","","","","","","","","","","","","","","",""
"","animation","58","334599","0.0-5.0-22.0-1.0","","","","","","[{""stimulus"":""https://ziweizhang0304.github.io/Stats_learning_trig/img/Stim/FN_025_g.png"",""time"":344.2999999523163},{""stimulus"":""blank"",""time"":644.7000000476837},{""stimulus"":""https://ziweizhang0304.github.io/Stats_learning_trig/img/Stim/FN_008_g.png"",""time"":682.8999999761581},{""stimulus"":""blank"",""time"":985.7000000476837},{""stimulus"":""https://ziweizhang0304.github.io/Stats_learning_trig/img/Stim/FN_015_g.png"",""time"":1025.3999999761581},{""stimulus"":""blank"",""time"":1326.3999999761581},{""stimulus"":""https://ziweizhang0304.github.io/Stats_learning_trig/img/Stim/FN_023_g.png"",""time"":1365.7000000476837},{""stimulus"":""blank"",""time"":1671},{""stimulus"":""https://ziweizhang0304.github.io/Stats_learning_trig/img/Stim/FN_026_g.png"",""time"":1701.7000000476837},{""stimulus"":""blank"",""time"":2006.7999999523163},{""stimulus"":""https://ziweizhang0304.github.io/Stats_learning_trig/img/Stim/FN_005_g.png"",""time"":2043.7999999523163},{""stimulus"":""blank"",""time"":2347.2999999523163},{""stimulus"":""https://ziweizhang0304.github.io/Stats_learning_trig/img/Stim/FN_018_g.png"",""time"":2381.7000000476837},{""stimulus"":""blank"",""time"":2683.2000000476837},{""stimulus"":""https://ziweizhang0304.github.io/Stats_learning_trig/img/Stim/FN_001_g.png"",""time"":2725.399999976158},{""stimulus"":""blank"",""time"":3026.2999999523163},{""stimulus"":""https://ziweizhang0304.github.io/Stats_learning_trig/img/Stim/FN_004_g.png"",""time"":3063.399999976158},{""stimulus"":""blank"",""time"":3365.399999976158},{""stimulus"":""https://ziweizhang0304.github.io/Stats_learning_trig/img/Stim/FN_013_g.png"",""time"":3401.600000023842},{""stimulus"":""blank"",""time"":3706.899999976158},{""stimulus"":""https://ziweizhang0304.github.io/Stats_learning_trig/img/Stim/FN_010_g.png"",""time"":3743.899999976158},{""stimulus"":""blank"",""time"":4048.100000023842},{""stimulus"":""https://ziweizhang0304.github.io/Stats_learning_trig/img/Stim/FN_022_g.png"",""time"":4082.7999999523163},{""stimulus"":""blank"",""time"":4384.600000023842}]","[]","NaN","https://ziweizhang0304.github.io/Stats_learning_trig/img/Stim/FN_026_g.png","post_TD","23","1701.7000000476837","","slow","5","2","6087308a21c5d44f55c3e296","","","","","",""
"","image-keyboard-response","59","335532","0.0-5.0-23.0-0.0","931.7000000476837","","","https://ziweizhang0304.github.io/Stats_learning_trig/img/Stim/FN_023_g.png","13","","","","","","","","","","","","","","","","","",""
"","animation","60","339953","0.0-5.0-23.0-1.0","","","","","","[{""stimulus"":""https://ziweizhang0304.github.io/Stats_learning_trig/img/Stim/FN_008_g.png"",""time"":344.7999999523163},{""stimulus"":""blank"",""time"":646},{""stimulus"":""https://ziweizhang0304.github.io/Stats_learning_trig/img/Stim/FN_013_g.png"",""time"":681.5},{""stimulus"":""blank"",""time"":984.5},{""stimulus"":""https://ziweizhang0304.github.io/Stats_learning_trig/img/Stim/FN_015_g.png"",""time"":1020.6000000238419},{""stimulus"":""blank"",""time"":1320.6999999284744},{""stimulus"":""https://ziweizhang0304.github.io/Stats_learning_trig/img/Stim/FN_018_g.png"",""time"":1365.6999999284744},{""stimulus"":""blank"",""time"":1670.6999999284744},{""stimulus"":""https://ziweizhang0304.github.io/Stats_learning_trig/img/Stim/FN_023_g.png"",""time"":1704.8999999761581},{""stimulus"":""blank"",""time"":2009.7999999523163},{""stimulus"":""https://ziweizhang0304.github.io/Stats_learning_trig/img/Stim/FN_026_g.png"",""time"":2042.3999999761581},{""stimulus"":""blank"",""time"":2347.6999999284744},{""stimulus"":""https://ziweizhang0304.github.io/Stats_learning_trig/img/Stim/FN_005_g.png"",""time"":2382.1999999284744},{""stimulus"":""blank"",""time"":2682.899999976158},{""stimulus"":""https://ziweizhang0304.github.io/Stats_learning_trig/img/Stim/FN_001_g.png"",""time"":2721.2999999523163},{""stimulus"":""blank"",""time"":3022.399999976158},{""stimulus"":""https://ziweizhang0304.github.io/Stats_learning_trig/img/Stim/FN_004_g.png"",""time"":3065.6999999284744},{""stimulus"":""blank"",""time"":3370.6999999284744},{""stimulus"":""https://ziweizhang0304.github.io/Stats_learning_trig/img/Stim/FN_025_g.png"",""time"":3405.6999999284744},{""stimulus"":""blank"",""time"":3709.600000023842},{""stimulus"":""https://ziweizhang0304.github.io/Stats_learning_trig/img/Stim/FN_010_g.png"",""time"":3741.7999999523163},{""stimulus"":""blank"",""time"":4042},{""stimulus"":""https://ziweizhang0304.github.io/Stats_learning_trig/img/Stim/FN_022_g.png"",""time"":4082.6999999284744},{""stimulus"":""blank"",""time"":4385.699999928474}]","[{""key_press"":32,""rt"":2178.399999976158,""stimulus"":""https://ziweizhang0304.github.io/Stats_learning_trig/img/Stim/FN_026_g.png""}]","473.5","https://ziweizhang0304.github.io/Stats_learning_trig/img/Stim/FN_023_g.png","post_TD","24","1704.8999999761581","2178.399999976158","slow","5","1","6087308a21c5d44f55c3e296","f91b2","","","","",""
"","survey-text","61","403723","0.0-6.0","63751.299999952316","","","","","","","","","","","","","","","","","","{""Q0"":""I didn't really have much of a strategy. I just did what I could to eliminate all distractions and focus on the shapes appearing on my screen to increase the speed at which I could recognize the target shape and hit the spacebar.""}","","","",""
"","survey-text","62","446076","0.0-7.0","42337.200000047684","","","","","","","","","","","","","","","","","","{""[object Object]"":""Not really. They all seemed to be very unique shapes and more like doodles than geometric shapes.""}","","","",""
"","instructions","63","459444","0.0-8.0","13367.5","","[{""page_index"":0,""viewing_time"":13367.200000047684}]","","","","","","","","","","","","","","","","","","","",""
"","free-sort","64","485500","0.0-9.0","26053.900000095367","","","","","","","","","post_drag","","","","fast","","","","","","[{""src"":""https://ziweizhang0304.github.io/Stats_learning_trig/img/Stim/FN_011_g.png"",""x"":475,""y"":0},{""src"":""https://ziweizhang0304.github.io/Stats_learning_trig/img/Stim/FN_006_g.png"",""x"":-225,""y"":50},{""src"":""https://ziweizhang0304.github.io/Stats_learning_trig/img/Stim/FN_014_g.png"",""x"":475,""y"":50}]","[{""src"":""https://ziweizhang0304.github.io/Stats_learning_trig/img/Stim/FN_011_g.png"",""x"":21,""y"":23},{""src"":""https://ziweizhang0304.github.io/Stats_learning_trig/img/Stim/FN_014_g.png"",""x"":106,""y"":30},{""src"":""https://ziweizhang0304.github.io/Stats_learning_trig/img/Stim/FN_006_g.png"",""x"":234,""y"":30}]","[{""src"":""https://ziweizhang0304.github.io/Stats_learning_trig/img/Stim/FN_011_g.png"",""x"":21,""y"":23},{""src"":""https://ziweizhang0304.github.io/Stats_learning_trig/img/Stim/FN_006_g.png"",""x"":234,""y"":30},{""src"":""https://ziweizhang0304.github.io/Stats_learning_trig/img/Stim/FN_014_g.png"",""x"":106,""y"":30}]",""
"","free-sort","65","498182","0.0-10.0","12681","","","","","","","","","post_drag","","","","slow","","","","","","[{""src"":""https://ziweizhang0304.github.io/Stats_learning_trig/img/Stim/FN_005_g.png"",""x"":475,""y"":0},{""src"":""https://ziweizhang0304.github.io/Stats_learning_trig/img/Stim/FN_023_g.png"",""x"":-225,""y"":50},{""src"":""https://ziweizhang0304.github.io/Stats_learning_trig/img/Stim/FN_026_g.png"",""x"":475,""y"":50}]","[{""src"":""https://ziweizhang0304.github.io/Stats_learning_trig/img/Stim/FN_005_g.png"",""x"":248,""y"":19},{""src"":""https://ziweizhang0304.github.io/Stats_learning_trig/img/Stim/FN_026_g.png"",""x"":161,""y"":21},{""src"":""https://ziweizhang0304.github.io/Stats_learning_trig/img/Stim/FN_023_g.png"",""x"":52,""y"":16}]","[{""src"":""https://ziweizhang0304.github.io/Stats_learning_trig/img/Stim/FN_005_g.png"",""x"":248,""y"":19},{""src"":""https://ziweizhang0304.github.io/Stats_learning_trig/img/Stim/FN_023_g.png"",""x"":52,""y"":16},{""src"":""https://ziweizhang0304.github.io/Stats_learning_trig/img/Stim/FN_026_g.png"",""x"":161,""y"":21}]",""
"","survey-multi-choice","66","510802","0.0-11.0","12617.200000047684","","","","","","","","","","","","","","","","6087308a21c5d44f55c3e296","","{""awareness"":""No"",""attention_check"":""Press SPACEBAR to a target""}","","","","[0,1]"
