"success","trial_type","trial_index","time_elapsed","internal_node_id","rt","url","view_history","stimulus","key_press","animation_sequence","response","TD_rt","TD_target","test_part","TD_trial_number","onset","offset","attention_state","TD_target_position","TD_within_triplet_counter","participant","yoke_participant","responses","init_locations","moves","final_locations","question_order"
"true","fullscreen","0","3089","0.0-0.0","","","","","","","","","","","","","","","","","","","","","","",""
"","external-html","1","30883","0.0-1.0","27618.80000001192","https://ziweizhang0304.github.io/Stats_learning_trig/content/consent.html","","","","","","","","","","","","","","","","","","","","",""
"","instructions","2","52286","0.0-2.0","21400.69999998808","","[{""page_index"":0,""viewing_time"":2283.699999988079},{""page_index"":1,""viewing_time"":7943.5999999940395},{""page_index"":2,""viewing_time"":8319.90000000596},{""page_index"":3,""viewing_time"":2852.5}]","","","","","","","","","","","","","","","","","","","",""
"","image-keyboard-response","3","61009","0.0-3.0-0.0-0.0","8721.09999999404","","","https://ziweizhang0304.github.io/Stats_learning_trig/img/Stim/FN_023_g.png","13","","","","","","","","","","","","","","","","","",""
"","animation","4","65431","0.0-3.0-0.0-1.0","","","","","","[{""stimulus"":""https://ziweizhang0304.github.io/Stats_learning_trig/img/Stim/FN_017_g.png"",""time"":366.5},{""stimulus"":""blank"",""time"":667.9000000059605},{""stimulus"":""https://ziweizhang0304.github.io/Stats_learning_trig/img/Stim/FN_016_g.png"",""time"":684.4000000059605},{""stimulus"":""blank"",""time"":990.9000000059605},{""stimulus"":""https://ziweizhang0304.github.io/Stats_learning_trig/img/Stim/FN_012_g.png"",""time"":1021.9000000059605},{""stimulus"":""blank"",""time"":1336.699999988079},{""stimulus"":""https://ziweizhang0304.github.io/Stats_learning_trig/img/Stim/FN_023_g.png"",""time"":1367},{""stimulus"":""blank"",""time"":1675.5},{""stimulus"":""https://ziweizhang0304.github.io/Stats_learning_trig/img/Stim/FN_008_g.png"",""time"":1702},{""stimulus"":""blank"",""time"":2011.4000000059605},{""stimulus"":""https://ziweizhang0304.github.io/Stats_learning_trig/img/Stim/FN_007_g.png"",""time"":2042.300000011921},{""stimulus"":""blank"",""time"":2353},{""stimulus"":""https://ziweizhang0304.github.io/Stats_learning_trig/img/Stim/FN_004_g.png"",""time"":2381.300000011921},{""stimulus"":""blank"",""time"":2682},{""stimulus"":""https://ziweizhang0304.github.io/Stats_learning_trig/img/Stim/FN_005_g.png"",""time"":2724.199999988079},{""stimulus"":""blank"",""time"":3028.800000011921},{""stimulus"":""https://ziweizhang0304.github.io/Stats_learning_trig/img/Stim/FN_010_g.png"",""time"":3070.800000011921},{""stimulus"":""blank"",""time"":3385.800000011921},{""stimulus"":""https://ziweizhang0304.github.io/Stats_learning_trig/img/Stim/FN_013_g.png"",""time"":3404.199999988079},{""stimulus"":""blank"",""time"":3717.5},{""stimulus"":""https://ziweizhang0304.github.io/Stats_learning_trig/img/Stim/FN_026_g.png"",""time"":3741.4000000059605},{""stimulus"":""blank"",""time"":4055.699999988079},{""stimulus"":""https://ziweizhang0304.github.io/Stats_learning_trig/img/Stim/FN_024_g.png"",""time"":4084.300000011921},{""stimulus"":""blank"",""time"":4396.5}]","[{""key_press"":32,""rt"":1768.5,""stimulus"":""https://ziweizhang0304.github.io/Stats_learning_trig/img/Stim/FN_008_g.png""}]","401.5","https://ziweizhang0304.github.io/Stats_learning_trig/img/Stim/FN_023_g.png","post_prac","","","","","","","","","","","","",""
"","html-keyboard-response","5","70688","0.0-3.0-0.0-2.0","5251.199999988079","","","<p>Your reaction time for this trial was 401.5 ms.</p><p>Remember that you should only press the SPACEBAR when you see the shape presented at the beginning of the trial. </b> </p><p>Press enter to move on.</p>","13","","","","","","","","","","","","","","","","","",""
"","image-keyboard-response","6","75554","0.0-3.0-1.0-0.0","4864.5","","","https://ziweizhang0304.github.io/Stats_learning_trig/img/Stim/FN_022_g.png","13","","","","","","","","","","","","","","","","","",""
"","animation","7","79978","0.0-3.0-1.0-1.0","","","","","","[{""stimulus"":""https://ziweizhang0304.github.io/Stats_learning_trig/img/Stim/FN_016_g.png"",""time"":347.90000000596046},{""stimulus"":""blank"",""time"":662.9000000059605},{""stimulus"":""https://ziweizhang0304.github.io/Stats_learning_trig/img/Stim/FN_017_g.png"",""time"":683.5999999940395},{""stimulus"":""blank"",""time"":993.6999999880791},{""stimulus"":""https://ziweizhang0304.github.io/Stats_learning_trig/img/Stim/FN_013_g.png"",""time"":1021.1999999880791},{""stimulus"":""blank"",""time"":1330.7999999821186},{""stimulus"":""https://ziweizhang0304.github.io/Stats_learning_trig/img/Stim/FN_010_g.png"",""time"":1361.7999999821186},{""stimulus"":""blank"",""time"":1674.699999988079},{""stimulus"":""https://ziweizhang0304.github.io/Stats_learning_trig/img/Stim/FN_021_g.png"",""time"":1701.5},{""stimulus"":""blank"",""time"":2010.5},{""stimulus"":""https://ziweizhang0304.github.io/Stats_learning_trig/img/Stim/FN_022_g.png"",""time"":2044.5},{""stimulus"":""blank"",""time"":2360.4000000059605},{""stimulus"":""https://ziweizhang0304.github.io/Stats_learning_trig/img/Stim/FN_014_g.png"",""time"":2384},{""stimulus"":""blank"",""time"":2692.199999988079},{""stimulus"":""https://ziweizhang0304.github.io/Stats_learning_trig/img/Stim/FN_008_g.png"",""time"":2728},{""stimulus"":""blank"",""time"":3042.199999988079},{""stimulus"":""https://ziweizhang0304.github.io/Stats_learning_trig/img/Stim/FN_012_g.png"",""time"":3067.4000000059605},{""stimulus"":""blank"",""time"":3372.0999999940395},{""stimulus"":""https://ziweizhang0304.github.io/Stats_learning_trig/img/Stim/FN_004_g.png"",""time"":3407.199999988079},{""stimulus"":""blank"",""time"":3709},{""stimulus"":""https://ziweizhang0304.github.io/Stats_learning_trig/img/Stim/FN_005_g.png"",""time"":3741.4000000059605},{""stimulus"":""blank"",""time"":4056.9000000059605},{""stimulus"":""https://ziweizhang0304.github.io/Stats_learning_trig/img/Stim/FN_007_g.png"",""time"":4081.0999999940395},{""stimulus"":""blank"",""time"":4390.5999999940395}]","[{""key_press"":32,""rt"":2424.199999988079,""stimulus"":""https://ziweizhang0304.github.io/Stats_learning_trig/img/Stim/FN_014_g.png""}]","379.69999998807907","https://ziweizhang0304.github.io/Stats_learning_trig/img/Stim/FN_022_g.png","post_prac","","","","","","","","","","","","",""
"","html-keyboard-response","8","84647","0.0-3.0-1.0-2.0","4666","","","<p>Your reaction time for this trial was 379.7 ms.</p><p>Remember that you should only press the SPACEBAR when you see the shape presented at the beginning of the trial. </b> </p><p>Press enter to move on.</p>","13","","","","","","","","","","","","","","","","","",""
"","image-keyboard-response","9","87102","0.0-3.0-2.0-0.0","2453.7000000178814","","","https://ziweizhang0304.github.io/Stats_learning_trig/img/Stim/FN_022_g.png","13","","","","","","","","","","","","","","","","","",""
"","animation","10","91526","0.0-3.0-2.0-1.0","","","","","","[{""stimulus"":""https://ziweizhang0304.github.io/Stats_learning_trig/img/Stim/FN_017_g.png"",""time"":353.59999999403954},{""stimulus"":""blank"",""time"":662.1999999880791},{""stimulus"":""https://ziweizhang0304.github.io/Stats_learning_trig/img/Stim/FN_007_g.png"",""time"":682.6999999880791},{""stimulus"":""blank"",""time"":995.0999999940395},{""stimulus"":""https://ziweizhang0304.github.io/Stats_learning_trig/img/Stim/FN_012_g.png"",""time"":1023.5},{""stimulus"":""blank"",""time"":1325.5999999940395},{""stimulus"":""https://ziweizhang0304.github.io/Stats_learning_trig/img/Stim/FN_005_g.png"",""time"":1360.5999999940395},{""stimulus"":""blank"",""time"":1670.5},{""stimulus"":""https://ziweizhang0304.github.io/Stats_learning_trig/img/Stim/FN_004_g.png"",""time"":1713.300000011921},{""stimulus"":""blank"",""time"":2020.5},{""stimulus"":""https://ziweizhang0304.github.io/Stats_learning_trig/img/Stim/FN_010_g.png"",""time"":2042.9000000059605},{""stimulus"":""blank"",""time"":2353.9000000059605},{""stimulus"":""https://ziweizhang0304.github.io/Stats_learning_trig/img/Stim/FN_021_g.png"",""time"":2382.300000011921},{""stimulus"":""blank"",""time"":2692.0999999940395},{""stimulus"":""https://ziweizhang0304.github.io/Stats_learning_trig/img/Stim/FN_022_g.png"",""time"":2720.9000000059605},{""stimulus"":""blank"",""time"":3031.300000011921},{""stimulus"":""https://ziweizhang0304.github.io/Stats_learning_trig/img/Stim/FN_014_g.png"",""time"":3064.9000000059605},{""stimulus"":""blank"",""time"":3368.300000011921},{""stimulus"":""https://ziweizhang0304.github.io/Stats_learning_trig/img/Stim/FN_008_g.png"",""time"":3402.5},{""stimulus"":""blank"",""time"":3712.199999988079},{""stimulus"":""https://ziweizhang0304.github.io/Stats_learning_trig/img/Stim/FN_016_g.png"",""time"":3741.5999999940395},{""stimulus"":""blank"",""time"":4049.199999988079},{""stimulus"":""https://ziweizhang0304.github.io/Stats_learning_trig/img/Stim/FN_013_g.png"",""time"":4084.0999999940395},{""stimulus"":""blank"",""time"":4384.5}]","[{""key_press"":32,""rt"":3113.300000011921,""stimulus"":""https://ziweizhang0304.github.io/Stats_learning_trig/img/Stim/FN_014_g.png""}]","392.40000000596046","https://ziweizhang0304.github.io/Stats_learning_trig/img/Stim/FN_022_g.png","post_prac","","","","","","","","","","","","",""
"","html-keyboard-response","11","93812","0.0-3.0-2.0-2.0","2283.9000000059605","","","<p>Your reaction time for this trial was 392.4 ms.</p><p>Remember that you should only press the SPACEBAR when you see the shape presented at the beginning of the trial. </b> </p><p>Press enter to move on.</p>","13","","","","","","","","","","","","","","","","","",""
"","instructions","12","95305","0.0-4.0","1492.300000011921","","[{""page_index"":0,""viewing_time"":1492.0999999940395}]","","","","","","","","","","","","","","","","","","","",""
"","image-keyboard-response","13","98513","0.0-5.0-0.0-0.0","3207.600000023842","","","https://ziweizhang0304.github.io/Stats_learning_trig/img/Stim/FN_024_g.png","13","","","","","","","","","","","","","","","","","",""
"","animation","14","102938","0.0-5.0-0.0-1.0","","","","","","[{""stimulus"":""https://ziweizhang0304.github.io/Stats_learning_trig/img/Stim/FN_012_g.png"",""time"":346.2999999821186},{""stimulus"":""blank"",""time"":655.6999999880791},{""stimulus"":""https://ziweizhang0304.github.io/Stats_learning_trig/img/Stim/FN_013_g.png"",""time"":681.5999999940395},{""stimulus"":""blank"",""time"":989.7999999821186},{""stimulus"":""https://ziweizhang0304.github.io/Stats_learning_trig/img/Stim/FN_008_g.png"",""time"":1021.2999999821186},{""stimulus"":""blank"",""time"":1325.4000000059605},{""stimulus"":""https://ziweizhang0304.github.io/Stats_learning_trig/img/Stim/FN_026_g.png"",""time"":1362.0999999940395},{""stimulus"":""blank"",""time"":1677.5},{""stimulus"":""https://ziweizhang0304.github.io/Stats_learning_trig/img/Stim/FN_023_g.png"",""time"":1708},{""stimulus"":""blank"",""time"":2017.2999999821186},{""stimulus"":""https://ziweizhang0304.github.io/Stats_learning_trig/img/Stim/FN_024_g.png"",""time"":2041},{""stimulus"":""blank"",""time"":2350.5},{""stimulus"":""https://ziweizhang0304.github.io/Stats_learning_trig/img/Stim/FN_004_g.png"",""time"":2382},{""stimulus"":""blank"",""time"":2689.4000000059605},{""stimulus"":""https://ziweizhang0304.github.io/Stats_learning_trig/img/Stim/FN_017_g.png"",""time"":2723.699999988079},{""stimulus"":""blank"",""time"":3029.5},{""stimulus"":""https://ziweizhang0304.github.io/Stats_learning_trig/img/Stim/FN_016_g.png"",""time"":3061.9000000059605},{""stimulus"":""blank"",""time"":3365.699999988079},{""stimulus"":""https://ziweizhang0304.github.io/Stats_learning_trig/img/Stim/FN_005_g.png"",""time"":3401.0999999940395},{""stimulus"":""blank"",""time"":3705.2999999821186},{""stimulus"":""https://ziweizhang0304.github.io/Stats_learning_trig/img/Stim/FN_007_g.png"",""time"":3755.0999999940395},{""stimulus"":""blank"",""time"":4068.4000000059605},{""stimulus"":""https://ziweizhang0304.github.io/Stats_learning_trig/img/Stim/FN_010_g.png"",""time"":4082},{""stimulus"":""blank"",""time"":4388.299999982119}]","[{""key_press"":32,""rt"":2420.300000011921,""stimulus"":""https://ziweizhang0304.github.io/Stats_learning_trig/img/Stim/FN_004_g.png""}]","379.30000001192093","https://ziweizhang0304.github.io/Stats_learning_trig/img/Stim/FN_024_g.png","post_TD","1","2041","2420.300000011921","fast","6","3","611178113c2efecb1c14a276","","","","","",""
"","image-keyboard-response","15","108301","0.0-5.0-1.0-0.0","5359.399999976158","","","https://ziweizhang0304.github.io/Stats_learning_trig/img/Stim/FN_021_g.png","13","","","","","","","","","","","","","","","","","",""
"","animation","16","112725","0.0-5.0-1.0-1.0","","","","","","[{""stimulus"":""https://ziweizhang0304.github.io/Stats_learning_trig/img/Stim/FN_004_g.png"",""time"":353.2999999821186},{""stimulus"":""blank"",""time"":668.5999999940395},{""stimulus"":""https://ziweizhang0304.github.io/Stats_learning_trig/img/Stim/FN_013_g.png"",""time"":681.0999999940395},{""stimulus"":""blank"",""time"":996.4000000059605},{""stimulus"":""https://ziweizhang0304.github.io/Stats_learning_trig/img/Stim/FN_016_g.png"",""time"":1021},{""stimulus"":""blank"",""time"":1336.9000000059605},{""stimulus"":""https://ziweizhang0304.github.io/Stats_learning_trig/img/Stim/FN_021_g.png"",""time"":1364.7999999821186},{""stimulus"":""blank"",""time"":1666.0999999940395},{""stimulus"":""https://ziweizhang0304.github.io/Stats_learning_trig/img/Stim/FN_022_g.png"",""time"":1716.9000000059605},{""stimulus"":""blank"",""time"":2028.4000000059605},{""stimulus"":""https://ziweizhang0304.github.io/Stats_learning_trig/img/Stim/FN_014_g.png"",""time"":2042.7999999821186},{""stimulus"":""blank"",""time"":2348.2999999821186},{""stimulus"":""https://ziweizhang0304.github.io/Stats_learning_trig/img/Stim/FN_008_g.png"",""time"":2381.4000000059605},{""stimulus"":""blank"",""time"":2692.5},{""stimulus"":""https://ziweizhang0304.github.io/Stats_learning_trig/img/Stim/FN_012_g.png"",""time"":2723.199999988079},{""stimulus"":""blank"",""time"":3032.4000000059605},{""stimulus"":""https://ziweizhang0304.github.io/Stats_learning_trig/img/Stim/FN_017_g.png"",""time"":3066.7999999821186},{""stimulus"":""blank"",""time"":3378.2999999821186},{""stimulus"":""https://ziweizhang0304.github.io/Stats_learning_trig/img/Stim/FN_005_g.png"",""time"":3402.699999988079},{""stimulus"":""blank"",""time"":3716.199999988079},{""stimulus"":""https://ziweizhang0304.github.io/Stats_learning_trig/img/Stim/FN_007_g.png"",""time"":3740.9000000059605},{""stimulus"":""blank"",""time"":4045.699999988079},{""stimulus"":""https://ziweizhang0304.github.io/Stats_learning_trig/img/Stim/FN_010_g.png"",""time"":4090.4000000059605},{""stimulus"":""blank"",""time"":4402.5}]","[{""key_press"":32,""rt"":1717.0999999940395,""stimulus"":""https://ziweizhang0304.github.io/Stats_learning_trig/img/Stim/FN_022_g.png""}]","352.30000001192093","https://ziweizhang0304.github.io/Stats_learning_trig/img/Stim/FN_021_g.png","post_TD","2","1364.7999999821186","1717.0999999940395","slow","4","1","611178113c2efecb1c14a276","","","","","",""
"","image-keyboard-response","17","114779","0.0-5.0-2.0-0.0","2052.199999988079","","","https://ziweizhang0304.github.io/Stats_learning_trig/img/Stim/FN_023_g.png","13","","","","","","","","","","","","","","","","","",""
"","animation","18","119207","0.0-5.0-2.0-1.0","","","","","","[{""stimulus"":""https://ziweizhang0304.github.io/Stats_learning_trig/img/Stim/FN_010_g.png"",""time"":349.7000000178814},{""stimulus"":""blank"",""time"":653.9000000059605},{""stimulus"":""https://ziweizhang0304.github.io/Stats_learning_trig/img/Stim/FN_017_g.png"",""time"":686.7000000178814},{""stimulus"":""blank"",""time"":994.8000000119209},{""stimulus"":""https://ziweizhang0304.github.io/Stats_learning_trig/img/Stim/FN_013_g.png"",""time"":1020.9000000059605},{""stimulus"":""blank"",""time"":1324.2000000178814},{""stimulus"":""https://ziweizhang0304.github.io/Stats_learning_trig/img/Stim/FN_004_g.png"",""time"":1361.6000000238419},{""stimulus"":""blank"",""time"":1662.9000000059605},{""stimulus"":""https://ziweizhang0304.github.io/Stats_learning_trig/img/Stim/FN_012_g.png"",""time"":1713.5},{""stimulus"":""blank"",""time"":2018.6000000238419},{""stimulus"":""https://ziweizhang0304.github.io/Stats_learning_trig/img/Stim/FN_026_g.png"",""time"":2042.9000000059605},{""stimulus"":""blank"",""time"":2350},{""stimulus"":""https://ziweizhang0304.github.io/Stats_learning_trig/img/Stim/FN_023_g.png"",""time"":2382.7000000178814},{""stimulus"":""blank"",""time"":2686.7000000178814},{""stimulus"":""https://ziweizhang0304.github.io/Stats_learning_trig/img/Stim/FN_024_g.png"",""time"":2735.4000000059605},{""stimulus"":""blank"",""time"":3041.7000000178814},{""stimulus"":""https://ziweizhang0304.github.io/Stats_learning_trig/img/Stim/FN_008_g.png"",""time"":3062.2000000178814},{""stimulus"":""blank"",""time"":3370.600000023842},{""stimulus"":""https://ziweizhang0304.github.io/Stats_learning_trig/img/Stim/FN_016_g.png"",""time"":3416.600000023842},{""stimulus"":""blank"",""time"":3724.5},{""stimulus"":""https://ziweizhang0304.github.io/Stats_learning_trig/img/Stim/FN_005_g.png"",""time"":3742.800000011921},{""stimulus"":""blank"",""time"":4053.600000023842},{""stimulus"":""https://ziweizhang0304.github.io/Stats_learning_trig/img/Stim/FN_007_g.png"",""time"":4081.600000023842},{""stimulus"":""blank"",""time"":4388.700000017881}]","[{""key_press"":32,""rt"":2399.199999988079,""stimulus"":""https://ziweizhang0304.github.io/Stats_learning_trig/img/Stim/FN_023_g.png""}]","16.499999970197678","https://ziweizhang0304.github.io/Stats_learning_trig/img/Stim/FN_023_g.png","post_TD","3","2382.7000000178814","2399.199999988079","fast","7","2","611178113c2efecb1c14a276","","","","","",""
"","image-keyboard-response","19","121995","0.0-5.0-3.0-0.0","2786.0999999940395","","","https://ziweizhang0304.github.io/Stats_learning_trig/img/Stim/FN_024_g.png","13","","","","","","","","","","","","","","","","","",""
"","animation","20","126418","0.0-5.0-3.0-1.0","","","","","","[{""stimulus"":""https://ziweizhang0304.github.io/Stats_learning_trig/img/Stim/FN_010_g.png"",""time"":346.69999998807907},{""stimulus"":""blank"",""time"":657.5999999940395},{""stimulus"":""https://ziweizhang0304.github.io/Stats_learning_trig/img/Stim/FN_017_g.png"",""time"":681},{""stimulus"":""blank"",""time"":983.0999999940395},{""stimulus"":""https://ziweizhang0304.github.io/Stats_learning_trig/img/Stim/FN_013_g.png"",""time"":1022.8000000119209},{""stimulus"":""blank"",""time"":1331.300000011921},{""stimulus"":""https://ziweizhang0304.github.io/Stats_learning_trig/img/Stim/FN_004_g.png"",""time"":1361.199999988079},{""stimulus"":""blank"",""time"":1664.9000000059605},{""stimulus"":""https://ziweizhang0304.github.io/Stats_learning_trig/img/Stim/FN_012_g.png"",""time"":1709.699999988079},{""stimulus"":""blank"",""time"":2022},{""stimulus"":""https://ziweizhang0304.github.io/Stats_learning_trig/img/Stim/FN_026_g.png"",""time"":2044.199999988079},{""stimulus"":""blank"",""time"":2356.5999999940395},{""stimulus"":""https://ziweizhang0304.github.io/Stats_learning_trig/img/Stim/FN_023_g.png"",""time"":2380.800000011921},{""stimulus"":""blank"",""time"":2693.5},{""stimulus"":""https://ziweizhang0304.github.io/Stats_learning_trig/img/Stim/FN_024_g.png"",""time"":2722.5999999940395},{""stimulus"":""blank"",""time"":3034.699999988079},{""stimulus"":""https://ziweizhang0304.github.io/Stats_learning_trig/img/Stim/FN_008_g.png"",""time"":3062.5999999940395},{""stimulus"":""blank"",""time"":3367.5999999940395},{""stimulus"":""https://ziweizhang0304.github.io/Stats_learning_trig/img/Stim/FN_016_g.png"",""time"":3416.199999988079},{""stimulus"":""blank"",""time"":3721.9000000059605},{""stimulus"":""https://ziweizhang0304.github.io/Stats_learning_trig/img/Stim/FN_005_g.png"",""time"":3742.5},{""stimulus"":""blank"",""time"":4051.199999988079},{""stimulus"":""https://ziweizhang0304.github.io/Stats_learning_trig/img/Stim/FN_007_g.png"",""time"":4082.0999999940395},{""stimulus"":""blank"",""time"":4396.9000000059605}]","[{""key_press"":32,""rt"":3072.800000011921,""stimulus"":""https://ziweizhang0304.github.io/Stats_learning_trig/img/Stim/FN_008_g.png""}]","350.2000000178814","https://ziweizhang0304.github.io/Stats_learning_trig/img/Stim/FN_024_g.png","post_TD","4","2722.5999999940395","3072.800000011921","fast","8","3","611178113c2efecb1c14a276","","","","","",""
"","image-keyboard-response","21","131930","0.0-5.0-4.0-0.0","5509.700000017881","","","https://ziweizhang0304.github.io/Stats_learning_trig/img/Stim/FN_014_g.png","13","","","","","","","","","","","","","","","","","",""
"","animation","22","136359","0.0-5.0-4.0-1.0","","","","","","[{""stimulus"":""https://ziweizhang0304.github.io/Stats_learning_trig/img/Stim/FN_017_g.png"",""time"":353},{""stimulus"":""blank"",""time"":664.1999999880791},{""stimulus"":""https://ziweizhang0304.github.io/Stats_learning_trig/img/Stim/FN_007_g.png"",""time"":682.6999999880791},{""stimulus"":""blank"",""time"":994.5},{""stimulus"":""https://ziweizhang0304.github.io/Stats_learning_trig/img/Stim/FN_012_g.png"",""time"":1023.8000000119209},{""stimulus"":""blank"",""time"":1333.9000000059605},{""stimulus"":""https://ziweizhang0304.github.io/Stats_learning_trig/img/Stim/FN_005_g.png"",""time"":1366.5},{""stimulus"":""blank"",""time"":1680.300000011921},{""stimulus"":""https://ziweizhang0304.github.io/Stats_learning_trig/img/Stim/FN_004_g.png"",""time"":1706.699999988079},{""stimulus"":""blank"",""time"":2018.300000011921},{""stimulus"":""https://ziweizhang0304.github.io/Stats_learning_trig/img/Stim/FN_010_g.png"",""time"":2044.9000000059605},{""stimulus"":""blank"",""time"":2354.4000000059605},{""stimulus"":""https://ziweizhang0304.github.io/Stats_learning_trig/img/Stim/FN_021_g.png"",""time"":2385.4000000059605},{""stimulus"":""blank"",""time"":2689.699999988079},{""stimulus"":""https://ziweizhang0304.github.io/Stats_learning_trig/img/Stim/FN_022_g.png"",""time"":2721.5},{""stimulus"":""blank"",""time"":3024.800000011921},{""stimulus"":""https://ziweizhang0304.github.io/Stats_learning_trig/img/Stim/FN_014_g.png"",""time"":3061.800000011921},{""stimulus"":""blank"",""time"":3372.199999988079},{""stimulus"":""https://ziweizhang0304.github.io/Stats_learning_trig/img/Stim/FN_008_g.png"",""time"":3400.9000000059605},{""stimulus"":""blank"",""time"":3705.300000011921},{""stimulus"":""https://ziweizhang0304.github.io/Stats_learning_trig/img/Stim/FN_016_g.png"",""time"":3741.800000011921},{""stimulus"":""blank"",""time"":4054.199999988079},{""stimulus"":""https://ziweizhang0304.github.io/Stats_learning_trig/img/Stim/FN_013_g.png"",""time"":4080.9000000059605},{""stimulus"":""blank"",""time"":4382.0999999940395}]","[{""key_press"":32,""rt"":3434.5999999940395,""stimulus"":""https://ziweizhang0304.github.io/Stats_learning_trig/img/Stim/FN_008_g.png""}]","372.7999999821186","https://ziweizhang0304.github.io/Stats_learning_trig/img/Stim/FN_014_g.png","post_TD","5","3061.800000011921","3434.5999999940395","slow","9","3","611178113c2efecb1c14a276","","","","","",""
"","image-keyboard-response","23","138670","0.0-5.0-5.0-0.0","2308.5","","","https://ziweizhang0304.github.io/Stats_learning_trig/img/Stim/FN_023_g.png","13","","","","","","","","","","","","","","","","","",""
"","animation","24","143094","0.0-5.0-5.0-1.0","","","","","","[{""stimulus"":""https://ziweizhang0304.github.io/Stats_learning_trig/img/Stim/FN_008_g.png"",""time"":347.09999999403954},{""stimulus"":""blank"",""time"":649.9000000059605},{""stimulus"":""https://ziweizhang0304.github.io/Stats_learning_trig/img/Stim/FN_013_g.png"",""time"":683},{""stimulus"":""blank"",""time"":994},{""stimulus"":""https://ziweizhang0304.github.io/Stats_learning_trig/img/Stim/FN_010_g.png"",""time"":1023.6999999880791},{""stimulus"":""blank"",""time"":1334.5},{""stimulus"":""https://ziweizhang0304.github.io/Stats_learning_trig/img/Stim/FN_004_g.png"",""time"":1360.9000000059605},{""stimulus"":""blank"",""time"":1673.199999988079},{""stimulus"":""https://ziweizhang0304.github.io/Stats_learning_trig/img/Stim/FN_026_g.png"",""time"":1702.199999988079},{""stimulus"":""blank"",""time"":2006.4000000059605},{""stimulus"":""https://ziweizhang0304.github.io/Stats_learning_trig/img/Stim/FN_023_g.png"",""time"":2044.300000011921},{""stimulus"":""blank"",""time"":2358},{""stimulus"":""https://ziweizhang0304.github.io/Stats_learning_trig/img/Stim/FN_024_g.png"",""time"":2382.5},{""stimulus"":""blank"",""time"":2697.800000011921},{""stimulus"":""https://ziweizhang0304.github.io/Stats_learning_trig/img/Stim/FN_012_g.png"",""time"":2723.199999988079},{""stimulus"":""blank"",""time"":3038.800000011921},{""stimulus"":""https://ziweizhang0304.github.io/Stats_learning_trig/img/Stim/FN_017_g.png"",""time"":3063.0999999940395},{""stimulus"":""blank"",""time"":3366.5},{""stimulus"":""https://ziweizhang0304.github.io/Stats_learning_trig/img/Stim/FN_016_g.png"",""time"":3403.199999988079},{""stimulus"":""blank"",""time"":3705.9000000059605},{""stimulus"":""https://ziweizhang0304.github.io/Stats_learning_trig/img/Stim/FN_005_g.png"",""time"":3741.300000011921},{""stimulus"":""blank"",""time"":4042.699999988079},{""stimulus"":""https://ziweizhang0304.github.io/Stats_learning_trig/img/Stim/FN_007_g.png"",""time"":4087.199999988079},{""stimulus"":""blank"",""time"":4397.699999988079}]","[{""key_press"":32,""rt"":2454.2000000178814,""stimulus"":""https://ziweizhang0304.github.io/Stats_learning_trig/img/Stim/FN_024_g.png""}]","409.90000000596046","https://ziweizhang0304.github.io/Stats_learning_trig/img/Stim/FN_023_g.png","post_TD","6","2044.300000011921","2454.2000000178814","fast","6","2","611178113c2efecb1c14a276","","","","","",""
"","image-keyboard-response","25","144852","0.0-5.0-6.0-0.0","1756.9000000059605","","","https://ziweizhang0304.github.io/Stats_learning_trig/img/Stim/FN_024_g.png","13","","","","","","","","","","","","","","","","","",""
"","animation","26","149276","0.0-5.0-6.0-1.0","","","","","","[{""stimulus"":""https://ziweizhang0304.github.io/Stats_learning_trig/img/Stim/FN_004_g.png"",""time"":350.5},{""stimulus"":""blank"",""time"":664.1999999880791},{""stimulus"":""https://ziweizhang0304.github.io/Stats_learning_trig/img/Stim/FN_013_g.png"",""time"":693.5},{""stimulus"":""blank"",""time"":1002.8000000119209},{""stimulus"":""https://ziweizhang0304.github.io/Stats_learning_trig/img/Stim/FN_010_g.png"",""time"":1022.5999999940395},{""stimulus"":""blank"",""time"":1334.5},{""stimulus"":""https://ziweizhang0304.github.io/Stats_learning_trig/img/Stim/FN_007_g.png"",""time"":1361.0999999940395},{""stimulus"":""blank"",""time"":1662.800000011921},{""stimulus"":""https://ziweizhang0304.github.io/Stats_learning_trig/img/Stim/FN_008_g.png"",""time"":1706.300000011921},{""stimulus"":""blank"",""time"":2021},{""stimulus"":""https://ziweizhang0304.github.io/Stats_learning_trig/img/Stim/FN_012_g.png"",""time"":2043.5},{""stimulus"":""blank"",""time"":2346.300000011921},{""stimulus"":""https://ziweizhang0304.github.io/Stats_learning_trig/img/Stim/FN_026_g.png"",""time"":2381.4000000059605},{""stimulus"":""blank"",""time"":2694.199999988079},{""stimulus"":""https://ziweizhang0304.github.io/Stats_learning_trig/img/Stim/FN_023_g.png"",""time"":2724.199999988079},{""stimulus"":""blank"",""time"":3024.5999999940395},{""stimulus"":""https://ziweizhang0304.github.io/Stats_learning_trig/img/Stim/FN_024_g.png"",""time"":3069.199999988079},{""stimulus"":""blank"",""time"":3380.4000000059605},{""stimulus"":""https://ziweizhang0304.github.io/Stats_learning_trig/img/Stim/FN_017_g.png"",""time"":3402.9000000059605},{""stimulus"":""blank"",""time"":3712.300000011921},{""stimulus"":""https://ziweizhang0304.github.io/Stats_learning_trig/img/Stim/FN_016_g.png"",""time"":3744.5},{""stimulus"":""blank"",""time"":4047.800000011921},{""stimulus"":""https://ziweizhang0304.github.io/Stats_learning_trig/img/Stim/FN_005_g.png"",""time"":4082.0999999940395},{""stimulus"":""blank"",""time"":4390.5}]","[{""key_press"":32,""rt"":3343.300000011921,""stimulus"":""https://ziweizhang0304.github.io/Stats_learning_trig/img/Stim/FN_024_g.png""}]","274.10000002384186","https://ziweizhang0304.github.io/Stats_learning_trig/img/Stim/FN_024_g.png","post_TD","7","3069.199999988079","3343.300000011921","fast","9","3","611178113c2efecb1c14a276","","","","","",""
"","image-keyboard-response","27","152069","0.0-5.0-7.0-0.0","2791.600000023842","","","https://ziweizhang0304.github.io/Stats_learning_trig/img/Stim/FN_014_g.png","13","","","","","","","","","","","","","","","","","",""
"","animation","28","156493","0.0-5.0-7.0-1.0","","","","","","[{""stimulus"":""https://ziweizhang0304.github.io/Stats_learning_trig/img/Stim/FN_013_g.png"",""time"":346.69999998807907},{""stimulus"":""blank"",""time"":649.5999999940395},{""stimulus"":""https://ziweizhang0304.github.io/Stats_learning_trig/img/Stim/FN_012_g.png"",""time"":681.1999999880791},{""stimulus"":""blank"",""time"":997.3000000119209},{""stimulus"":""https://ziweizhang0304.github.io/Stats_learning_trig/img/Stim/FN_007_g.png"",""time"":1028.199999988079},{""stimulus"":""blank"",""time"":1336.199999988079},{""stimulus"":""https://ziweizhang0304.github.io/Stats_learning_trig/img/Stim/FN_016_g.png"",""time"":1364.5},{""stimulus"":""blank"",""time"":1677},{""stimulus"":""https://ziweizhang0304.github.io/Stats_learning_trig/img/Stim/FN_010_g.png"",""time"":1701.699999988079},{""stimulus"":""blank"",""time"":2009.4000000059605},{""stimulus"":""https://ziweizhang0304.github.io/Stats_learning_trig/img/Stim/FN_021_g.png"",""time"":2041.800000011921},{""stimulus"":""blank"",""time"":2351.9000000059605},{""stimulus"":""https://ziweizhang0304.github.io/Stats_learning_trig/img/Stim/FN_022_g.png"",""time"":2381.300000011921},{""stimulus"":""blank"",""time"":2688.300000011921},{""stimulus"":""https://ziweizhang0304.github.io/Stats_learning_trig/img/Stim/FN_014_g.png"",""time"":2721.9000000059605},{""stimulus"":""blank"",""time"":3033},{""stimulus"":""https://ziweizhang0304.github.io/Stats_learning_trig/img/Stim/FN_008_g.png"",""time"":3060.5999999940395},{""stimulus"":""blank"",""time"":3363.699999988079},{""stimulus"":""https://ziweizhang0304.github.io/Stats_learning_trig/img/Stim/FN_004_g.png"",""time"":3413},{""stimulus"":""blank"",""time"":3717.699999988079},{""stimulus"":""https://ziweizhang0304.github.io/Stats_learning_trig/img/Stim/FN_017_g.png"",""time"":3741.199999988079},{""stimulus"":""blank"",""time"":4051.699999988079},{""stimulus"":""https://ziweizhang0304.github.io/Stats_learning_trig/img/Stim/FN_005_g.png"",""time"":4081.0999999940395},{""stimulus"":""blank"",""time"":4389.5999999940395}]","[{""key_press"":32,""rt"":3003.0999999940395,""stimulus"":""https://ziweizhang0304.github.io/Stats_learning_trig/img/Stim/FN_014_g.png""}]","281.19999998807907","https://ziweizhang0304.github.io/Stats_learning_trig/img/Stim/FN_014_g.png","post_TD","8","2721.9000000059605","3003.0999999940395","slow","8","3","611178113c2efecb1c14a276","","","","","",""
"","image-keyboard-response","29","158551","0.0-5.0-8.0-0.0","2055.5","","","https://ziweizhang0304.github.io/Stats_learning_trig/img/Stim/FN_014_g.png","13","","","","","","","","","","","","","","","","","",""
"","animation","30","162974","0.0-5.0-8.0-1.0","","","","","","[{""stimulus"":""https://ziweizhang0304.github.io/Stats_learning_trig/img/Stim/FN_016_g.png"",""time"":344.5},{""stimulus"":""blank"",""time"":652.6999999880791},{""stimulus"":""https://ziweizhang0304.github.io/Stats_learning_trig/img/Stim/FN_017_g.png"",""time"":681.9000000059605},{""stimulus"":""blank"",""time"":990},{""stimulus"":""https://ziweizhang0304.github.io/Stats_learning_trig/img/Stim/FN_013_g.png"",""time"":1033.800000011921},{""stimulus"":""blank"",""time"":1334.5},{""stimulus"":""https://ziweizhang0304.github.io/Stats_learning_trig/img/Stim/FN_010_g.png"",""time"":1361},{""stimulus"":""blank"",""time"":1668},{""stimulus"":""https://ziweizhang0304.github.io/Stats_learning_trig/img/Stim/FN_021_g.png"",""time"":1712.0999999940395},{""stimulus"":""blank"",""time"":2022.4000000059605},{""stimulus"":""https://ziweizhang0304.github.io/Stats_learning_trig/img/Stim/FN_022_g.png"",""time"":2042.800000011921},{""stimulus"":""blank"",""time"":2343},{""stimulus"":""https://ziweizhang0304.github.io/Stats_learning_trig/img/Stim/FN_014_g.png"",""time"":2381.4000000059605},{""stimulus"":""blank"",""time"":2686.5},{""stimulus"":""https://ziweizhang0304.github.io/Stats_learning_trig/img/Stim/FN_008_g.png"",""time"":2746.4000000059605},{""stimulus"":""blank"",""time"":3052.0999999940395},{""stimulus"":""https://ziweizhang0304.github.io/Stats_learning_trig/img/Stim/FN_012_g.png"",""time"":3064.699999988079},{""stimulus"":""blank"",""time"":3374.4000000059605},{""stimulus"":""https://ziweizhang0304.github.io/Stats_learning_trig/img/Stim/FN_004_g.png"",""time"":3407.300000011921},{""stimulus"":""blank"",""time"":3715.5999999940395},{""stimulus"":""https://ziweizhang0304.github.io/Stats_learning_trig/img/Stim/FN_005_g.png"",""time"":3741.4000000059605},{""stimulus"":""blank"",""time"":4056.0999999940395},{""stimulus"":""https://ziweizhang0304.github.io/Stats_learning_trig/img/Stim/FN_007_g.png"",""time"":4081.199999988079},{""stimulus"":""blank"",""time"":4388.800000011921}]","[{""key_press"":32,""rt"":2787.600000023842,""stimulus"":""https://ziweizhang0304.github.io/Stats_learning_trig/img/Stim/FN_008_g.png""}]","406.2000000178814","https://ziweizhang0304.github.io/Stats_learning_trig/img/Stim/FN_014_g.png","post_TD","9","2381.4000000059605","2787.600000023842","slow","7","3","611178113c2efecb1c14a276","","","","","",""
"","image-keyboard-response","31","168628","0.0-5.0-9.0-0.0","5652.299999982119","","","https://ziweizhang0304.github.io/Stats_learning_trig/img/Stim/FN_026_g.png","13","","","","","","","","","","","","","","","","","",""
"","animation","32","173055","0.0-5.0-9.0-1.0","","","","","","[{""stimulus"":""https://ziweizhang0304.github.io/Stats_learning_trig/img/Stim/FN_008_g.png"",""time"":347.2999999821186},{""stimulus"":""blank"",""time"":659.3999999761581},{""stimulus"":""https://ziweizhang0304.github.io/Stats_learning_trig/img/Stim/FN_013_g.png"",""time"":681.5},{""stimulus"":""blank"",""time"":994.3999999761581},{""stimulus"":""https://ziweizhang0304.github.io/Stats_learning_trig/img/Stim/FN_010_g.png"",""time"":1028},{""stimulus"":""blank"",""time"":1337.699999988079},{""stimulus"":""https://ziweizhang0304.github.io/Stats_learning_trig/img/Stim/FN_004_g.png"",""time"":1362.8999999761581},{""stimulus"":""blank"",""time"":1669.3999999761581},{""stimulus"":""https://ziweizhang0304.github.io/Stats_learning_trig/img/Stim/FN_026_g.png"",""time"":1701.699999988079},{""stimulus"":""blank"",""time"":2015.3999999761581},{""stimulus"":""https://ziweizhang0304.github.io/Stats_learning_trig/img/Stim/FN_023_g.png"",""time"":2041.8999999761581},{""stimulus"":""blank"",""time"":2353},{""stimulus"":""https://ziweizhang0304.github.io/Stats_learning_trig/img/Stim/FN_024_g.png"",""time"":2381.2999999821186},{""stimulus"":""blank"",""time"":2692.5},{""stimulus"":""https://ziweizhang0304.github.io/Stats_learning_trig/img/Stim/FN_012_g.png"",""time"":2720.7999999821186},{""stimulus"":""blank"",""time"":3032.899999976158},{""stimulus"":""https://ziweizhang0304.github.io/Stats_learning_trig/img/Stim/FN_017_g.png"",""time"":3063.399999976158},{""stimulus"":""blank"",""time"":3372.199999988079},{""stimulus"":""https://ziweizhang0304.github.io/Stats_learning_trig/img/Stim/FN_016_g.png"",""time"":3401.5},{""stimulus"":""blank"",""time"":3708.699999988079},{""stimulus"":""https://ziweizhang0304.github.io/Stats_learning_trig/img/Stim/FN_005_g.png"",""time"":3752.399999976158},{""stimulus"":""blank"",""time"":4058.199999988079},{""stimulus"":""https://ziweizhang0304.github.io/Stats_learning_trig/img/Stim/FN_007_g.png"",""time"":4080.899999976158},{""stimulus"":""blank"",""time"":4382.0999999940395}]","[{""key_press"":32,""rt"":2107.5999999940395,""stimulus"":""https://ziweizhang0304.github.io/Stats_learning_trig/img/Stim/FN_023_g.png""}]","405.90000000596046","https://ziweizhang0304.github.io/Stats_learning_trig/img/Stim/FN_026_g.png","post_TD","10","1701.699999988079","2107.5999999940395","fast","5","1","611178113c2efecb1c14a276","","","","","",""
"","image-keyboard-response","33","176193","0.0-5.0-10.0-0.0","3135.4000000059605","","","https://ziweizhang0304.github.io/Stats_learning_trig/img/Stim/FN_022_g.png","13","","","","","","","","","","","","","","","","","",""
"","animation","34","180615","0.0-5.0-10.0-1.0","","","","","","[{""stimulus"":""https://ziweizhang0304.github.io/Stats_learning_trig/img/Stim/FN_017_g.png"",""time"":355.19999998807907},{""stimulus"":""blank"",""time"":658.0999999940395},{""stimulus"":""https://ziweizhang0304.github.io/Stats_learning_trig/img/Stim/FN_007_g.png"",""time"":684.8999999761581},{""stimulus"":""blank"",""time"":994.3999999761581},{""stimulus"":""https://ziweizhang0304.github.io/Stats_learning_trig/img/Stim/FN_012_g.png"",""time"":1024.199999988079},{""stimulus"":""blank"",""time"":1337.3999999761581},{""stimulus"":""https://ziweizhang0304.github.io/Stats_learning_trig/img/Stim/FN_005_g.png"",""time"":1367.3999999761581},{""stimulus"":""blank"",""time"":1678.0999999940395},{""stimulus"":""https://ziweizhang0304.github.io/Stats_learning_trig/img/Stim/FN_004_g.png"",""time"":1702.3999999761581},{""stimulus"":""blank"",""time"":2013.5999999940395},{""stimulus"":""https://ziweizhang0304.github.io/Stats_learning_trig/img/Stim/FN_010_g.png"",""time"":2043.8999999761581},{""stimulus"":""blank"",""time"":2358.0999999940395},{""stimulus"":""https://ziweizhang0304.github.io/Stats_learning_trig/img/Stim/FN_021_g.png"",""time"":2381.2999999821186},{""stimulus"":""blank"",""time"":2682.0999999940395},{""stimulus"":""https://ziweizhang0304.github.io/Stats_learning_trig/img/Stim/FN_022_g.png"",""time"":2734.7999999821186},{""stimulus"":""blank"",""time"":3047.7999999821186},{""stimulus"":""https://ziweizhang0304.github.io/Stats_learning_trig/img/Stim/FN_014_g.png"",""time"":3063.5999999940395},{""stimulus"":""blank"",""time"":3369.5999999940395},{""stimulus"":""https://ziweizhang0304.github.io/Stats_learning_trig/img/Stim/FN_008_g.png"",""time"":3402.2999999821186},{""stimulus"":""blank"",""time"":3714.199999988079},{""stimulus"":""https://ziweizhang0304.github.io/Stats_learning_trig/img/Stim/FN_016_g.png"",""time"":3742.5999999940395},{""stimulus"":""blank"",""time"":4054.0999999940395},{""stimulus"":""https://ziweizhang0304.github.io/Stats_learning_trig/img/Stim/FN_013_g.png"",""time"":4084.399999976158},{""stimulus"":""blank"",""time"":4390.199999988079}]","[{""key_press"":32,""rt"":3083.199999988079,""stimulus"":""https://ziweizhang0304.github.io/Stats_learning_trig/img/Stim/FN_014_g.png""}]","348.40000000596046","https://ziweizhang0304.github.io/Stats_learning_trig/img/Stim/FN_022_g.png","post_TD","11","2734.7999999821186","3083.199999988079","slow","8","2","611178113c2efecb1c14a276","","","","","",""
"","image-keyboard-response","35","182965","0.0-5.0-11.0-0.0","2344.800000011921","","","https://ziweizhang0304.github.io/Stats_learning_trig/img/Stim/FN_021_g.png","13","","","","","","","","","","","","","","","","","",""
"","animation","36","187390","0.0-5.0-11.0-1.0","","","","","","[{""stimulus"":""https://ziweizhang0304.github.io/Stats_learning_trig/img/Stim/FN_013_g.png"",""time"":347.39999997615814},{""stimulus"":""blank"",""time"":657.8999999761581},{""stimulus"":""https://ziweizhang0304.github.io/Stats_learning_trig/img/Stim/FN_012_g.png"",""time"":682.3999999761581},{""stimulus"":""blank"",""time"":994.0999999940395},{""stimulus"":""https://ziweizhang0304.github.io/Stats_learning_trig/img/Stim/FN_007_g.png"",""time"":1024.2999999821186},{""stimulus"":""blank"",""time"":1330.199999988079},{""stimulus"":""https://ziweizhang0304.github.io/Stats_learning_trig/img/Stim/FN_016_g.png"",""time"":1361.7999999821186},{""stimulus"":""blank"",""time"":1670.2999999821186},{""stimulus"":""https://ziweizhang0304.github.io/Stats_learning_trig/img/Stim/FN_010_g.png"",""time"":1704.2999999821186},{""stimulus"":""blank"",""time"":2011.7999999821186},{""stimulus"":""https://ziweizhang0304.github.io/Stats_learning_trig/img/Stim/FN_021_g.png"",""time"":2042.699999988079},{""stimulus"":""blank"",""time"":2351.2999999821186},{""stimulus"":""https://ziweizhang0304.github.io/Stats_learning_trig/img/Stim/FN_022_g.png"",""time"":2393.0999999940395},{""stimulus"":""blank"",""time"":2699.2999999821186},{""stimulus"":""https://ziweizhang0304.github.io/Stats_learning_trig/img/Stim/FN_014_g.png"",""time"":2721.899999976158},{""stimulus"":""blank"",""time"":3037.0999999940395},{""stimulus"":""https://ziweizhang0304.github.io/Stats_learning_trig/img/Stim/FN_008_g.png"",""time"":3062.2999999821186},{""stimulus"":""blank"",""time"":3370.2999999821186},{""stimulus"":""https://ziweizhang0304.github.io/Stats_learning_trig/img/Stim/FN_004_g.png"",""time"":3402},{""stimulus"":""blank"",""time"":3713},{""stimulus"":""https://ziweizhang0304.github.io/Stats_learning_trig/img/Stim/FN_017_g.png"",""time"":3743},{""stimulus"":""blank"",""time"":4052.699999988079},{""stimulus"":""https://ziweizhang0304.github.io/Stats_learning_trig/img/Stim/FN_005_g.png"",""time"":4084.199999988079},{""stimulus"":""blank"",""time"":4394.899999976158}]","[{""key_press"":32,""rt"":2365.5999999940395,""stimulus"":""blank""}]","322.90000000596046","https://ziweizhang0304.github.io/Stats_learning_trig/img/Stim/FN_021_g.png","post_TD","12","2042.699999988079","2365.5999999940395","slow","6","1","611178113c2efecb1c14a276","","","","","",""
"","image-keyboard-response","37","189497","0.0-5.0-12.0-0.0","2105.4000000059605","","","https://ziweizhang0304.github.io/Stats_learning_trig/img/Stim/FN_023_g.png","13","","","","","","","","","","","","","","","","","",""
"","animation","38","193920","0.0-5.0-12.0-1.0","","","","","","[{""stimulus"":""https://ziweizhang0304.github.io/Stats_learning_trig/img/Stim/FN_012_g.png"",""time"":355.90000000596046},{""stimulus"":""blank"",""time"":666.5999999940395},{""stimulus"":""https://ziweizhang0304.github.io/Stats_learning_trig/img/Stim/FN_013_g.png"",""time"":682.6999999880791},{""stimulus"":""blank"",""time"":989.9000000059605},{""stimulus"":""https://ziweizhang0304.github.io/Stats_learning_trig/img/Stim/FN_008_g.png"",""time"":1028.4000000059605},{""stimulus"":""blank"",""time"":1338.300000011921},{""stimulus"":""https://ziweizhang0304.github.io/Stats_learning_trig/img/Stim/FN_026_g.png"",""time"":1362.800000011921},{""stimulus"":""blank"",""time"":1670.0999999940395},{""stimulus"":""https://ziweizhang0304.github.io/Stats_learning_trig/img/Stim/FN_023_g.png"",""time"":1703.9000000059605},{""stimulus"":""blank"",""time"":2010.5},{""stimulus"":""https://ziweizhang0304.github.io/Stats_learning_trig/img/Stim/FN_024_g.png"",""time"":2043.300000011921},{""stimulus"":""blank"",""time"":2355.800000011921},{""stimulus"":""https://ziweizhang0304.github.io/Stats_learning_trig/img/Stim/FN_004_g.png"",""time"":2381.0999999940395},{""stimulus"":""blank"",""time"":2690.5},{""stimulus"":""https://ziweizhang0304.github.io/Stats_learning_trig/img/Stim/FN_017_g.png"",""time"":2724.300000011921},{""stimulus"":""blank"",""time"":3030.699999988079},{""stimulus"":""https://ziweizhang0304.github.io/Stats_learning_trig/img/Stim/FN_016_g.png"",""time"":3062.199999988079},{""stimulus"":""blank"",""time"":3374.0999999940395},{""stimulus"":""https://ziweizhang0304.github.io/Stats_learning_trig/img/Stim/FN_005_g.png"",""time"":3406.9000000059605},{""stimulus"":""blank"",""time"":3719.300000011921},{""stimulus"":""https://ziweizhang0304.github.io/Stats_learning_trig/img/Stim/FN_007_g.png"",""time"":3744.800000011921},{""stimulus"":""blank"",""time"":4054.199999988079},{""stimulus"":""https://ziweizhang0304.github.io/Stats_learning_trig/img/Stim/FN_010_g.png"",""time"":4082.9000000059605},{""stimulus"":""blank"",""time"":4398.4000000059605}]","[{""key_press"":32,""rt"":2084.5,""stimulus"":""https://ziweizhang0304.github.io/Stats_learning_trig/img/Stim/FN_024_g.png""}]","380.59999999403954","https://ziweizhang0304.github.io/Stats_learning_trig/img/Stim/FN_023_g.png","post_TD","13","1703.9000000059605","2084.5","fast","5","2","611178113c2efecb1c14a276","","","","","",""
"","image-keyboard-response","39","195982","0.0-5.0-13.0-0.0","2060.4000000059605","","","https://ziweizhang0304.github.io/Stats_learning_trig/img/Stim/FN_021_g.png","13","","","","","","","","","","","","","","","","","",""
"","animation","40","200404","0.0-5.0-13.0-1.0","","","","","","[{""stimulus"":""https://ziweizhang0304.github.io/Stats_learning_trig/img/Stim/FN_016_g.png"",""time"":353.7999999821186},{""stimulus"":""blank"",""time"":663.4000000059605},{""stimulus"":""https://ziweizhang0304.github.io/Stats_learning_trig/img/Stim/FN_017_g.png"",""time"":683.5999999940395},{""stimulus"":""blank"",""time"":992},{""stimulus"":""https://ziweizhang0304.github.io/Stats_learning_trig/img/Stim/FN_013_g.png"",""time"":1021.5},{""stimulus"":""blank"",""time"":1328.0999999940395},{""stimulus"":""https://ziweizhang0304.github.io/Stats_learning_trig/img/Stim/FN_010_g.png"",""time"":1362.7999999821186},{""stimulus"":""blank"",""time"":1668.7999999821186},{""stimulus"":""https://ziweizhang0304.github.io/Stats_learning_trig/img/Stim/FN_021_g.png"",""time"":1716.5},{""stimulus"":""blank"",""time"":2017},{""stimulus"":""https://ziweizhang0304.github.io/Stats_learning_trig/img/Stim/FN_022_g.png"",""time"":2042.7999999821186},{""stimulus"":""blank"",""time"":2348.699999988079},{""stimulus"":""https://ziweizhang0304.github.io/Stats_learning_trig/img/Stim/FN_014_g.png"",""time"":2384.0999999940395},{""stimulus"":""blank"",""time"":2685},{""stimulus"":""https://ziweizhang0304.github.io/Stats_learning_trig/img/Stim/FN_008_g.png"",""time"":2733.7999999821186},{""stimulus"":""blank"",""time"":3040.7999999821186},{""stimulus"":""https://ziweizhang0304.github.io/Stats_learning_trig/img/Stim/FN_012_g.png"",""time"":3063.0999999940395},{""stimulus"":""blank"",""time"":3364.5},{""stimulus"":""https://ziweizhang0304.github.io/Stats_learning_trig/img/Stim/FN_004_g.png"",""time"":3415.5999999940395},{""stimulus"":""blank"",""time"":3717.199999988079},{""stimulus"":""https://ziweizhang0304.github.io/Stats_learning_trig/img/Stim/FN_005_g.png"",""time"":3741.9000000059605},{""stimulus"":""blank"",""time"":4044.5},{""stimulus"":""https://ziweizhang0304.github.io/Stats_learning_trig/img/Stim/FN_007_g.png"",""time"":4083.199999988079},{""stimulus"":""blank"",""time"":4390.5}]","[{""key_press"":32,""rt"":2026.4000000059605,""stimulus"":""blank""}]","309.90000000596046","https://ziweizhang0304.github.io/Stats_learning_trig/img/Stim/FN_021_g.png","post_TD","14","1716.5","2026.4000000059605","slow","5","1","611178113c2efecb1c14a276","","","","","",""
"","image-keyboard-response","41","202176","0.0-5.0-14.0-0.0","1770.5","","","https://ziweizhang0304.github.io/Stats_learning_trig/img/Stim/FN_022_g.png","13","","","","","","","","","","","","","","","","","",""
"","animation","42","206604","0.0-5.0-14.0-1.0","","","","","","[{""stimulus"":""https://ziweizhang0304.github.io/Stats_learning_trig/img/Stim/FN_013_g.png"",""time"":342.30000001192093},{""stimulus"":""blank"",""time"":643.0999999940395},{""stimulus"":""https://ziweizhang0304.github.io/Stats_learning_trig/img/Stim/FN_012_g.png"",""time"":681},{""stimulus"":""blank"",""time"":987.3000000119209},{""stimulus"":""https://ziweizhang0304.github.io/Stats_learning_trig/img/Stim/FN_007_g.png"",""time"":1034.5},{""stimulus"":""blank"",""time"":1346.699999988079},{""stimulus"":""https://ziweizhang0304.github.io/Stats_learning_trig/img/Stim/FN_016_g.png"",""time"":1364},{""stimulus"":""blank"",""time"":1679.800000011921},{""stimulus"":""https://ziweizhang0304.github.io/Stats_learning_trig/img/Stim/FN_010_g.png"",""time"":1702.199999988079},{""stimulus"":""blank"",""time"":2010.4000000059605},{""stimulus"":""https://ziweizhang0304.github.io/Stats_learning_trig/img/Stim/FN_021_g.png"",""time"":2041},{""stimulus"":""blank"",""time"":2347.4000000059605},{""stimulus"":""https://ziweizhang0304.github.io/Stats_learning_trig/img/Stim/FN_022_g.png"",""time"":2383.0999999940395},{""stimulus"":""blank"",""time"":2690.9000000059605},{""stimulus"":""https://ziweizhang0304.github.io/Stats_learning_trig/img/Stim/FN_014_g.png"",""time"":2724.800000011921},{""stimulus"":""blank"",""time"":3038.0999999940395},{""stimulus"":""https://ziweizhang0304.github.io/Stats_learning_trig/img/Stim/FN_008_g.png"",""time"":3063.699999988079},{""stimulus"":""blank"",""time"":3371.0999999940395},{""stimulus"":""https://ziweizhang0304.github.io/Stats_learning_trig/img/Stim/FN_004_g.png"",""time"":3400.9000000059605},{""stimulus"":""blank"",""time"":3714.699999988079},{""stimulus"":""https://ziweizhang0304.github.io/Stats_learning_trig/img/Stim/FN_017_g.png"",""time"":3743.800000011921},{""stimulus"":""blank"",""time"":4050.300000011921},{""stimulus"":""https://ziweizhang0304.github.io/Stats_learning_trig/img/Stim/FN_005_g.png"",""time"":4082.800000011921},{""stimulus"":""blank"",""time"":4392.699999988079}]","[{""key_press"":32,""rt"":2715.2000000178814,""stimulus"":""blank""}]","332.10000002384186","https://ziweizhang0304.github.io/Stats_learning_trig/img/Stim/FN_022_g.png","post_TD","15","2383.0999999940395","2715.2000000178814","slow","7","2","611178113c2efecb1c14a276","","","","","",""
"","image-keyboard-response","43","208078","0.0-5.0-15.0-0.0","1472","","","https://ziweizhang0304.github.io/Stats_learning_trig/img/Stim/FN_022_g.png","13","","","","","","","","","","","","","","","","","",""
"","animation","44","212500","0.0-5.0-15.0-1.0","","","","","","[{""stimulus"":""https://ziweizhang0304.github.io/Stats_learning_trig/img/Stim/FN_004_g.png"",""time"":346.30000001192093},{""stimulus"":""blank"",""time"":653},{""stimulus"":""https://ziweizhang0304.github.io/Stats_learning_trig/img/Stim/FN_013_g.png"",""time"":683},{""stimulus"":""blank"",""time"":993.0999999940395},{""stimulus"":""https://ziweizhang0304.github.io/Stats_learning_trig/img/Stim/FN_016_g.png"",""time"":1025},{""stimulus"":""blank"",""time"":1327.4000000059605},{""stimulus"":""https://ziweizhang0304.github.io/Stats_learning_trig/img/Stim/FN_021_g.png"",""time"":1361.800000011921},{""stimulus"":""blank"",""time"":1669.300000011921},{""stimulus"":""https://ziweizhang0304.github.io/Stats_learning_trig/img/Stim/FN_022_g.png"",""time"":1703.9000000059605},{""stimulus"":""blank"",""time"":2008.9000000059605},{""stimulus"":""https://ziweizhang0304.github.io/Stats_learning_trig/img/Stim/FN_014_g.png"",""time"":2041.5999999940395},{""stimulus"":""blank"",""time"":2349.0999999940395},{""stimulus"":""https://ziweizhang0304.github.io/Stats_learning_trig/img/Stim/FN_008_g.png"",""time"":2384.5999999940395},{""stimulus"":""blank"",""time"":2689.4000000059605},{""stimulus"":""https://ziweizhang0304.github.io/Stats_learning_trig/img/Stim/FN_012_g.png"",""time"":2722},{""stimulus"":""blank"",""time"":3025.0999999940395},{""stimulus"":""https://ziweizhang0304.github.io/Stats_learning_trig/img/Stim/FN_017_g.png"",""time"":3061.300000011921},{""stimulus"":""blank"",""time"":3369.0999999940395},{""stimulus"":""https://ziweizhang0304.github.io/Stats_learning_trig/img/Stim/FN_005_g.png"",""time"":3403.0999999940395},{""stimulus"":""blank"",""time"":3715},{""stimulus"":""https://ziweizhang0304.github.io/Stats_learning_trig/img/Stim/FN_007_g.png"",""time"":3744},{""stimulus"":""blank"",""time"":4053.0999999940395},{""stimulus"":""https://ziweizhang0304.github.io/Stats_learning_trig/img/Stim/FN_010_g.png"",""time"":4085.5999999940395},{""stimulus"":""blank"",""time"":4393.0999999940395}]","[{""key_press"":32,""rt"":2054.0999999940395,""stimulus"":""https://ziweizhang0304.github.io/Stats_learning_trig/img/Stim/FN_014_g.png""}]","350.19999998807907","https://ziweizhang0304.github.io/Stats_learning_trig/img/Stim/FN_022_g.png","post_TD","16","1703.9000000059605","2054.0999999940395","slow","5","2","611178113c2efecb1c14a276","","","","","",""
"","image-keyboard-response","45","214802","0.0-5.0-16.0-0.0","2299.9000000059605","","","https://ziweizhang0304.github.io/Stats_learning_trig/img/Stim/FN_026_g.png","13","","","","","","","","","","","","","","","","","",""
"","animation","46","219225","0.0-5.0-16.0-1.0","","","","","","[{""stimulus"":""https://ziweizhang0304.github.io/Stats_learning_trig/img/Stim/FN_012_g.png"",""time"":354.59999999403954},{""stimulus"":""blank"",""time"":655.2999999821186},{""stimulus"":""https://ziweizhang0304.github.io/Stats_learning_trig/img/Stim/FN_013_g.png"",""time"":683.5},{""stimulus"":""blank"",""time"":995},{""stimulus"":""https://ziweizhang0304.github.io/Stats_learning_trig/img/Stim/FN_008_g.png"",""time"":1022.6999999880791},{""stimulus"":""blank"",""time"":1334.8999999761581},{""stimulus"":""https://ziweizhang0304.github.io/Stats_learning_trig/img/Stim/FN_026_g.png"",""time"":1363.0999999940395},{""stimulus"":""blank"",""time"":1671.199999988079},{""stimulus"":""https://ziweizhang0304.github.io/Stats_learning_trig/img/Stim/FN_023_g.png"",""time"":1701.8999999761581},{""stimulus"":""blank"",""time"":2003.0999999940395},{""stimulus"":""https://ziweizhang0304.github.io/Stats_learning_trig/img/Stim/FN_024_g.png"",""time"":2043.699999988079},{""stimulus"":""blank"",""time"":2354.399999976158},{""stimulus"":""https://ziweizhang0304.github.io/Stats_learning_trig/img/Stim/FN_004_g.png"",""time"":2382.5},{""stimulus"":""blank"",""time"":2707.199999988079},{""stimulus"":""https://ziweizhang0304.github.io/Stats_learning_trig/img/Stim/FN_017_g.png"",""time"":2729.2999999821186},{""stimulus"":""blank"",""time"":3043.899999976158},{""stimulus"":""https://ziweizhang0304.github.io/Stats_learning_trig/img/Stim/FN_016_g.png"",""time"":3064},{""stimulus"":""blank"",""time"":3376.199999988079},{""stimulus"":""https://ziweizhang0304.github.io/Stats_learning_trig/img/Stim/FN_005_g.png"",""time"":3401.699999988079},{""stimulus"":""blank"",""time"":3710.399999976158},{""stimulus"":""https://ziweizhang0304.github.io/Stats_learning_trig/img/Stim/FN_007_g.png"",""time"":3742.699999988079},{""stimulus"":""blank"",""time"":4054},{""stimulus"":""https://ziweizhang0304.github.io/Stats_learning_trig/img/Stim/FN_010_g.png"",""time"":4082.199999988079},{""stimulus"":""blank"",""time"":4393.899999976158}]","[{""key_press"":32,""rt"":1819.2999999821186,""stimulus"":""https://ziweizhang0304.github.io/Stats_learning_trig/img/Stim/FN_023_g.png""}]","456.19999998807907","https://ziweizhang0304.github.io/Stats_learning_trig/img/Stim/FN_026_g.png","post_TD","17","1363.0999999940395","1819.2999999821186","fast","4","1","611178113c2efecb1c14a276","","","","","",""
"","image-keyboard-response","47","221388","0.0-5.0-17.0-0.0","2161.5","","","https://ziweizhang0304.github.io/Stats_learning_trig/img/Stim/FN_024_g.png","13","","","","","","","","","","","","","","","","","",""
"","animation","48","225817","0.0-5.0-17.0-1.0","","","","","","[{""stimulus"":""https://ziweizhang0304.github.io/Stats_learning_trig/img/Stim/FN_008_g.png"",""time"":342.19999998807907},{""stimulus"":""blank"",""time"":647},{""stimulus"":""https://ziweizhang0304.github.io/Stats_learning_trig/img/Stim/FN_013_g.png"",""time"":693.5},{""stimulus"":""blank"",""time"":1008},{""stimulus"":""https://ziweizhang0304.github.io/Stats_learning_trig/img/Stim/FN_010_g.png"",""time"":1022.2999999821186},{""stimulus"":""blank"",""time"":1327.199999988079},{""stimulus"":""https://ziweizhang0304.github.io/Stats_learning_trig/img/Stim/FN_004_g.png"",""time"":1372.699999988079},{""stimulus"":""blank"",""time"":1673.699999988079},{""stimulus"":""https://ziweizhang0304.github.io/Stats_learning_trig/img/Stim/FN_026_g.png"",""time"":1701.8999999761581},{""stimulus"":""blank"",""time"":2008.5},{""stimulus"":""https://ziweizhang0304.github.io/Stats_learning_trig/img/Stim/FN_023_g.png"",""time"":2044.2999999821186},{""stimulus"":""blank"",""time"":2359.899999976158},{""stimulus"":""https://ziweizhang0304.github.io/Stats_learning_trig/img/Stim/FN_024_g.png"",""time"":2384.0999999940395},{""stimulus"":""blank"",""time"":2688.0999999940395},{""stimulus"":""https://ziweizhang0304.github.io/Stats_learning_trig/img/Stim/FN_012_g.png"",""time"":2721.899999976158},{""stimulus"":""blank"",""time"":3033.399999976158},{""stimulus"":""https://ziweizhang0304.github.io/Stats_learning_trig/img/Stim/FN_017_g.png"",""time"":3061.5999999940395},{""stimulus"":""blank"",""time"":3367.0999999940395},{""stimulus"":""https://ziweizhang0304.github.io/Stats_learning_trig/img/Stim/FN_016_g.png"",""time"":3402.5},{""stimulus"":""blank"",""time"":3715.5999999940395},{""stimulus"":""https://ziweizhang0304.github.io/Stats_learning_trig/img/Stim/FN_005_g.png"",""time"":3743.699999988079},{""stimulus"":""blank"",""time"":4047.2999999821186},{""stimulus"":""https://ziweizhang0304.github.io/Stats_learning_trig/img/Stim/FN_007_g.png"",""time"":4081.399999976158},{""stimulus"":""blank"",""time"":4396.0999999940395}]","[{""key_press"":32,""rt"":2703,""stimulus"":""blank""}]","318.90000000596046","https://ziweizhang0304.github.io/Stats_learning_trig/img/Stim/FN_024_g.png","post_TD","18","2384.0999999940395","2703","fast","7","3","611178113c2efecb1c14a276","","","","","",""
"","image-keyboard-response","49","227200","0.0-5.0-18.0-0.0","1381.5999999940395","","","https://ziweizhang0304.github.io/Stats_learning_trig/img/Stim/FN_023_g.png","13","","","","","","","","","","","","","","","","","",""
"","animation","50","231624","0.0-5.0-18.0-1.0","","","","","","[{""stimulus"":""https://ziweizhang0304.github.io/Stats_learning_trig/img/Stim/FN_004_g.png"",""time"":351.60000002384186},{""stimulus"":""blank"",""time"":660.6000000238419},{""stimulus"":""https://ziweizhang0304.github.io/Stats_learning_trig/img/Stim/FN_013_g.png"",""time"":685},{""stimulus"":""blank"",""time"":998.7000000178814},{""stimulus"":""https://ziweizhang0304.github.io/Stats_learning_trig/img/Stim/FN_010_g.png"",""time"":1022.9000000059605},{""stimulus"":""blank"",""time"":1331.5},{""stimulus"":""https://ziweizhang0304.github.io/Stats_learning_trig/img/Stim/FN_007_g.png"",""time"":1363.9000000059605},{""stimulus"":""blank"",""time"":1677.5},{""stimulus"":""https://ziweizhang0304.github.io/Stats_learning_trig/img/Stim/FN_008_g.png"",""time"":1701.7000000178814},{""stimulus"":""blank"",""time"":2017.2000000178814},{""stimulus"":""https://ziweizhang0304.github.io/Stats_learning_trig/img/Stim/FN_012_g.png"",""time"":2042},{""stimulus"":""blank"",""time"":2345.9000000059605},{""stimulus"":""https://ziweizhang0304.github.io/Stats_learning_trig/img/Stim/FN_026_g.png"",""time"":2394.300000011921},{""stimulus"":""blank"",""time"":2704.5},{""stimulus"":""https://ziweizhang0304.github.io/Stats_learning_trig/img/Stim/FN_023_g.png"",""time"":2724.100000023842},{""stimulus"":""blank"",""time"":3036.5},{""stimulus"":""https://ziweizhang0304.github.io/Stats_learning_trig/img/Stim/FN_024_g.png"",""time"":3064.600000023842},{""stimulus"":""blank"",""time"":3366.9000000059605},{""stimulus"":""https://ziweizhang0304.github.io/Stats_learning_trig/img/Stim/FN_017_g.png"",""time"":3410.5},{""stimulus"":""blank"",""time"":3720.4000000059605},{""stimulus"":""https://ziweizhang0304.github.io/Stats_learning_trig/img/Stim/FN_016_g.png"",""time"":3740.600000023842},{""stimulus"":""blank"",""time"":4051.800000011921},{""stimulus"":""https://ziweizhang0304.github.io/Stats_learning_trig/img/Stim/FN_005_g.png"",""time"":4082.7000000178814},{""stimulus"":""blank"",""time"":4398.9000000059605}]","[{""key_press"":32,""rt"":2993.5999999940395,""stimulus"":""https://ziweizhang0304.github.io/Stats_learning_trig/img/Stim/FN_023_g.png""}]","269.4999999701977","https://ziweizhang0304.github.io/Stats_learning_trig/img/Stim/FN_023_g.png","post_TD","19","2724.100000023842","2993.5999999940395","fast","8","2","611178113c2efecb1c14a276","","","","","",""
"","image-keyboard-response","51","232844","0.0-5.0-19.0-0.0","1219.4000000059605","","","https://ziweizhang0304.github.io/Stats_learning_trig/img/Stim/FN_022_g.png","13","","","","","","","","","","","","","","","","","",""
"","animation","52","237265","0.0-5.0-19.0-1.0","","","","","","[{""stimulus"":""https://ziweizhang0304.github.io/Stats_learning_trig/img/Stim/FN_016_g.png"",""time"":343},{""stimulus"":""blank"",""time"":646.5999999940395},{""stimulus"":""https://ziweizhang0304.github.io/Stats_learning_trig/img/Stim/FN_017_g.png"",""time"":695.0999999940395},{""stimulus"":""blank"",""time"":1007.0999999940395},{""stimulus"":""https://ziweizhang0304.github.io/Stats_learning_trig/img/Stim/FN_013_g.png"",""time"":1023.2999999821186},{""stimulus"":""blank"",""time"":1334.699999988079},{""stimulus"":""https://ziweizhang0304.github.io/Stats_learning_trig/img/Stim/FN_010_g.png"",""time"":1362.2999999821186},{""stimulus"":""blank"",""time"":1675.199999988079},{""stimulus"":""https://ziweizhang0304.github.io/Stats_learning_trig/img/Stim/FN_021_g.png"",""time"":1703.3999999761581},{""stimulus"":""blank"",""time"":2005.5999999940395},{""stimulus"":""https://ziweizhang0304.github.io/Stats_learning_trig/img/Stim/FN_022_g.png"",""time"":2056.5999999940395},{""stimulus"":""blank"",""time"":2367.699999988079},{""stimulus"":""https://ziweizhang0304.github.io/Stats_learning_trig/img/Stim/FN_014_g.png"",""time"":2383.899999976158},{""stimulus"":""blank"",""time"":2692.2999999821186},{""stimulus"":""https://ziweizhang0304.github.io/Stats_learning_trig/img/Stim/FN_008_g.png"",""time"":2723.0999999940395},{""stimulus"":""blank"",""time"":3034.399999976158},{""stimulus"":""https://ziweizhang0304.github.io/Stats_learning_trig/img/Stim/FN_012_g.png"",""time"":3061.7999999821186},{""stimulus"":""blank"",""time"":3366.0999999940395},{""stimulus"":""https://ziweizhang0304.github.io/Stats_learning_trig/img/Stim/FN_004_g.png"",""time"":3414.5999999940395},{""stimulus"":""blank"",""time"":3720.699999988079},{""stimulus"":""https://ziweizhang0304.github.io/Stats_learning_trig/img/Stim/FN_005_g.png"",""time"":3752.5},{""stimulus"":""blank"",""time"":4064.5999999940395},{""stimulus"":""https://ziweizhang0304.github.io/Stats_learning_trig/img/Stim/FN_007_g.png"",""time"":4081},{""stimulus"":""blank"",""time"":4384.399999976158}]","[{""key_press"":32,""rt"":2424.7999999821186,""stimulus"":""https://ziweizhang0304.github.io/Stats_learning_trig/img/Stim/FN_014_g.png""}]","368.19999998807907","https://ziweizhang0304.github.io/Stats_learning_trig/img/Stim/FN_022_g.png","post_TD","20","2056.5999999940395","2424.7999999821186","slow","6","2","611178113c2efecb1c14a276","","","","","",""
"","image-keyboard-response","53","238463","0.0-5.0-20.0-0.0","1195","","","https://ziweizhang0304.github.io/Stats_learning_trig/img/Stim/FN_021_g.png","13","","","","","","","","","","","","","","","","","",""
"","animation","54","242888","0.0-5.0-20.0-1.0","","","","","","[{""stimulus"":""https://ziweizhang0304.github.io/Stats_learning_trig/img/Stim/FN_017_g.png"",""time"":345.2000000178814},{""stimulus"":""blank"",""time"":660.9000000059605},{""stimulus"":""https://ziweizhang0304.github.io/Stats_learning_trig/img/Stim/FN_007_g.png"",""time"":681.2000000178814},{""stimulus"":""blank"",""time"":997},{""stimulus"":""https://ziweizhang0304.github.io/Stats_learning_trig/img/Stim/FN_012_g.png"",""time"":1020.8000000119209},{""stimulus"":""blank"",""time"":1332.800000011921},{""stimulus"":""https://ziweizhang0304.github.io/Stats_learning_trig/img/Stim/FN_005_g.png"",""time"":1361.2000000178814},{""stimulus"":""blank"",""time"":1677.0999999940395},{""stimulus"":""https://ziweizhang0304.github.io/Stats_learning_trig/img/Stim/FN_004_g.png"",""time"":1701.5},{""stimulus"":""blank"",""time"":2004.9000000059605},{""stimulus"":""https://ziweizhang0304.github.io/Stats_learning_trig/img/Stim/FN_010_g.png"",""time"":2041.300000011921},{""stimulus"":""blank"",""time"":2351.7000000178814},{""stimulus"":""https://ziweizhang0304.github.io/Stats_learning_trig/img/Stim/FN_021_g.png"",""time"":2383.9000000059605},{""stimulus"":""blank"",""time"":2686.9000000059605},{""stimulus"":""https://ziweizhang0304.github.io/Stats_learning_trig/img/Stim/FN_022_g.png"",""time"":2723.2000000178814},{""stimulus"":""blank"",""time"":3038.9000000059605},{""stimulus"":""https://ziweizhang0304.github.io/Stats_learning_trig/img/Stim/FN_014_g.png"",""time"":3063.2000000178814},{""stimulus"":""blank"",""time"":3370.7000000178814},{""stimulus"":""https://ziweizhang0304.github.io/Stats_learning_trig/img/Stim/FN_008_g.png"",""time"":3403.2000000178814},{""stimulus"":""blank"",""time"":3718.4000000059605},{""stimulus"":""https://ziweizhang0304.github.io/Stats_learning_trig/img/Stim/FN_016_g.png"",""time"":3750.800000011921},{""stimulus"":""blank"",""time"":4065.0999999940395},{""stimulus"":""https://ziweizhang0304.github.io/Stats_learning_trig/img/Stim/FN_013_g.png"",""time"":4081.5},{""stimulus"":""blank"",""time"":4386.800000011921}]","[{""key_press"":32,""rt"":2792.600000023842,""stimulus"":""https://ziweizhang0304.github.io/Stats_learning_trig/img/Stim/FN_022_g.png""}]","408.7000000178814","https://ziweizhang0304.github.io/Stats_learning_trig/img/Stim/FN_021_g.png","post_TD","21","2383.9000000059605","2792.600000023842","slow","7","1","611178113c2efecb1c14a276","","","","","",""
"","image-keyboard-response","55","244971","0.0-5.0-21.0-0.0","2082.300000011921","","","https://ziweizhang0304.github.io/Stats_learning_trig/img/Stim/FN_026_g.png","13","","","","","","","","","","","","","","","","","",""
"","animation","56","249396","0.0-5.0-21.0-1.0","","","","","","[{""stimulus"":""https://ziweizhang0304.github.io/Stats_learning_trig/img/Stim/FN_004_g.png"",""time"":347.5},{""stimulus"":""blank"",""time"":656.9000000059605},{""stimulus"":""https://ziweizhang0304.github.io/Stats_learning_trig/img/Stim/FN_013_g.png"",""time"":685.0999999940395},{""stimulus"":""blank"",""time"":1003.4000000059605},{""stimulus"":""https://ziweizhang0304.github.io/Stats_learning_trig/img/Stim/FN_010_g.png"",""time"":1023.8000000119209},{""stimulus"":""blank"",""time"":1337.800000011921},{""stimulus"":""https://ziweizhang0304.github.io/Stats_learning_trig/img/Stim/FN_007_g.png"",""time"":1361.300000011921},{""stimulus"":""blank"",""time"":1670.5999999940395},{""stimulus"":""https://ziweizhang0304.github.io/Stats_learning_trig/img/Stim/FN_008_g.png"",""time"":1701},{""stimulus"":""blank"",""time"":2008.800000011921},{""stimulus"":""https://ziweizhang0304.github.io/Stats_learning_trig/img/Stim/FN_012_g.png"",""time"":2041.5999999940395},{""stimulus"":""blank"",""time"":2352.5},{""stimulus"":""https://ziweizhang0304.github.io/Stats_learning_trig/img/Stim/FN_026_g.png"",""time"":2385.0999999940395},{""stimulus"":""blank"",""time"":2692.199999988079},{""stimulus"":""https://ziweizhang0304.github.io/Stats_learning_trig/img/Stim/FN_023_g.png"",""time"":2725.0999999940395},{""stimulus"":""blank"",""time"":3034.5},{""stimulus"":""https://ziweizhang0304.github.io/Stats_learning_trig/img/Stim/FN_024_g.png"",""time"":3060.9000000059605},{""stimulus"":""blank"",""time"":3369.800000011921},{""stimulus"":""https://ziweizhang0304.github.io/Stats_learning_trig/img/Stim/FN_017_g.png"",""time"":3401.300000011921},{""stimulus"":""blank"",""time"":3717.5999999940395},{""stimulus"":""https://ziweizhang0304.github.io/Stats_learning_trig/img/Stim/FN_016_g.png"",""time"":3744.0999999940395},{""stimulus"":""blank"",""time"":4054.699999988079},{""stimulus"":""https://ziweizhang0304.github.io/Stats_learning_trig/img/Stim/FN_005_g.png"",""time"":4082.5},{""stimulus"":""blank"",""time"":4388.199999988079}]","[{""key_press"":32,""rt"":2693.800000011921,""stimulus"":""blank""}]","308.7000000178814","https://ziweizhang0304.github.io/Stats_learning_trig/img/Stim/FN_026_g.png","post_TD","22","2385.0999999940395","2693.800000011921","fast","7","1","611178113c2efecb1c14a276","","","","","",""
"","image-keyboard-response","57","250943","0.0-5.0-22.0-0.0","1544.2000000178814","","","https://ziweizhang0304.github.io/Stats_learning_trig/img/Stim/FN_014_g.png","13","","","","","","","","","","","","","","","","","",""
"","animation","58","255376","0.0-5.0-22.0-1.0","","","","","","[{""stimulus"":""https://ziweizhang0304.github.io/Stats_learning_trig/img/Stim/FN_004_g.png"",""time"":341.80000001192093},{""stimulus"":""blank"",""time"":643.6000000238419},{""stimulus"":""https://ziweizhang0304.github.io/Stats_learning_trig/img/Stim/FN_013_g.png"",""time"":681.2000000178814},{""stimulus"":""blank"",""time"":991.8000000119209},{""stimulus"":""https://ziweizhang0304.github.io/Stats_learning_trig/img/Stim/FN_016_g.png"",""time"":1021.2000000178814},{""stimulus"":""blank"",""time"":1327.5},{""stimulus"":""https://ziweizhang0304.github.io/Stats_learning_trig/img/Stim/FN_021_g.png"",""time"":1362.4000000059605},{""stimulus"":""blank"",""time"":1666.7000000178814},{""stimulus"":""https://ziweizhang0304.github.io/Stats_learning_trig/img/Stim/FN_022_g.png"",""time"":1704.300000011921},{""stimulus"":""blank"",""time"":2011.7000000178814},{""stimulus"":""https://ziweizhang0304.github.io/Stats_learning_trig/img/Stim/FN_014_g.png"",""time"":2043.9000000059605},{""stimulus"":""blank"",""time"":2344.4000000059605},{""stimulus"":""https://ziweizhang0304.github.io/Stats_learning_trig/img/Stim/FN_008_g.png"",""time"":2386.2000000178814},{""stimulus"":""blank"",""time"":2696.100000023842},{""stimulus"":""https://ziweizhang0304.github.io/Stats_learning_trig/img/Stim/FN_012_g.png"",""time"":2720.800000011921},{""stimulus"":""blank"",""time"":3029.9000000059605},{""stimulus"":""https://ziweizhang0304.github.io/Stats_learning_trig/img/Stim/FN_017_g.png"",""time"":3065.300000011921},{""stimulus"":""blank"",""time"":3371.5},{""stimulus"":""https://ziweizhang0304.github.io/Stats_learning_trig/img/Stim/FN_005_g.png"",""time"":3400.9000000059605},{""stimulus"":""blank"",""time"":3704.600000023842},{""stimulus"":""https://ziweizhang0304.github.io/Stats_learning_trig/img/Stim/FN_007_g.png"",""time"":3744.600000023842},{""stimulus"":""blank"",""time"":4053.300000011921},{""stimulus"":""https://ziweizhang0304.github.io/Stats_learning_trig/img/Stim/FN_010_g.png"",""time"":4083.800000011921},{""stimulus"":""blank"",""time"":4384.4000000059605}]","[{""key_press"":32,""rt"":2376.699999988079,""stimulus"":""blank""}]","332.7999999821186","https://ziweizhang0304.github.io/Stats_learning_trig/img/Stim/FN_014_g.png","post_TD","23","2043.9000000059605","2376.699999988079","slow","6","3","611178113c2efecb1c14a276","","","","","",""
"","image-keyboard-response","59","257464","0.0-5.0-23.0-0.0","2086.699999988079","","","https://ziweizhang0304.github.io/Stats_learning_trig/img/Stim/FN_026_g.png","13","","","","","","","","","","","","","","","","","",""
"","animation","60","261887","0.0-5.0-23.0-1.0","","","","","","[{""stimulus"":""https://ziweizhang0304.github.io/Stats_learning_trig/img/Stim/FN_010_g.png"",""time"":350.90000000596046},{""stimulus"":""blank"",""time"":652.5999999940395},{""stimulus"":""https://ziweizhang0304.github.io/Stats_learning_trig/img/Stim/FN_017_g.png"",""time"":680.7999999821186},{""stimulus"":""blank"",""time"":983.9000000059605},{""stimulus"":""https://ziweizhang0304.github.io/Stats_learning_trig/img/Stim/FN_013_g.png"",""time"":1027.5},{""stimulus"":""blank"",""time"":1330.4000000059605},{""stimulus"":""https://ziweizhang0304.github.io/Stats_learning_trig/img/Stim/FN_004_g.png"",""time"":1374.699999988079},{""stimulus"":""blank"",""time"":1676.5999999940395},{""stimulus"":""https://ziweizhang0304.github.io/Stats_learning_trig/img/Stim/FN_012_g.png"",""time"":1700.9000000059605},{""stimulus"":""blank"",""time"":2001.5999999940395},{""stimulus"":""https://ziweizhang0304.github.io/Stats_learning_trig/img/Stim/FN_026_g.png"",""time"":2044.2999999821186},{""stimulus"":""blank"",""time"":2346.0999999940395},{""stimulus"":""https://ziweizhang0304.github.io/Stats_learning_trig/img/Stim/FN_023_g.png"",""time"":2394.5},{""stimulus"":""blank"",""time"":2706.5},{""stimulus"":""https://ziweizhang0304.github.io/Stats_learning_trig/img/Stim/FN_024_g.png"",""time"":2722.7999999821186},{""stimulus"":""blank"",""time"":3030.2999999821186},{""stimulus"":""https://ziweizhang0304.github.io/Stats_learning_trig/img/Stim/FN_008_g.png"",""time"":3062.5},{""stimulus"":""blank"",""time"":3369.7999999821186},{""stimulus"":""https://ziweizhang0304.github.io/Stats_learning_trig/img/Stim/FN_016_g.png"",""time"":3414.7999999821186},{""stimulus"":""blank"",""time"":3718.7999999821186},{""stimulus"":""https://ziweizhang0304.github.io/Stats_learning_trig/img/Stim/FN_005_g.png"",""time"":3748},{""stimulus"":""blank"",""time"":4051.2999999821186},{""stimulus"":""https://ziweizhang0304.github.io/Stats_learning_trig/img/Stim/FN_007_g.png"",""time"":4081.5},{""stimulus"":""blank"",""time"":4402.199999988079}]","[{""key_press"":32,""rt"":2405,""stimulus"":""https://ziweizhang0304.github.io/Stats_learning_trig/img/Stim/FN_023_g.png""}]","360.7000000178814","https://ziweizhang0304.github.io/Stats_learning_trig/img/Stim/FN_026_g.png","post_TD","24","2044.2999999821186","2405","fast","6","1","611178113c2efecb1c14a276","2f143","","","","",""
"","survey-text","61","299608","0.0-6.0","37715.5","","","","","","","","","","","","","","","","","","{""Q0"":""I related the shapes to things I commonly see in order to remember them better""}","","","",""
"","survey-text","62","385090","0.0-7.0","85480.10000002384","","","","","","","","","","","","","","","","","","{""[object Object]"":""I didn't really notice much, but most of them tended to be basic geometric shapes put together""}","","","",""
"","instructions","63","400655","0.0-8.0","15564.40000000596","","[{""page_index"":0,""viewing_time"":15563.90000000596}]","","","","","","","","","","","","","","","","","","","",""
"","free-sort","64","419816","0.0-9.0","19159","","","","","","","","","post_drag","","","","fast","","","","","","[{""src"":""https://ziweizhang0304.github.io/Stats_learning_trig/img/Stim/FN_026_g.png"",""x"":475,""y"":0},{""src"":""https://ziweizhang0304.github.io/Stats_learning_trig/img/Stim/FN_024_g.png"",""x"":-225,""y"":50},{""src"":""https://ziweizhang0304.github.io/Stats_learning_trig/img/Stim/FN_023_g.png"",""x"":475,""y"":50}]","[{""src"":""https://ziweizhang0304.github.io/Stats_learning_trig/img/Stim/FN_026_g.png"",""x"":126,""y"":18},{""src"":""https://ziweizhang0304.github.io/Stats_learning_trig/img/Stim/FN_023_g.png"",""x"":212,""y"":19},{""src"":""https://ziweizhang0304.github.io/Stats_learning_trig/img/Stim/FN_026_g.png"",""x"":32,""y"":26},{""src"":""https://ziweizhang0304.github.io/Stats_learning_trig/img/Stim/FN_023_g.png"",""x"":119,""y"":19},{""src"":""https://ziweizhang0304.github.io/Stats_learning_trig/img/Stim/FN_024_g.png"",""x"":221,""y"":28}]","[{""src"":""https://ziweizhang0304.github.io/Stats_learning_trig/img/Stim/FN_026_g.png"",""x"":32,""y"":26},{""src"":""https://ziweizhang0304.github.io/Stats_learning_trig/img/Stim/FN_024_g.png"",""x"":221,""y"":28},{""src"":""https://ziweizhang0304.github.io/Stats_learning_trig/img/Stim/FN_023_g.png"",""x"":119,""y"":19}]",""
"","free-sort","65","434292","0.0-10.0","14474.299999982119","","","","","","","","","post_drag","","","","slow","","","","","","[{""src"":""https://ziweizhang0304.github.io/Stats_learning_trig/img/Stim/FN_022_g.png"",""x"":475,""y"":0},{""src"":""https://ziweizhang0304.github.io/Stats_learning_trig/img/Stim/FN_014_g.png"",""x"":-225,""y"":50},{""src"":""https://ziweizhang0304.github.io/Stats_learning_trig/img/Stim/FN_021_g.png"",""x"":475,""y"":50}]","[{""src"":""https://ziweizhang0304.github.io/Stats_learning_trig/img/Stim/FN_021_g.png"",""x"":38,""y"":21},{""src"":""https://ziweizhang0304.github.io/Stats_learning_trig/img/Stim/FN_014_g.png"",""x"":137,""y"":25},{""src"":""https://ziweizhang0304.github.io/Stats_learning_trig/img/Stim/FN_022_g.png"",""x"":250,""y"":24},{""src"":""https://ziweizhang0304.github.io/Stats_learning_trig/img/Stim/FN_022_g.png"",""x"":232,""y"":24}]","[{""src"":""https://ziweizhang0304.github.io/Stats_learning_trig/img/Stim/FN_022_g.png"",""x"":232,""y"":24},{""src"":""https://ziweizhang0304.github.io/Stats_learning_trig/img/Stim/FN_014_g.png"",""x"":137,""y"":25},{""src"":""https://ziweizhang0304.github.io/Stats_learning_trig/img/Stim/FN_021_g.png"",""x"":38,""y"":21}]",""
"","survey-multi-choice","66","442514","0.0-11.0","8216.59999999404","","","","","","","","","","","","","","","","611178113c2efecb1c14a276","","{""awareness"":""No"",""attention_check"":""Press SPACEBAR to a target""}","","","","[0,1]"
