"success","trial_type","trial_index","time_elapsed","internal_node_id","rt","url","view_history","stimulus","key_press","animation_sequence","response","TD_rt","TD_target","test_part","TD_trial_number","onset","offset","attention_state","TD_target_position","TD_within_triplet_counter","participant","yoke_participant","responses","init_locations","moves","final_locations","question_order"
"true","fullscreen","0","2567","0.0-0.0","","","","","","","","","","","","","","","","","","","","","","",""
"","external-html","1","20837","0.0-1.0","18169","https://ziweizhang0304.github.io/Stats_learning_trig/content/consent.html","","","","","","","","","","","","","","","","","","","","",""
"","instructions","2","47108","0.0-2.0","26262","","[{""page_index"":0,""viewing_time"":2749},{""page_index"":1,""viewing_time"":10024},{""page_index"":2,""viewing_time"":11076},{""page_index"":3,""viewing_time"":2413}]","","","","","","","","","","","","","","","","","","","",""
"","image-keyboard-response","3","52904","0.0-3.0-0.0-0.0","5793","","","https://ziweizhang0304.github.io/Stats_learning_trig/img/Stim/FN_005_g.png","13","","","","","","","","","","","","","","","","","",""
"","animation","4","57441","0.0-3.0-0.0-1.0","","","","","","[{""stimulus"":""https://ziweizhang0304.github.io/Stats_learning_trig/img/Stim/FN_018_g.png"",""time"":354},{""stimulus"":""blank"",""time"":655},{""stimulus"":""https://ziweizhang0304.github.io/Stats_learning_trig/img/Stim/FN_008_g.png"",""time"":687},{""stimulus"":""blank"",""time"":996},{""stimulus"":""https://ziweizhang0304.github.io/Stats_learning_trig/img/Stim/FN_012_g.png"",""time"":1037},{""stimulus"":""blank"",""time"":1346},{""stimulus"":""https://ziweizhang0304.github.io/Stats_learning_trig/img/Stim/FN_005_g.png"",""time"":1387},{""stimulus"":""blank"",""time"":1696},{""stimulus"":""https://ziweizhang0304.github.io/Stats_learning_trig/img/Stim/FN_015_g.png"",""time"":1738},{""stimulus"":""blank"",""time"":2047},{""stimulus"":""https://ziweizhang0304.github.io/Stats_learning_trig/img/Stim/FN_023_g.png"",""time"":2087},{""stimulus"":""blank"",""time"":2396},{""stimulus"":""https://ziweizhang0304.github.io/Stats_learning_trig/img/Stim/FN_017_g.png"",""time"":2438},{""stimulus"":""blank"",""time"":2746},{""stimulus"":""https://ziweizhang0304.github.io/Stats_learning_trig/img/Stim/FN_019_g.png"",""time"":2787},{""stimulus"":""blank"",""time"":3096},{""stimulus"":""https://ziweizhang0304.github.io/Stats_learning_trig/img/Stim/FN_002_g.png"",""time"":3138},{""stimulus"":""blank"",""time"":3447},{""stimulus"":""https://ziweizhang0304.github.io/Stats_learning_trig/img/Stim/FN_003_g.png"",""time"":3488},{""stimulus"":""blank"",""time"":3796},{""stimulus"":""https://ziweizhang0304.github.io/Stats_learning_trig/img/Stim/FN_020_g.png"",""time"":3838},{""stimulus"":""blank"",""time"":4146},{""stimulus"":""https://ziweizhang0304.github.io/Stats_learning_trig/img/Stim/FN_025_g.png"",""time"":4188},{""stimulus"":""blank"",""time"":4496}]","[{""key_press"":32,""rt"":1822,""stimulus"":""https://ziweizhang0304.github.io/Stats_learning_trig/img/Stim/FN_015_g.png""}]","435","https://ziweizhang0304.github.io/Stats_learning_trig/img/Stim/FN_005_g.png","post_prac","","","","","","","","","","","","",""
"","html-keyboard-response","5","63006","0.0-3.0-0.0-2.0","5561","","","<p>Your reaction time for this trial was 435 ms.</p><p>Remember that you should only press the SPACEBAR when you see the shape presented at the beginning of the trial. </b> </p><p>Press enter to move on.</p>","13","","","","","","","","","","","","","","","","","",""
"","image-keyboard-response","6","66480","0.0-3.0-1.0-0.0","3473","","","https://ziweizhang0304.github.io/Stats_learning_trig/img/Stim/FN_023_g.png","13","","","","","","","","","","","","","","","","","",""
"","animation","7","70971","0.0-3.0-1.0-1.0","","","","","","[{""stimulus"":""https://ziweizhang0304.github.io/Stats_learning_trig/img/Stim/FN_015_g.png"",""time"":341},{""stimulus"":""blank"",""time"":650},{""stimulus"":""https://ziweizhang0304.github.io/Stats_learning_trig/img/Stim/FN_020_g.png"",""time"":687},{""stimulus"":""blank"",""time"":990},{""stimulus"":""https://ziweizhang0304.github.io/Stats_learning_trig/img/Stim/FN_017_g.png"",""time"":1030},{""stimulus"":""blank"",""time"":1340},{""stimulus"":""https://ziweizhang0304.github.io/Stats_learning_trig/img/Stim/FN_012_g.png"",""time"":1381},{""stimulus"":""blank"",""time"":1690},{""stimulus"":""https://ziweizhang0304.github.io/Stats_learning_trig/img/Stim/FN_002_g.png"",""time"":1721},{""stimulus"":""blank"",""time"":2030},{""stimulus"":""https://ziweizhang0304.github.io/Stats_learning_trig/img/Stim/FN_023_g.png"",""time"":2069},{""stimulus"":""blank"",""time"":2370},{""stimulus"":""https://ziweizhang0304.github.io/Stats_learning_trig/img/Stim/FN_005_g.png"",""time"":2419},{""stimulus"":""blank"",""time"":2719},{""stimulus"":""https://ziweizhang0304.github.io/Stats_learning_trig/img/Stim/FN_018_g.png"",""time"":2761},{""stimulus"":""blank"",""time"":3070},{""stimulus"":""https://ziweizhang0304.github.io/Stats_learning_trig/img/Stim/FN_019_g.png"",""time"":3101},{""stimulus"":""blank"",""time"":3410},{""stimulus"":""https://ziweizhang0304.github.io/Stats_learning_trig/img/Stim/FN_003_g.png"",""time"":3451},{""stimulus"":""blank"",""time"":3760},{""stimulus"":""https://ziweizhang0304.github.io/Stats_learning_trig/img/Stim/FN_008_g.png"",""time"":3792},{""stimulus"":""blank"",""time"":4100},{""stimulus"":""https://ziweizhang0304.github.io/Stats_learning_trig/img/Stim/FN_025_g.png"",""time"":4141},{""stimulus"":""blank"",""time"":4449}]","[{""key_press"":32,""rt"":2483,""stimulus"":""https://ziweizhang0304.github.io/Stats_learning_trig/img/Stim/FN_005_g.png""}]","414","https://ziweizhang0304.github.io/Stats_learning_trig/img/Stim/FN_023_g.png","post_prac","","","","","","","","","","","","",""
"","html-keyboard-response","8","75181","0.0-3.0-1.0-2.0","4205","","","<p>Your reaction time for this trial was 414 ms.</p><p>Remember that you should only press the SPACEBAR when you see the shape presented at the beginning of the trial. </b> </p><p>Press enter to move on.</p>","13","","","","","","","","","","","","","","","","","",""
"","image-keyboard-response","9","78890","0.0-3.0-2.0-0.0","3707","","","https://ziweizhang0304.github.io/Stats_learning_trig/img/Stim/FN_013_g.png","13","","","","","","","","","","","","","","","","","",""
"","animation","10","83380","0.0-3.0-2.0-1.0","","","","","","[{""stimulus"":""https://ziweizhang0304.github.io/Stats_learning_trig/img/Stim/FN_015_g.png"",""time"":350},{""stimulus"":""blank"",""time"":660},{""stimulus"":""https://ziweizhang0304.github.io/Stats_learning_trig/img/Stim/FN_019_g.png"",""time"":691},{""stimulus"":""blank"",""time"":1001},{""stimulus"":""https://ziweizhang0304.github.io/Stats_learning_trig/img/Stim/FN_017_g.png"",""time"":1031},{""stimulus"":""blank"",""time"":1340},{""stimulus"":""https://ziweizhang0304.github.io/Stats_learning_trig/img/Stim/FN_014_g.png"",""time"":1372},{""stimulus"":""blank"",""time"":1680},{""stimulus"":""https://ziweizhang0304.github.io/Stats_learning_trig/img/Stim/FN_022_g.png"",""time"":1711},{""stimulus"":""blank"",""time"":2020},{""stimulus"":""https://ziweizhang0304.github.io/Stats_learning_trig/img/Stim/FN_013_g.png"",""time"":2052},{""stimulus"":""blank"",""time"":2361},{""stimulus"":""https://ziweizhang0304.github.io/Stats_learning_trig/img/Stim/FN_020_g.png"",""time"":2411},{""stimulus"":""blank"",""time"":2720},{""stimulus"":""https://ziweizhang0304.github.io/Stats_learning_trig/img/Stim/FN_018_g.png"",""time"":2761},{""stimulus"":""blank"",""time"":3071},{""stimulus"":""https://ziweizhang0304.github.io/Stats_learning_trig/img/Stim/FN_003_g.png"",""time"":3101},{""stimulus"":""blank"",""time"":3410},{""stimulus"":""https://ziweizhang0304.github.io/Stats_learning_trig/img/Stim/FN_012_g.png"",""time"":3450},{""stimulus"":""blank"",""time"":3760},{""stimulus"":""https://ziweizhang0304.github.io/Stats_learning_trig/img/Stim/FN_008_g.png"",""time"":3791},{""stimulus"":""blank"",""time"":4101},{""stimulus"":""https://ziweizhang0304.github.io/Stats_learning_trig/img/Stim/FN_025_g.png"",""time"":4141},{""stimulus"":""blank"",""time"":4451}]","[{""key_press"":32,""rt"":2458,""stimulus"":""https://ziweizhang0304.github.io/Stats_learning_trig/img/Stim/FN_020_g.png""}]","406","https://ziweizhang0304.github.io/Stats_learning_trig/img/Stim/FN_013_g.png","post_prac","","","","","","","","","","","","",""
"","html-keyboard-response","11","86108","0.0-3.0-2.0-2.0","2723","","","<p>Your reaction time for this trial was 406 ms.</p><p>Remember that you should only press the SPACEBAR when you see the shape presented at the beginning of the trial. </b> </p><p>Press enter to move on.</p>","13","","","","","","","","","","","","","","","","","",""
"","instructions","12","88884","0.0-4.0","2775","","[{""page_index"":0,""viewing_time"":2775}]","","","","","","","","","","","","","","","","","","","",""
"","image-keyboard-response","13","93506","0.0-5.0-0.0-0.0","4621","","","https://ziweizhang0304.github.io/Stats_learning_trig/img/Stim/FN_005_g.png","13","","","","","","","","","","","","","","","","","",""
"","animation","14","98021","0.0-5.0-0.0-1.0","","","","","","[{""stimulus"":""https://ziweizhang0304.github.io/Stats_learning_trig/img/Stim/FN_015_g.png"",""time"":354},{""stimulus"":""blank"",""time"":660},{""stimulus"":""https://ziweizhang0304.github.io/Stats_learning_trig/img/Stim/FN_020_g.png"",""time"":695},{""stimulus"":""blank"",""time"":1004},{""stimulus"":""https://ziweizhang0304.github.io/Stats_learning_trig/img/Stim/FN_017_g.png"",""time"":1044},{""stimulus"":""blank"",""time"":1345},{""stimulus"":""https://ziweizhang0304.github.io/Stats_learning_trig/img/Stim/FN_012_g.png"",""time"":1394},{""stimulus"":""blank"",""time"":1704},{""stimulus"":""https://ziweizhang0304.github.io/Stats_learning_trig/img/Stim/FN_002_g.png"",""time"":1735},{""stimulus"":""blank"",""time"":2044},{""stimulus"":""https://ziweizhang0304.github.io/Stats_learning_trig/img/Stim/FN_023_g.png"",""time"":2075},{""stimulus"":""blank"",""time"":2384},{""stimulus"":""https://ziweizhang0304.github.io/Stats_learning_trig/img/Stim/FN_005_g.png"",""time"":2425},{""stimulus"":""blank"",""time"":2734},{""stimulus"":""https://ziweizhang0304.github.io/Stats_learning_trig/img/Stim/FN_018_g.png"",""time"":2765},{""stimulus"":""blank"",""time"":3075},{""stimulus"":""https://ziweizhang0304.github.io/Stats_learning_trig/img/Stim/FN_019_g.png"",""time"":3115},{""stimulus"":""blank"",""time"":3425},{""stimulus"":""https://ziweizhang0304.github.io/Stats_learning_trig/img/Stim/FN_003_g.png"",""time"":3465},{""stimulus"":""blank"",""time"":3784},{""stimulus"":""https://ziweizhang0304.github.io/Stats_learning_trig/img/Stim/FN_008_g.png"",""time"":3815},{""stimulus"":""blank"",""time"":4124},{""stimulus"":""https://ziweizhang0304.github.io/Stats_learning_trig/img/Stim/FN_025_g.png"",""time"":4165},{""stimulus"":""blank"",""time"":4474}]","[{""key_press"":32,""rt"":2826,""stimulus"":""https://ziweizhang0304.github.io/Stats_learning_trig/img/Stim/FN_018_g.png""}]","401","https://ziweizhang0304.github.io/Stats_learning_trig/img/Stim/FN_005_g.png","post_TD","1","2425","2826","fast","7","3","5c223d4a4a7e1f000137e5b9","","","","","",""
"","image-keyboard-response","15","99968","0.0-5.0-1.0-0.0","1944","","","https://ziweizhang0304.github.io/Stats_learning_trig/img/Stim/FN_022_g.png","13","","","","","","","","","","","","","","","","","",""
"","animation","16","104460","0.0-5.0-1.0-1.0","","","","","","[{""stimulus"":""https://ziweizhang0304.github.io/Stats_learning_trig/img/Stim/FN_015_g.png"",""time"":343},{""stimulus"":""blank"",""time"":652},{""stimulus"":""https://ziweizhang0304.github.io/Stats_learning_trig/img/Stim/FN_019_g.png"",""time"":684},{""stimulus"":""blank"",""time"":992},{""stimulus"":""https://ziweizhang0304.github.io/Stats_learning_trig/img/Stim/FN_017_g.png"",""time"":1032},{""stimulus"":""blank"",""time"":1342},{""stimulus"":""https://ziweizhang0304.github.io/Stats_learning_trig/img/Stim/FN_014_g.png"",""time"":1373},{""stimulus"":""blank"",""time"":1682},{""stimulus"":""https://ziweizhang0304.github.io/Stats_learning_trig/img/Stim/FN_022_g.png"",""time"":1717},{""stimulus"":""blank"",""time"":2022},{""stimulus"":""https://ziweizhang0304.github.io/Stats_learning_trig/img/Stim/FN_013_g.png"",""time"":2062},{""stimulus"":""blank"",""time"":2372},{""stimulus"":""https://ziweizhang0304.github.io/Stats_learning_trig/img/Stim/FN_020_g.png"",""time"":2413},{""stimulus"":""blank"",""time"":2722},{""stimulus"":""https://ziweizhang0304.github.io/Stats_learning_trig/img/Stim/FN_018_g.png"",""time"":2753},{""stimulus"":""blank"",""time"":3062},{""stimulus"":""https://ziweizhang0304.github.io/Stats_learning_trig/img/Stim/FN_003_g.png"",""time"":3092},{""stimulus"":""blank"",""time"":3400},{""stimulus"":""https://ziweizhang0304.github.io/Stats_learning_trig/img/Stim/FN_012_g.png"",""time"":3443},{""stimulus"":""blank"",""time"":3753},{""stimulus"":""https://ziweizhang0304.github.io/Stats_learning_trig/img/Stim/FN_008_g.png"",""time"":3793},{""stimulus"":""blank"",""time"":4102},{""stimulus"":""https://ziweizhang0304.github.io/Stats_learning_trig/img/Stim/FN_025_g.png"",""time"":4143},{""stimulus"":""blank"",""time"":4452}]","[{""key_press"":32,""rt"":2099,""stimulus"":""https://ziweizhang0304.github.io/Stats_learning_trig/img/Stim/FN_013_g.png""}]","382","https://ziweizhang0304.github.io/Stats_learning_trig/img/Stim/FN_022_g.png","post_TD","2","1717","2099","slow","5","2","5c223d4a4a7e1f000137e5b9","","","","","",""
"","image-keyboard-response","17","106062","0.0-5.0-2.0-0.0","1599","","","https://ziweizhang0304.github.io/Stats_learning_trig/img/Stim/FN_022_g.png","13","","","","","","","","","","","","","","","","","",""
"","animation","18","110591","0.0-5.0-2.0-1.0","","","","","","[{""stimulus"":""https://ziweizhang0304.github.io/Stats_learning_trig/img/Stim/FN_015_g.png"",""time"":349},{""stimulus"":""blank"",""time"":658},{""stimulus"":""https://ziweizhang0304.github.io/Stats_learning_trig/img/Stim/FN_008_g.png"",""time"":699},{""stimulus"":""blank"",""time"":1008},{""stimulus"":""https://ziweizhang0304.github.io/Stats_learning_trig/img/Stim/FN_025_g.png"",""time"":1059},{""stimulus"":""blank"",""time"":1367},{""stimulus"":""https://ziweizhang0304.github.io/Stats_learning_trig/img/Stim/FN_012_g.png"",""time"":1399},{""stimulus"":""blank"",""time"":1708},{""stimulus"":""https://ziweizhang0304.github.io/Stats_learning_trig/img/Stim/FN_014_g.png"",""time"":1749},{""stimulus"":""blank"",""time"":2058},{""stimulus"":""https://ziweizhang0304.github.io/Stats_learning_trig/img/Stim/FN_022_g.png"",""time"":2088},{""stimulus"":""blank"",""time"":2398},{""stimulus"":""https://ziweizhang0304.github.io/Stats_learning_trig/img/Stim/FN_013_g.png"",""time"":2432},{""stimulus"":""blank"",""time"":2738},{""stimulus"":""https://ziweizhang0304.github.io/Stats_learning_trig/img/Stim/FN_017_g.png"",""time"":2779},{""stimulus"":""blank"",""time"":3089},{""stimulus"":""https://ziweizhang0304.github.io/Stats_learning_trig/img/Stim/FN_020_g.png"",""time"":3128},{""stimulus"":""blank"",""time"":3428},{""stimulus"":""https://ziweizhang0304.github.io/Stats_learning_trig/img/Stim/FN_018_g.png"",""time"":3479},{""stimulus"":""blank"",""time"":3788},{""stimulus"":""https://ziweizhang0304.github.io/Stats_learning_trig/img/Stim/FN_019_g.png"",""time"":3829},{""stimulus"":""blank"",""time"":4138},{""stimulus"":""https://ziweizhang0304.github.io/Stats_learning_trig/img/Stim/FN_003_g.png"",""time"":4179},{""stimulus"":""blank"",""time"":4488}]","[{""key_press"":32,""rt"":2439,""stimulus"":""https://ziweizhang0304.github.io/Stats_learning_trig/img/Stim/FN_013_g.png""}]","351","https://ziweizhang0304.github.io/Stats_learning_trig/img/Stim/FN_022_g.png","post_TD","3","2088","2439","slow","6","2","5c223d4a4a7e1f000137e5b9","","","","","",""
"","image-keyboard-response","19","112744","0.0-5.0-3.0-0.0","2152","","","https://ziweizhang0304.github.io/Stats_learning_trig/img/Stim/FN_013_g.png","13","","","","","","","","","","","","","","","","","",""
"","animation","20","117261","0.0-5.0-3.0-1.0","","","","","","[{""stimulus"":""https://ziweizhang0304.github.io/Stats_learning_trig/img/Stim/FN_003_g.png"",""time"":342},{""stimulus"":""blank"",""time"":645},{""stimulus"":""https://ziweizhang0304.github.io/Stats_learning_trig/img/Stim/FN_017_g.png"",""time"":697},{""stimulus"":""blank"",""time"":1007},{""stimulus"":""https://ziweizhang0304.github.io/Stats_learning_trig/img/Stim/FN_020_g.png"",""time"":1046},{""stimulus"":""blank"",""time"":1356},{""stimulus"":""https://ziweizhang0304.github.io/Stats_learning_trig/img/Stim/FN_008_g.png"",""time"":1396},{""stimulus"":""blank"",""time"":1706},{""stimulus"":""https://ziweizhang0304.github.io/Stats_learning_trig/img/Stim/FN_019_g.png"",""time"":1745},{""stimulus"":""blank"",""time"":2056},{""stimulus"":""https://ziweizhang0304.github.io/Stats_learning_trig/img/Stim/FN_014_g.png"",""time"":2095},{""stimulus"":""blank"",""time"":2396},{""stimulus"":""https://ziweizhang0304.github.io/Stats_learning_trig/img/Stim/FN_022_g.png"",""time"":2437},{""stimulus"":""blank"",""time"":2753},{""stimulus"":""https://ziweizhang0304.github.io/Stats_learning_trig/img/Stim/FN_013_g.png"",""time"":2779},{""stimulus"":""blank"",""time"":3096},{""stimulus"":""https://ziweizhang0304.github.io/Stats_learning_trig/img/Stim/FN_015_g.png"",""time"":3127},{""stimulus"":""blank"",""time"":3436},{""stimulus"":""https://ziweizhang0304.github.io/Stats_learning_trig/img/Stim/FN_018_g.png"",""time"":3477},{""stimulus"":""blank"",""time"":3786},{""stimulus"":""https://ziweizhang0304.github.io/Stats_learning_trig/img/Stim/FN_012_g.png"",""time"":3826},{""stimulus"":""blank"",""time"":4137},{""stimulus"":""https://ziweizhang0304.github.io/Stats_learning_trig/img/Stim/FN_025_g.png"",""time"":4167},{""stimulus"":""blank"",""time"":4476}]","[{""key_press"":32,""rt"":3039,""stimulus"":""https://ziweizhang0304.github.io/Stats_learning_trig/img/Stim/FN_013_g.png""}]","260","https://ziweizhang0304.github.io/Stats_learning_trig/img/Stim/FN_013_g.png","post_TD","4","2779","3039","slow","8","3","5c223d4a4a7e1f000137e5b9","","","","","",""
"","image-keyboard-response","21","119384","0.0-5.0-4.0-0.0","2122","","","https://ziweizhang0304.github.io/Stats_learning_trig/img/Stim/FN_023_g.png","13","","","","","","","","","","","","","","","","","",""
"","animation","22","123910","0.0-5.0-4.0-1.0","","","","","","[{""stimulus"":""https://ziweizhang0304.github.io/Stats_learning_trig/img/Stim/FN_015_g.png"",""time"":347},{""stimulus"":""blank"",""time"":656},{""stimulus"":""https://ziweizhang0304.github.io/Stats_learning_trig/img/Stim/FN_020_g.png"",""time"":696},{""stimulus"":""blank"",""time"":1007},{""stimulus"":""https://ziweizhang0304.github.io/Stats_learning_trig/img/Stim/FN_017_g.png"",""time"":1047},{""stimulus"":""blank"",""time"":1356},{""stimulus"":""https://ziweizhang0304.github.io/Stats_learning_trig/img/Stim/FN_012_g.png"",""time"":1396},{""stimulus"":""blank"",""time"":1706},{""stimulus"":""https://ziweizhang0304.github.io/Stats_learning_trig/img/Stim/FN_002_g.png"",""time"":1738},{""stimulus"":""blank"",""time"":2046},{""stimulus"":""https://ziweizhang0304.github.io/Stats_learning_trig/img/Stim/FN_023_g.png"",""time"":2082},{""stimulus"":""blank"",""time"":2396},{""stimulus"":""https://ziweizhang0304.github.io/Stats_learning_trig/img/Stim/FN_005_g.png"",""time"":2432},{""stimulus"":""blank"",""time"":2736},{""stimulus"":""https://ziweizhang0304.github.io/Stats_learning_trig/img/Stim/FN_018_g.png"",""time"":2777},{""stimulus"":""blank"",""time"":3086},{""stimulus"":""https://ziweizhang0304.github.io/Stats_learning_trig/img/Stim/FN_019_g.png"",""time"":3127},{""stimulus"":""blank"",""time"":3436},{""stimulus"":""https://ziweizhang0304.github.io/Stats_learning_trig/img/Stim/FN_003_g.png"",""time"":3478},{""stimulus"":""blank"",""time"":3786},{""stimulus"":""https://ziweizhang0304.github.io/Stats_learning_trig/img/Stim/FN_008_g.png"",""time"":3827},{""stimulus"":""blank"",""time"":4135},{""stimulus"":""https://ziweizhang0304.github.io/Stats_learning_trig/img/Stim/FN_025_g.png"",""time"":4177},{""stimulus"":""blank"",""time"":4486}]","[{""key_press"":32,""rt"":2449,""stimulus"":""https://ziweizhang0304.github.io/Stats_learning_trig/img/Stim/FN_005_g.png""}]","367","https://ziweizhang0304.github.io/Stats_learning_trig/img/Stim/FN_023_g.png","post_TD","5","2082","2449","fast","6","2","5c223d4a4a7e1f000137e5b9","","","","","",""
"","image-keyboard-response","23","125671","0.0-5.0-5.0-0.0","1758","","","https://ziweizhang0304.github.io/Stats_learning_trig/img/Stim/FN_005_g.png","13","","","","","","","","","","","","","","","","","",""
"","animation","24","130171","0.0-5.0-5.0-1.0","","","","","","[{""stimulus"":""https://ziweizhang0304.github.io/Stats_learning_trig/img/Stim/FN_003_g.png"",""time"":351},{""stimulus"":""blank"",""time"":660},{""stimulus"":""https://ziweizhang0304.github.io/Stats_learning_trig/img/Stim/FN_018_g.png"",""time"":691},{""stimulus"":""blank"",""time"":1000},{""stimulus"":""https://ziweizhang0304.github.io/Stats_learning_trig/img/Stim/FN_017_g.png"",""time"":1041},{""stimulus"":""blank"",""time"":1350},{""stimulus"":""https://ziweizhang0304.github.io/Stats_learning_trig/img/Stim/FN_015_g.png"",""time"":1381},{""stimulus"":""blank"",""time"":1690},{""stimulus"":""https://ziweizhang0304.github.io/Stats_learning_trig/img/Stim/FN_020_g.png"",""time"":1721},{""stimulus"":""blank"",""time"":2031},{""stimulus"":""https://ziweizhang0304.github.io/Stats_learning_trig/img/Stim/FN_002_g.png"",""time"":2071},{""stimulus"":""blank"",""time"":2380},{""stimulus"":""https://ziweizhang0304.github.io/Stats_learning_trig/img/Stim/FN_023_g.png"",""time"":2411},{""stimulus"":""blank"",""time"":2720},{""stimulus"":""https://ziweizhang0304.github.io/Stats_learning_trig/img/Stim/FN_005_g.png"",""time"":2760},{""stimulus"":""blank"",""time"":3060},{""stimulus"":""https://ziweizhang0304.github.io/Stats_learning_trig/img/Stim/FN_019_g.png"",""time"":3101},{""stimulus"":""blank"",""time"":3409},{""stimulus"":""https://ziweizhang0304.github.io/Stats_learning_trig/img/Stim/FN_012_g.png"",""time"":3450},{""stimulus"":""blank"",""time"":3761},{""stimulus"":""https://ziweizhang0304.github.io/Stats_learning_trig/img/Stim/FN_008_g.png"",""time"":3801},{""stimulus"":""blank"",""time"":4110},{""stimulus"":""https://ziweizhang0304.github.io/Stats_learning_trig/img/Stim/FN_025_g.png"",""time"":4150},{""stimulus"":""blank"",""time"":4460}]","[{""key_press"":32,""rt"":3134,""stimulus"":""https://ziweizhang0304.github.io/Stats_learning_trig/img/Stim/FN_019_g.png""}]","374","https://ziweizhang0304.github.io/Stats_learning_trig/img/Stim/FN_005_g.png","post_TD","6","2760","3134","fast","8","3","5c223d4a4a7e1f000137e5b9","","","","","",""
"","image-keyboard-response","25","131675","0.0-5.0-6.0-0.0","1501","","","https://ziweizhang0304.github.io/Stats_learning_trig/img/Stim/FN_023_g.png","13","","","","","","","","","","","","","","","","","",""
"","animation","26","136140","0.0-5.0-6.0-1.0","","","","","","[{""stimulus"":""https://ziweizhang0304.github.io/Stats_learning_trig/img/Stim/FN_020_g.png"",""time"":346},{""stimulus"":""blank"",""time"":655},{""stimulus"":""https://ziweizhang0304.github.io/Stats_learning_trig/img/Stim/FN_015_g.png"",""time"":686},{""stimulus"":""blank"",""time"":995},{""stimulus"":""https://ziweizhang0304.github.io/Stats_learning_trig/img/Stim/FN_017_g.png"",""time"":1031},{""stimulus"":""blank"",""time"":1335},{""stimulus"":""https://ziweizhang0304.github.io/Stats_learning_trig/img/Stim/FN_002_g.png"",""time"":1376},{""stimulus"":""blank"",""time"":1685},{""stimulus"":""https://ziweizhang0304.github.io/Stats_learning_trig/img/Stim/FN_023_g.png"",""time"":1726},{""stimulus"":""blank"",""time"":2035},{""stimulus"":""https://ziweizhang0304.github.io/Stats_learning_trig/img/Stim/FN_005_g.png"",""time"":2073},{""stimulus"":""blank"",""time"":2375},{""stimulus"":""https://ziweizhang0304.github.io/Stats_learning_trig/img/Stim/FN_018_g.png"",""time"":2414},{""stimulus"":""blank"",""time"":2715},{""stimulus"":""https://ziweizhang0304.github.io/Stats_learning_trig/img/Stim/FN_019_g.png"",""time"":2755},{""stimulus"":""blank"",""time"":3065},{""stimulus"":""https://ziweizhang0304.github.io/Stats_learning_trig/img/Stim/FN_003_g.png"",""time"":3096},{""stimulus"":""blank"",""time"":3405},{""stimulus"":""https://ziweizhang0304.github.io/Stats_learning_trig/img/Stim/FN_012_g.png"",""time"":3436},{""stimulus"":""blank"",""time"":3744},{""stimulus"":""https://ziweizhang0304.github.io/Stats_learning_trig/img/Stim/FN_008_g.png"",""time"":3776},{""stimulus"":""blank"",""time"":4085},{""stimulus"":""https://ziweizhang0304.github.io/Stats_learning_trig/img/Stim/FN_025_g.png"",""time"":4116},{""stimulus"":""blank"",""time"":4425}]","[{""key_press"":32,""rt"":2224,""stimulus"":""https://ziweizhang0304.github.io/Stats_learning_trig/img/Stim/FN_005_g.png""}]","498","https://ziweizhang0304.github.io/Stats_learning_trig/img/Stim/FN_023_g.png","post_TD","7","1726","2224","fast","5","2","5c223d4a4a7e1f000137e5b9","","","","","",""
"","image-keyboard-response","27","137779","0.0-5.0-7.0-0.0","1635","","","https://ziweizhang0304.github.io/Stats_learning_trig/img/Stim/FN_005_g.png","13","","","","","","","","","","","","","","","","","",""
"","animation","28","142311","0.0-5.0-7.0-1.0","","","","","","[{""stimulus"":""https://ziweizhang0304.github.io/Stats_learning_trig/img/Stim/FN_020_g.png"",""time"":342},{""stimulus"":""blank"",""time"":651},{""stimulus"":""https://ziweizhang0304.github.io/Stats_learning_trig/img/Stim/FN_015_g.png"",""time"":688},{""stimulus"":""blank"",""time"":1001},{""stimulus"":""https://ziweizhang0304.github.io/Stats_learning_trig/img/Stim/FN_017_g.png"",""time"":1038},{""stimulus"":""blank"",""time"":1350},{""stimulus"":""https://ziweizhang0304.github.io/Stats_learning_trig/img/Stim/FN_002_g.png"",""time"":1387},{""stimulus"":""blank"",""time"":1691},{""stimulus"":""https://ziweizhang0304.github.io/Stats_learning_trig/img/Stim/FN_023_g.png"",""time"":1732},{""stimulus"":""blank"",""time"":2041},{""stimulus"":""https://ziweizhang0304.github.io/Stats_learning_trig/img/Stim/FN_005_g.png"",""time"":2082},{""stimulus"":""blank"",""time"":2391},{""stimulus"":""https://ziweizhang0304.github.io/Stats_learning_trig/img/Stim/FN_018_g.png"",""time"":2432},{""stimulus"":""blank"",""time"":2741},{""stimulus"":""https://ziweizhang0304.github.io/Stats_learning_trig/img/Stim/FN_019_g.png"",""time"":2781},{""stimulus"":""blank"",""time"":3091},{""stimulus"":""https://ziweizhang0304.github.io/Stats_learning_trig/img/Stim/FN_003_g.png"",""time"":3132},{""stimulus"":""blank"",""time"":3441},{""stimulus"":""https://ziweizhang0304.github.io/Stats_learning_trig/img/Stim/FN_012_g.png"",""time"":3482},{""stimulus"":""blank"",""time"":3791},{""stimulus"":""https://ziweizhang0304.github.io/Stats_learning_trig/img/Stim/FN_008_g.png"",""time"":3832},{""stimulus"":""blank"",""time"":4141},{""stimulus"":""https://ziweizhang0304.github.io/Stats_learning_trig/img/Stim/FN_025_g.png"",""time"":4182},{""stimulus"":""blank"",""time"":4500}]","[{""key_press"":32,""rt"":2412,""stimulus"":""blank""}]","330","https://ziweizhang0304.github.io/Stats_learning_trig/img/Stim/FN_005_g.png","post_TD","8","2082","2412","fast","6","3","5c223d4a4a7e1f000137e5b9","","","","","",""
"","image-keyboard-response","29","143822","0.0-5.0-8.0-0.0","1509","","","https://ziweizhang0304.github.io/Stats_learning_trig/img/Stim/FN_002_g.png","13","","","","","","","","","","","","","","","","","",""
"","animation","30","148321","0.0-5.0-8.0-1.0","","","","","","[{""stimulus"":""https://ziweizhang0304.github.io/Stats_learning_trig/img/Stim/FN_003_g.png"",""time"":348},{""stimulus"":""blank"",""time"":658},{""stimulus"":""https://ziweizhang0304.github.io/Stats_learning_trig/img/Stim/FN_018_g.png"",""time"":689},{""stimulus"":""blank"",""time"":999},{""stimulus"":""https://ziweizhang0304.github.io/Stats_learning_trig/img/Stim/FN_017_g.png"",""time"":1038},{""stimulus"":""blank"",""time"":1344},{""stimulus"":""https://ziweizhang0304.github.io/Stats_learning_trig/img/Stim/FN_015_g.png"",""time"":1379},{""stimulus"":""blank"",""time"":1684},{""stimulus"":""https://ziweizhang0304.github.io/Stats_learning_trig/img/Stim/FN_020_g.png"",""time"":1719},{""stimulus"":""blank"",""time"":2028},{""stimulus"":""https://ziweizhang0304.github.io/Stats_learning_trig/img/Stim/FN_002_g.png"",""time"":2060},{""stimulus"":""blank"",""time"":2369},{""stimulus"":""https://ziweizhang0304.github.io/Stats_learning_trig/img/Stim/FN_023_g.png"",""time"":2419},{""stimulus"":""blank"",""time"":2728},{""stimulus"":""https://ziweizhang0304.github.io/Stats_learning_trig/img/Stim/FN_005_g.png"",""time"":2765},{""stimulus"":""blank"",""time"":3068},{""stimulus"":""https://ziweizhang0304.github.io/Stats_learning_trig/img/Stim/FN_019_g.png"",""time"":3116},{""stimulus"":""blank"",""time"":3428},{""stimulus"":""https://ziweizhang0304.github.io/Stats_learning_trig/img/Stim/FN_012_g.png"",""time"":3470},{""stimulus"":""blank"",""time"":3773},{""stimulus"":""https://ziweizhang0304.github.io/Stats_learning_trig/img/Stim/FN_008_g.png"",""time"":3816},{""stimulus"":""blank"",""time"":4124},{""stimulus"":""https://ziweizhang0304.github.io/Stats_learning_trig/img/Stim/FN_025_g.png"",""time"":4158},{""stimulus"":""blank"",""time"":4463}]","[{""key_press"":32,""rt"":2380,""stimulus"":""blank""}]","320","https://ziweizhang0304.github.io/Stats_learning_trig/img/Stim/FN_002_g.png","post_TD","9","2060","2380","fast","6","1","5c223d4a4a7e1f000137e5b9","","","","","",""
"","image-keyboard-response","31","149883","0.0-5.0-9.0-0.0","1559","","","https://ziweizhang0304.github.io/Stats_learning_trig/img/Stim/FN_014_g.png","13","","","","","","","","","","","","","","","","","",""
"","animation","32","154391","0.0-5.0-9.0-1.0","","","","","","[{""stimulus"":""https://ziweizhang0304.github.io/Stats_learning_trig/img/Stim/FN_015_g.png"",""time"":348},{""stimulus"":""blank"",""time"":661},{""stimulus"":""https://ziweizhang0304.github.io/Stats_learning_trig/img/Stim/FN_019_g.png"",""time"":695},{""stimulus"":""blank"",""time"":997},{""stimulus"":""https://ziweizhang0304.github.io/Stats_learning_trig/img/Stim/FN_017_g.png"",""time"":1038},{""stimulus"":""blank"",""time"":1353},{""stimulus"":""https://ziweizhang0304.github.io/Stats_learning_trig/img/Stim/FN_014_g.png"",""time"":1385},{""stimulus"":""blank"",""time"":1689},{""stimulus"":""https://ziweizhang0304.github.io/Stats_learning_trig/img/Stim/FN_022_g.png"",""time"":1732},{""stimulus"":""blank"",""time"":2037},{""stimulus"":""https://ziweizhang0304.github.io/Stats_learning_trig/img/Stim/FN_013_g.png"",""time"":2080},{""stimulus"":""blank"",""time"":2384},{""stimulus"":""https://ziweizhang0304.github.io/Stats_learning_trig/img/Stim/FN_020_g.png"",""time"":2422},{""stimulus"":""blank"",""time"":2727},{""stimulus"":""https://ziweizhang0304.github.io/Stats_learning_trig/img/Stim/FN_018_g.png"",""time"":2763},{""stimulus"":""blank"",""time"":3066},{""stimulus"":""https://ziweizhang0304.github.io/Stats_learning_trig/img/Stim/FN_003_g.png"",""time"":3117},{""stimulus"":""blank"",""time"":3426},{""stimulus"":""https://ziweizhang0304.github.io/Stats_learning_trig/img/Stim/FN_012_g.png"",""time"":3469},{""stimulus"":""blank"",""time"":3777},{""stimulus"":""https://ziweizhang0304.github.io/Stats_learning_trig/img/Stim/FN_008_g.png"",""time"":3819},{""stimulus"":""blank"",""time"":4133},{""stimulus"":""https://ziweizhang0304.github.io/Stats_learning_trig/img/Stim/FN_025_g.png"",""time"":4168},{""stimulus"":""blank"",""time"":4471}]","[{""key_press"":32,""rt"":1801,""stimulus"":""https://ziweizhang0304.github.io/Stats_learning_trig/img/Stim/FN_022_g.png""}]","416","https://ziweizhang0304.github.io/Stats_learning_trig/img/Stim/FN_014_g.png","post_TD","10","1385","1801","slow","4","1","5c223d4a4a7e1f000137e5b9","","","","","",""
"","image-keyboard-response","33","155627","0.0-5.0-10.0-0.0","1234","","","https://ziweizhang0304.github.io/Stats_learning_trig/img/Stim/FN_002_g.png","13","","","","","","","","","","","","","","","","","",""
"","animation","34","160140","0.0-5.0-10.0-1.0","","","","","","[{""stimulus"":""https://ziweizhang0304.github.io/Stats_learning_trig/img/Stim/FN_015_g.png"",""time"":340},{""stimulus"":""blank"",""time"":647},{""stimulus"":""https://ziweizhang0304.github.io/Stats_learning_trig/img/Stim/FN_020_g.png"",""time"":689},{""stimulus"":""blank"",""time"":992},{""stimulus"":""https://ziweizhang0304.github.io/Stats_learning_trig/img/Stim/FN_017_g.png"",""time"":1034},{""stimulus"":""blank"",""time"":1335},{""stimulus"":""https://ziweizhang0304.github.io/Stats_learning_trig/img/Stim/FN_012_g.png"",""time"":1389},{""stimulus"":""blank"",""time"":1703},{""stimulus"":""https://ziweizhang0304.github.io/Stats_learning_trig/img/Stim/FN_002_g.png"",""time"":1733},{""stimulus"":""blank"",""time"":2037},{""stimulus"":""https://ziweizhang0304.github.io/Stats_learning_trig/img/Stim/FN_023_g.png"",""time"":2075},{""stimulus"":""blank"",""time"":2384},{""stimulus"":""https://ziweizhang0304.github.io/Stats_learning_trig/img/Stim/FN_005_g.png"",""time"":2422},{""stimulus"":""blank"",""time"":2723},{""stimulus"":""https://ziweizhang0304.github.io/Stats_learning_trig/img/Stim/FN_018_g.png"",""time"":2772},{""stimulus"":""blank"",""time"":3074},{""stimulus"":""https://ziweizhang0304.github.io/Stats_learning_trig/img/Stim/FN_019_g.png"",""time"":3121},{""stimulus"":""blank"",""time"":3422},{""stimulus"":""https://ziweizhang0304.github.io/Stats_learning_trig/img/Stim/FN_003_g.png"",""time"":3471},{""stimulus"":""blank"",""time"":3773},{""stimulus"":""https://ziweizhang0304.github.io/Stats_learning_trig/img/Stim/FN_008_g.png"",""time"":3820},{""stimulus"":""blank"",""time"":4133},{""stimulus"":""https://ziweizhang0304.github.io/Stats_learning_trig/img/Stim/FN_025_g.png"",""time"":4163},{""stimulus"":""blank"",""time"":4473}]","[{""key_press"":32,""rt"":271,""stimulus"":""""},{""key_press"":32,""rt"":2109,""stimulus"":""https://ziweizhang0304.github.io/Stats_learning_trig/img/Stim/FN_023_g.png""}]","376","https://ziweizhang0304.github.io/Stats_learning_trig/img/Stim/FN_002_g.png","post_TD","11","1733","2109","fast","5","1","5c223d4a4a7e1f000137e5b9","","","","","",""
"","image-keyboard-response","35","161288","0.0-5.0-11.0-0.0","1145","","","https://ziweizhang0304.github.io/Stats_learning_trig/img/Stim/FN_022_g.png","13","","","","","","","","","","","","","","","","","",""
"","animation","36","165816","0.0-5.0-11.0-1.0","","","","","","[{""stimulus"":""https://ziweizhang0304.github.io/Stats_learning_trig/img/Stim/FN_003_g.png"",""time"":353},{""stimulus"":""blank"",""time"":652},{""stimulus"":""https://ziweizhang0304.github.io/Stats_learning_trig/img/Stim/FN_017_g.png"",""time"":703},{""stimulus"":""blank"",""time"":1013},{""stimulus"":""https://ziweizhang0304.github.io/Stats_learning_trig/img/Stim/FN_020_g.png"",""time"":1053},{""stimulus"":""blank"",""time"":1363},{""stimulus"":""https://ziweizhang0304.github.io/Stats_learning_trig/img/Stim/FN_008_g.png"",""time"":1403},{""stimulus"":""blank"",""time"":1713},{""stimulus"":""https://ziweizhang0304.github.io/Stats_learning_trig/img/Stim/FN_019_g.png"",""time"":1753},{""stimulus"":""blank"",""time"":2062},{""stimulus"":""https://ziweizhang0304.github.io/Stats_learning_trig/img/Stim/FN_014_g.png"",""time"":2103},{""stimulus"":""blank"",""time"":2412},{""stimulus"":""https://ziweizhang0304.github.io/Stats_learning_trig/img/Stim/FN_022_g.png"",""time"":2455},{""stimulus"":""blank"",""time"":2762},{""stimulus"":""https://ziweizhang0304.github.io/Stats_learning_trig/img/Stim/FN_013_g.png"",""time"":2803},{""stimulus"":""blank"",""time"":3112},{""stimulus"":""https://ziweizhang0304.github.io/Stats_learning_trig/img/Stim/FN_015_g.png"",""time"":3152},{""stimulus"":""blank"",""time"":3462},{""stimulus"":""https://ziweizhang0304.github.io/Stats_learning_trig/img/Stim/FN_018_g.png"",""time"":3493},{""stimulus"":""blank"",""time"":3802},{""stimulus"":""https://ziweizhang0304.github.io/Stats_learning_trig/img/Stim/FN_012_g.png"",""time"":3832},{""stimulus"":""blank"",""time"":4142},{""stimulus"":""https://ziweizhang0304.github.io/Stats_learning_trig/img/Stim/FN_025_g.png"",""time"":4183},{""stimulus"":""blank"",""time"":4492}]","[{""key_press"":32,""rt"":2451,""stimulus"":""blank""},{""key_press"":32,""rt"":3468,""stimulus"":""blank""}]","1013","https://ziweizhang0304.github.io/Stats_learning_trig/img/Stim/FN_022_g.png","post_TD","12","2455","3468","slow","7","2","5c223d4a4a7e1f000137e5b9","","","","","",""
"","image-keyboard-response","37","167324","0.0-5.0-12.0-0.0","1506","","","https://ziweizhang0304.github.io/Stats_learning_trig/img/Stim/FN_022_g.png","13","","","","","","","","","","","","","","","","","",""
"","animation","38","171831","0.0-5.0-12.0-1.0","","","","","","[{""stimulus"":""https://ziweizhang0304.github.io/Stats_learning_trig/img/Stim/FN_020_g.png"",""time"":347},{""stimulus"":""blank"",""time"":657},{""stimulus"":""https://ziweizhang0304.github.io/Stats_learning_trig/img/Stim/FN_025_g.png"",""time"":698},{""stimulus"":""blank"",""time"":1007},{""stimulus"":""https://ziweizhang0304.github.io/Stats_learning_trig/img/Stim/FN_012_g.png"",""time"":1038},{""stimulus"":""blank"",""time"":1347},{""stimulus"":""https://ziweizhang0304.github.io/Stats_learning_trig/img/Stim/FN_017_g.png"",""time"":1387},{""stimulus"":""blank"",""time"":1697},{""stimulus"":""https://ziweizhang0304.github.io/Stats_learning_trig/img/Stim/FN_015_g.png"",""time"":1728},{""stimulus"":""blank"",""time"":2037},{""stimulus"":""https://ziweizhang0304.github.io/Stats_learning_trig/img/Stim/FN_003_g.png"",""time"":2078},{""stimulus"":""blank"",""time"":2387},{""stimulus"":""https://ziweizhang0304.github.io/Stats_learning_trig/img/Stim/FN_014_g.png"",""time"":2428},{""stimulus"":""blank"",""time"":2736},{""stimulus"":""https://ziweizhang0304.github.io/Stats_learning_trig/img/Stim/FN_022_g.png"",""time"":2778},{""stimulus"":""blank"",""time"":3087},{""stimulus"":""https://ziweizhang0304.github.io/Stats_learning_trig/img/Stim/FN_013_g.png"",""time"":3123},{""stimulus"":""blank"",""time"":3437},{""stimulus"":""https://ziweizhang0304.github.io/Stats_learning_trig/img/Stim/FN_018_g.png"",""time"":3478},{""stimulus"":""blank"",""time"":3788},{""stimulus"":""https://ziweizhang0304.github.io/Stats_learning_trig/img/Stim/FN_019_g.png"",""time"":3818},{""stimulus"":""blank"",""time"":4127},{""stimulus"":""https://ziweizhang0304.github.io/Stats_learning_trig/img/Stim/FN_008_g.png"",""time"":4163},{""stimulus"":""blank"",""time"":4467}]","[{""key_press"":32,""rt"":3109,""stimulus"":""blank""}]","331","https://ziweizhang0304.github.io/Stats_learning_trig/img/Stim/FN_022_g.png","post_TD","13","2778","3109","slow","8","2","5c223d4a4a7e1f000137e5b9","","","","","",""
"","image-keyboard-response","39","172933","0.0-5.0-13.0-0.0","1101","","","https://ziweizhang0304.github.io/Stats_learning_trig/img/Stim/FN_005_g.png","13","","","","","","","","","","","","","","","","","",""
"","animation","40","177461","0.0-5.0-13.0-1.0","","","","","","[{""stimulus"":""https://ziweizhang0304.github.io/Stats_learning_trig/img/Stim/FN_003_g.png"",""time"":358},{""stimulus"":""blank"",""time"":667},{""stimulus"":""https://ziweizhang0304.github.io/Stats_learning_trig/img/Stim/FN_019_g.png"",""time"":698},{""stimulus"":""blank"",""time"":1007},{""stimulus"":""https://ziweizhang0304.github.io/Stats_learning_trig/img/Stim/FN_018_g.png"",""time"":1048},{""stimulus"":""blank"",""time"":1357},{""stimulus"":""https://ziweizhang0304.github.io/Stats_learning_trig/img/Stim/FN_025_g.png"",""time"":1398},{""stimulus"":""blank"",""time"":1707},{""stimulus"":""https://ziweizhang0304.github.io/Stats_learning_trig/img/Stim/FN_015_g.png"",""time"":1738},{""stimulus"":""blank"",""time"":2047},{""stimulus"":""https://ziweizhang0304.github.io/Stats_learning_trig/img/Stim/FN_012_g.png"",""time"":2084},{""stimulus"":""blank"",""time"":2397},{""stimulus"":""https://ziweizhang0304.github.io/Stats_learning_trig/img/Stim/FN_002_g.png"",""time"":2428},{""stimulus"":""blank"",""time"":2737},{""stimulus"":""https://ziweizhang0304.github.io/Stats_learning_trig/img/Stim/FN_023_g.png"",""time"":2778},{""stimulus"":""blank"",""time"":3087},{""stimulus"":""https://ziweizhang0304.github.io/Stats_learning_trig/img/Stim/FN_005_g.png"",""time"":3127},{""stimulus"":""blank"",""time"":3437},{""stimulus"":""https://ziweizhang0304.github.io/Stats_learning_trig/img/Stim/FN_017_g.png"",""time"":3478},{""stimulus"":""blank"",""time"":3786},{""stimulus"":""https://ziweizhang0304.github.io/Stats_learning_trig/img/Stim/FN_020_g.png"",""time"":3827},{""stimulus"":""blank"",""time"":4137},{""stimulus"":""https://ziweizhang0304.github.io/Stats_learning_trig/img/Stim/FN_008_g.png"",""time"":4177},{""stimulus"":""blank"",""time"":4487}]","[{""key_press"":32,""rt"":2851,""stimulus"":""https://ziweizhang0304.github.io/Stats_learning_trig/img/Stim/FN_023_g.png""},{""key_press"":32,""rt"":3594,""stimulus"":""https://ziweizhang0304.github.io/Stats_learning_trig/img/Stim/FN_017_g.png""}]","467","https://ziweizhang0304.github.io/Stats_learning_trig/img/Stim/FN_005_g.png","post_TD","14","3127","3594","fast","9","3","5c223d4a4a7e1f000137e5b9","","","","","",""
"","image-keyboard-response","41","179540","0.0-5.0-14.0-0.0","2077","","","https://ziweizhang0304.github.io/Stats_learning_trig/img/Stim/FN_014_g.png","13","","","","","","","","","","","","","","","","","",""
"","animation","42","184020","0.0-5.0-14.0-1.0","","","","","","[{""stimulus"":""https://ziweizhang0304.github.io/Stats_learning_trig/img/Stim/FN_003_g.png"",""time"":340},{""stimulus"":""blank"",""time"":650},{""stimulus"":""https://ziweizhang0304.github.io/Stats_learning_trig/img/Stim/FN_017_g.png"",""time"":681},{""stimulus"":""blank"",""time"":989},{""stimulus"":""https://ziweizhang0304.github.io/Stats_learning_trig/img/Stim/FN_020_g.png"",""time"":1021},{""stimulus"":""blank"",""time"":1330},{""stimulus"":""https://ziweizhang0304.github.io/Stats_learning_trig/img/Stim/FN_008_g.png"",""time"":1361},{""stimulus"":""blank"",""time"":1673},{""stimulus"":""https://ziweizhang0304.github.io/Stats_learning_trig/img/Stim/FN_019_g.png"",""time"":1704},{""stimulus"":""blank"",""time"":2015},{""stimulus"":""https://ziweizhang0304.github.io/Stats_learning_trig/img/Stim/FN_014_g.png"",""time"":2047},{""stimulus"":""blank"",""time"":2350},{""stimulus"":""https://ziweizhang0304.github.io/Stats_learning_trig/img/Stim/FN_022_g.png"",""time"":2401},{""stimulus"":""blank"",""time"":2710},{""stimulus"":""https://ziweizhang0304.github.io/Stats_learning_trig/img/Stim/FN_013_g.png"",""time"":2751},{""stimulus"":""blank"",""time"":3060},{""stimulus"":""https://ziweizhang0304.github.io/Stats_learning_trig/img/Stim/FN_015_g.png"",""time"":3091},{""stimulus"":""blank"",""time"":3398},{""stimulus"":""https://ziweizhang0304.github.io/Stats_learning_trig/img/Stim/FN_018_g.png"",""time"":3431},{""stimulus"":""blank"",""time"":3736},{""stimulus"":""https://ziweizhang0304.github.io/Stats_learning_trig/img/Stim/FN_012_g.png"",""time"":3781},{""stimulus"":""blank"",""time"":4090},{""stimulus"":""https://ziweizhang0304.github.io/Stats_learning_trig/img/Stim/FN_025_g.png"",""time"":4130},{""stimulus"":""blank"",""time"":4451}]","[{""key_press"":32,""rt"":2436,""stimulus"":""https://ziweizhang0304.github.io/Stats_learning_trig/img/Stim/FN_022_g.png""}]","389","https://ziweizhang0304.github.io/Stats_learning_trig/img/Stim/FN_014_g.png","post_TD","15","2047","2436","slow","6","1","5c223d4a4a7e1f000137e5b9","","","","","",""
"","image-keyboard-response","43","185100","0.0-5.0-15.0-0.0","1077","","","https://ziweizhang0304.github.io/Stats_learning_trig/img/Stim/FN_013_g.png","13","","","","","","","","","","","","","","","","","",""
"","animation","44","189631","0.0-5.0-15.0-1.0","","","","","","[{""stimulus"":""https://ziweizhang0304.github.io/Stats_learning_trig/img/Stim/FN_020_g.png"",""time"":350},{""stimulus"":""blank"",""time"":659},{""stimulus"":""https://ziweizhang0304.github.io/Stats_learning_trig/img/Stim/FN_025_g.png"",""time"":699},{""stimulus"":""blank"",""time"":1009},{""stimulus"":""https://ziweizhang0304.github.io/Stats_learning_trig/img/Stim/FN_012_g.png"",""time"":1050},{""stimulus"":""blank"",""time"":1359},{""stimulus"":""https://ziweizhang0304.github.io/Stats_learning_trig/img/Stim/FN_017_g.png"",""time"":1400},{""stimulus"":""blank"",""time"":1709},{""stimulus"":""https://ziweizhang0304.github.io/Stats_learning_trig/img/Stim/FN_015_g.png"",""time"":1750},{""stimulus"":""blank"",""time"":2058},{""stimulus"":""https://ziweizhang0304.github.io/Stats_learning_trig/img/Stim/FN_003_g.png"",""time"":2100},{""stimulus"":""blank"",""time"":2409},{""stimulus"":""https://ziweizhang0304.github.io/Stats_learning_trig/img/Stim/FN_014_g.png"",""time"":2450},{""stimulus"":""blank"",""time"":2759},{""stimulus"":""https://ziweizhang0304.github.io/Stats_learning_trig/img/Stim/FN_022_g.png"",""time"":2799},{""stimulus"":""blank"",""time"":3110},{""stimulus"":""https://ziweizhang0304.github.io/Stats_learning_trig/img/Stim/FN_013_g.png"",""time"":3151},{""stimulus"":""blank"",""time"":3459},{""stimulus"":""https://ziweizhang0304.github.io/Stats_learning_trig/img/Stim/FN_018_g.png"",""time"":3500},{""stimulus"":""blank"",""time"":3809},{""stimulus"":""https://ziweizhang0304.github.io/Stats_learning_trig/img/Stim/FN_019_g.png"",""time"":3840},{""stimulus"":""blank"",""time"":4149},{""stimulus"":""https://ziweizhang0304.github.io/Stats_learning_trig/img/Stim/FN_008_g.png"",""time"":4185},{""stimulus"":""blank"",""time"":4488}]","[{""key_press"":32,""rt"":3527,""stimulus"":""https://ziweizhang0304.github.io/Stats_learning_trig/img/Stim/FN_018_g.png""}]","376","https://ziweizhang0304.github.io/Stats_learning_trig/img/Stim/FN_013_g.png","post_TD","16","3151","3527","slow","9","3","5c223d4a4a7e1f000137e5b9","","","","","",""
"","image-keyboard-response","45","190681","0.0-5.0-16.0-0.0","1048","","","https://ziweizhang0304.github.io/Stats_learning_trig/img/Stim/FN_013_g.png","13","","","","","","","","","","","","","","","","","",""
"","animation","46","195211","0.0-5.0-16.0-1.0","","","","","","[{""stimulus"":""https://ziweizhang0304.github.io/Stats_learning_trig/img/Stim/FN_015_g.png"",""time"":348},{""stimulus"":""blank"",""time"":659},{""stimulus"":""https://ziweizhang0304.github.io/Stats_learning_trig/img/Stim/FN_008_g.png"",""time"":700},{""stimulus"":""blank"",""time"":1009},{""stimulus"":""https://ziweizhang0304.github.io/Stats_learning_trig/img/Stim/FN_025_g.png"",""time"":1050},{""stimulus"":""blank"",""time"":1360},{""stimulus"":""https://ziweizhang0304.github.io/Stats_learning_trig/img/Stim/FN_012_g.png"",""time"":1400},{""stimulus"":""blank"",""time"":1710},{""stimulus"":""https://ziweizhang0304.github.io/Stats_learning_trig/img/Stim/FN_014_g.png"",""time"":1749},{""stimulus"":""blank"",""time"":2059},{""stimulus"":""https://ziweizhang0304.github.io/Stats_learning_trig/img/Stim/FN_022_g.png"",""time"":2099},{""stimulus"":""blank"",""time"":2409},{""stimulus"":""https://ziweizhang0304.github.io/Stats_learning_trig/img/Stim/FN_013_g.png"",""time"":2450},{""stimulus"":""blank"",""time"":2758},{""stimulus"":""https://ziweizhang0304.github.io/Stats_learning_trig/img/Stim/FN_017_g.png"",""time"":2801},{""stimulus"":""blank"",""time"":3109},{""stimulus"":""https://ziweizhang0304.github.io/Stats_learning_trig/img/Stim/FN_020_g.png"",""time"":3150},{""stimulus"":""blank"",""time"":3459},{""stimulus"":""https://ziweizhang0304.github.io/Stats_learning_trig/img/Stim/FN_018_g.png"",""time"":3491},{""stimulus"":""blank"",""time"":3799},{""stimulus"":""https://ziweizhang0304.github.io/Stats_learning_trig/img/Stim/FN_019_g.png"",""time"":3840},{""stimulus"":""blank"",""time"":4150},{""stimulus"":""https://ziweizhang0304.github.io/Stats_learning_trig/img/Stim/FN_003_g.png"",""time"":4183},{""stimulus"":""blank"",""time"":4499}]","[{""key_press"":32,""rt"":2804,""stimulus"":""https://ziweizhang0304.github.io/Stats_learning_trig/img/Stim/FN_017_g.png""}]","354","https://ziweizhang0304.github.io/Stats_learning_trig/img/Stim/FN_013_g.png","post_TD","17","2450","2804","slow","7","3","5c223d4a4a7e1f000137e5b9","","","","","",""
"","image-keyboard-response","47","196216","0.0-5.0-17.0-0.0","1004","","","https://ziweizhang0304.github.io/Stats_learning_trig/img/Stim/FN_002_g.png","13","","","","","","","","","","","","","","","","","",""
"","animation","48","200721","0.0-5.0-17.0-1.0","","","","","","[{""stimulus"":""https://ziweizhang0304.github.io/Stats_learning_trig/img/Stim/FN_003_g.png"",""time"":345},{""stimulus"":""blank"",""time"":644},{""stimulus"":""https://ziweizhang0304.github.io/Stats_learning_trig/img/Stim/FN_019_g.png"",""time"":695},{""stimulus"":""blank"",""time"":1001},{""stimulus"":""https://ziweizhang0304.github.io/Stats_learning_trig/img/Stim/FN_018_g.png"",""time"":1035},{""stimulus"":""blank"",""time"":1344},{""stimulus"":""https://ziweizhang0304.github.io/Stats_learning_trig/img/Stim/FN_025_g.png"",""time"":1375},{""stimulus"":""blank"",""time"":1694},{""stimulus"":""https://ziweizhang0304.github.io/Stats_learning_trig/img/Stim/FN_015_g.png"",""time"":1720},{""stimulus"":""blank"",""time"":2034},{""stimulus"":""https://ziweizhang0304.github.io/Stats_learning_trig/img/Stim/FN_012_g.png"",""time"":2075},{""stimulus"":""blank"",""time"":2384},{""stimulus"":""https://ziweizhang0304.github.io/Stats_learning_trig/img/Stim/FN_002_g.png"",""time"":2425},{""stimulus"":""blank"",""time"":2734},{""stimulus"":""https://ziweizhang0304.github.io/Stats_learning_trig/img/Stim/FN_023_g.png"",""time"":2775},{""stimulus"":""blank"",""time"":3085},{""stimulus"":""https://ziweizhang0304.github.io/Stats_learning_trig/img/Stim/FN_005_g.png"",""time"":3125},{""stimulus"":""blank"",""time"":3434},{""stimulus"":""https://ziweizhang0304.github.io/Stats_learning_trig/img/Stim/FN_017_g.png"",""time"":3475},{""stimulus"":""blank"",""time"":3784},{""stimulus"":""https://ziweizhang0304.github.io/Stats_learning_trig/img/Stim/FN_020_g.png"",""time"":3825},{""stimulus"":""blank"",""time"":4135},{""stimulus"":""https://ziweizhang0304.github.io/Stats_learning_trig/img/Stim/FN_008_g.png"",""time"":4165},{""stimulus"":""blank"",""time"":4474}]","[{""key_press"":32,""rt"":2787,""stimulus"":""https://ziweizhang0304.github.io/Stats_learning_trig/img/Stim/FN_023_g.png""}]","362","https://ziweizhang0304.github.io/Stats_learning_trig/img/Stim/FN_002_g.png","post_TD","18","2425","2787","fast","7","1","5c223d4a4a7e1f000137e5b9","","","","","",""
"","image-keyboard-response","49","201931","0.0-5.0-18.0-0.0","1207","","","https://ziweizhang0304.github.io/Stats_learning_trig/img/Stim/FN_023_g.png","13","","","","","","","","","","","","","","","","","",""
"","animation","50","206451","0.0-5.0-18.0-1.0","","","","","","[{""stimulus"":""https://ziweizhang0304.github.io/Stats_learning_trig/img/Stim/FN_003_g.png"",""time"":349},{""stimulus"":""blank"",""time"":659},{""stimulus"":""https://ziweizhang0304.github.io/Stats_learning_trig/img/Stim/FN_018_g.png"",""time"":690},{""stimulus"":""blank"",""time"":999},{""stimulus"":""https://ziweizhang0304.github.io/Stats_learning_trig/img/Stim/FN_017_g.png"",""time"":1040},{""stimulus"":""blank"",""time"":1349},{""stimulus"":""https://ziweizhang0304.github.io/Stats_learning_trig/img/Stim/FN_015_g.png"",""time"":1380},{""stimulus"":""blank"",""time"":1689},{""stimulus"":""https://ziweizhang0304.github.io/Stats_learning_trig/img/Stim/FN_020_g.png"",""time"":1730},{""stimulus"":""blank"",""time"":2039},{""stimulus"":""https://ziweizhang0304.github.io/Stats_learning_trig/img/Stim/FN_002_g.png"",""time"":2079},{""stimulus"":""blank"",""time"":2389},{""stimulus"":""https://ziweizhang0304.github.io/Stats_learning_trig/img/Stim/FN_023_g.png"",""time"":2420},{""stimulus"":""blank"",""time"":2729},{""stimulus"":""https://ziweizhang0304.github.io/Stats_learning_trig/img/Stim/FN_005_g.png"",""time"":2770},{""stimulus"":""blank"",""time"":3079},{""stimulus"":""https://ziweizhang0304.github.io/Stats_learning_trig/img/Stim/FN_019_g.png"",""time"":3120},{""stimulus"":""blank"",""time"":3429},{""stimulus"":""https://ziweizhang0304.github.io/Stats_learning_trig/img/Stim/FN_012_g.png"",""time"":3470},{""stimulus"":""blank"",""time"":3780},{""stimulus"":""https://ziweizhang0304.github.io/Stats_learning_trig/img/Stim/FN_008_g.png"",""time"":3820},{""stimulus"":""blank"",""time"":4129},{""stimulus"":""https://ziweizhang0304.github.io/Stats_learning_trig/img/Stim/FN_025_g.png"",""time"":4170},{""stimulus"":""blank"",""time"":4479}]","[{""key_press"":32,""rt"":2788,""stimulus"":""https://ziweizhang0304.github.io/Stats_learning_trig/img/Stim/FN_005_g.png""}]","368","https://ziweizhang0304.github.io/Stats_learning_trig/img/Stim/FN_023_g.png","post_TD","19","2420","2788","fast","7","2","5c223d4a4a7e1f000137e5b9","","","","","",""
"","image-keyboard-response","51","207515","0.0-5.0-19.0-0.0","1062","","","https://ziweizhang0304.github.io/Stats_learning_trig/img/Stim/FN_023_g.png","13","","","","","","","","","","","","","","","","","",""
"","animation","52","212011","0.0-5.0-19.0-1.0","","","","","","[{""stimulus"":""https://ziweizhang0304.github.io/Stats_learning_trig/img/Stim/FN_003_g.png"",""time"":354},{""stimulus"":""blank"",""time"":664},{""stimulus"":""https://ziweizhang0304.github.io/Stats_learning_trig/img/Stim/FN_019_g.png"",""time"":694},{""stimulus"":""blank"",""time"":1004},{""stimulus"":""https://ziweizhang0304.github.io/Stats_learning_trig/img/Stim/FN_018_g.png"",""time"":1035},{""stimulus"":""blank"",""time"":1345},{""stimulus"":""https://ziweizhang0304.github.io/Stats_learning_trig/img/Stim/FN_025_g.png"",""time"":1385},{""stimulus"":""blank"",""time"":1695},{""stimulus"":""https://ziweizhang0304.github.io/Stats_learning_trig/img/Stim/FN_015_g.png"",""time"":1726},{""stimulus"":""blank"",""time"":2034},{""stimulus"":""https://ziweizhang0304.github.io/Stats_learning_trig/img/Stim/FN_012_g.png"",""time"":2075},{""stimulus"":""blank"",""time"":2384},{""stimulus"":""https://ziweizhang0304.github.io/Stats_learning_trig/img/Stim/FN_002_g.png"",""time"":2425},{""stimulus"":""blank"",""time"":2734},{""stimulus"":""https://ziweizhang0304.github.io/Stats_learning_trig/img/Stim/FN_023_g.png"",""time"":2764},{""stimulus"":""blank"",""time"":3074},{""stimulus"":""https://ziweizhang0304.github.io/Stats_learning_trig/img/Stim/FN_005_g.png"",""time"":3114},{""stimulus"":""blank"",""time"":3424},{""stimulus"":""https://ziweizhang0304.github.io/Stats_learning_trig/img/Stim/FN_017_g.png"",""time"":3455},{""stimulus"":""blank"",""time"":3763},{""stimulus"":""https://ziweizhang0304.github.io/Stats_learning_trig/img/Stim/FN_020_g.png"",""time"":3795},{""stimulus"":""blank"",""time"":4104},{""stimulus"":""https://ziweizhang0304.github.io/Stats_learning_trig/img/Stim/FN_008_g.png"",""time"":4145},{""stimulus"":""blank"",""time"":4446}]","[{""key_press"":32,""rt"":3103,""stimulus"":""blank""}]","339","https://ziweizhang0304.github.io/Stats_learning_trig/img/Stim/FN_023_g.png","post_TD","20","2764","3103","fast","8","2","5c223d4a4a7e1f000137e5b9","","","","","",""
"","image-keyboard-response","53","212938","0.0-5.0-20.0-0.0","926","","","https://ziweizhang0304.github.io/Stats_learning_trig/img/Stim/FN_013_g.png","13","","","","","","","","","","","","","","","","","",""
"","animation","54","217441","0.0-5.0-20.0-1.0","","","","","","[{""stimulus"":""https://ziweizhang0304.github.io/Stats_learning_trig/img/Stim/FN_015_g.png"",""time"":342},{""stimulus"":""blank"",""time"":652},{""stimulus"":""https://ziweizhang0304.github.io/Stats_learning_trig/img/Stim/FN_019_g.png"",""time"":683},{""stimulus"":""blank"",""time"":991},{""stimulus"":""https://ziweizhang0304.github.io/Stats_learning_trig/img/Stim/FN_017_g.png"",""time"":1033},{""stimulus"":""blank"",""time"":1342},{""stimulus"":""https://ziweizhang0304.github.io/Stats_learning_trig/img/Stim/FN_014_g.png"",""time"":1383},{""stimulus"":""blank"",""time"":1692},{""stimulus"":""https://ziweizhang0304.github.io/Stats_learning_trig/img/Stim/FN_022_g.png"",""time"":1723},{""stimulus"":""blank"",""time"":2032},{""stimulus"":""https://ziweizhang0304.github.io/Stats_learning_trig/img/Stim/FN_013_g.png"",""time"":2073},{""stimulus"":""blank"",""time"":2382},{""stimulus"":""https://ziweizhang0304.github.io/Stats_learning_trig/img/Stim/FN_020_g.png"",""time"":2423},{""stimulus"":""blank"",""time"":2733},{""stimulus"":""https://ziweizhang0304.github.io/Stats_learning_trig/img/Stim/FN_018_g.png"",""time"":2763},{""stimulus"":""blank"",""time"":3073},{""stimulus"":""https://ziweizhang0304.github.io/Stats_learning_trig/img/Stim/FN_003_g.png"",""time"":3103},{""stimulus"":""blank"",""time"":3412},{""stimulus"":""https://ziweizhang0304.github.io/Stats_learning_trig/img/Stim/FN_012_g.png"",""time"":3453},{""stimulus"":""blank"",""time"":3762},{""stimulus"":""https://ziweizhang0304.github.io/Stats_learning_trig/img/Stim/FN_008_g.png"",""time"":3803},{""stimulus"":""blank"",""time"":4112},{""stimulus"":""https://ziweizhang0304.github.io/Stats_learning_trig/img/Stim/FN_025_g.png"",""time"":4153},{""stimulus"":""blank"",""time"":4462}]","[{""key_press"":32,""rt"":2443,""stimulus"":""https://ziweizhang0304.github.io/Stats_learning_trig/img/Stim/FN_020_g.png""}]","370","https://ziweizhang0304.github.io/Stats_learning_trig/img/Stim/FN_013_g.png","post_TD","21","2073","2443","slow","6","3","5c223d4a4a7e1f000137e5b9","","","","","",""
"","image-keyboard-response","55","218258","0.0-5.0-21.0-0.0","815","","","https://ziweizhang0304.github.io/Stats_learning_trig/img/Stim/FN_002_g.png","13","","","","","","","","","","","","","","","","","",""
"","animation","56","222751","0.0-5.0-21.0-1.0","","","","","","[{""stimulus"":""https://ziweizhang0304.github.io/Stats_learning_trig/img/Stim/FN_020_g.png"",""time"":343},{""stimulus"":""blank"",""time"":651},{""stimulus"":""https://ziweizhang0304.github.io/Stats_learning_trig/img/Stim/FN_015_g.png"",""time"":688},{""stimulus"":""blank"",""time"":1001},{""stimulus"":""https://ziweizhang0304.github.io/Stats_learning_trig/img/Stim/FN_017_g.png"",""time"":1033},{""stimulus"":""blank"",""time"":1341},{""stimulus"":""https://ziweizhang0304.github.io/Stats_learning_trig/img/Stim/FN_002_g.png"",""time"":1373},{""stimulus"":""blank"",""time"":1682},{""stimulus"":""https://ziweizhang0304.github.io/Stats_learning_trig/img/Stim/FN_023_g.png"",""time"":1713},{""stimulus"":""blank"",""time"":2022},{""stimulus"":""https://ziweizhang0304.github.io/Stats_learning_trig/img/Stim/FN_005_g.png"",""time"":2063},{""stimulus"":""blank"",""time"":2372},{""stimulus"":""https://ziweizhang0304.github.io/Stats_learning_trig/img/Stim/FN_018_g.png"",""time"":2413},{""stimulus"":""blank"",""time"":2723},{""stimulus"":""https://ziweizhang0304.github.io/Stats_learning_trig/img/Stim/FN_019_g.png"",""time"":2763},{""stimulus"":""blank"",""time"":3072},{""stimulus"":""https://ziweizhang0304.github.io/Stats_learning_trig/img/Stim/FN_003_g.png"",""time"":3113},{""stimulus"":""blank"",""time"":3423},{""stimulus"":""https://ziweizhang0304.github.io/Stats_learning_trig/img/Stim/FN_012_g.png"",""time"":3453},{""stimulus"":""blank"",""time"":3762},{""stimulus"":""https://ziweizhang0304.github.io/Stats_learning_trig/img/Stim/FN_008_g.png"",""time"":3802},{""stimulus"":""blank"",""time"":4112},{""stimulus"":""https://ziweizhang0304.github.io/Stats_learning_trig/img/Stim/FN_025_g.png"",""time"":4143},{""stimulus"":""blank"",""time"":4452}]","[{""key_press"":32,""rt"":1795,""stimulus"":""https://ziweizhang0304.github.io/Stats_learning_trig/img/Stim/FN_023_g.png""}]","422","https://ziweizhang0304.github.io/Stats_learning_trig/img/Stim/FN_002_g.png","post_TD","22","1373","1795","fast","4","1","5c223d4a4a7e1f000137e5b9","","","","","",""
"","image-keyboard-response","57","223731","0.0-5.0-22.0-0.0","977","","","https://ziweizhang0304.github.io/Stats_learning_trig/img/Stim/FN_014_g.png","13","","","","","","","","","","","","","","","","","",""
"","animation","58","228271","0.0-5.0-22.0-1.0","","","","","","[{""stimulus"":""https://ziweizhang0304.github.io/Stats_learning_trig/img/Stim/FN_020_g.png"",""time"":351},{""stimulus"":""blank"",""time"":660},{""stimulus"":""https://ziweizhang0304.github.io/Stats_learning_trig/img/Stim/FN_025_g.png"",""time"":701},{""stimulus"":""blank"",""time"":1010},{""stimulus"":""https://ziweizhang0304.github.io/Stats_learning_trig/img/Stim/FN_012_g.png"",""time"":1044},{""stimulus"":""blank"",""time"":1361},{""stimulus"":""https://ziweizhang0304.github.io/Stats_learning_trig/img/Stim/FN_017_g.png"",""time"":1401},{""stimulus"":""blank"",""time"":1710},{""stimulus"":""https://ziweizhang0304.github.io/Stats_learning_trig/img/Stim/FN_015_g.png"",""time"":1751},{""stimulus"":""blank"",""time"":2060},{""stimulus"":""https://ziweizhang0304.github.io/Stats_learning_trig/img/Stim/FN_003_g.png"",""time"":2101},{""stimulus"":""blank"",""time"":2410},{""stimulus"":""https://ziweizhang0304.github.io/Stats_learning_trig/img/Stim/FN_014_g.png"",""time"":2450},{""stimulus"":""blank"",""time"":2755},{""stimulus"":""https://ziweizhang0304.github.io/Stats_learning_trig/img/Stim/FN_022_g.png"",""time"":2801},{""stimulus"":""blank"",""time"":3110},{""stimulus"":""https://ziweizhang0304.github.io/Stats_learning_trig/img/Stim/FN_013_g.png"",""time"":3151},{""stimulus"":""blank"",""time"":3460},{""stimulus"":""https://ziweizhang0304.github.io/Stats_learning_trig/img/Stim/FN_018_g.png"",""time"":3501},{""stimulus"":""blank"",""time"":3810},{""stimulus"":""https://ziweizhang0304.github.io/Stats_learning_trig/img/Stim/FN_019_g.png"",""time"":3850},{""stimulus"":""blank"",""time"":4160},{""stimulus"":""https://ziweizhang0304.github.io/Stats_learning_trig/img/Stim/FN_008_g.png"",""time"":4201},{""stimulus"":""blank"",""time"":4510}]","[{""key_press"":32,""rt"":2875,""stimulus"":""https://ziweizhang0304.github.io/Stats_learning_trig/img/Stim/FN_022_g.png""}]","425","https://ziweizhang0304.github.io/Stats_learning_trig/img/Stim/FN_014_g.png","post_TD","23","2450","2875","slow","7","1","5c223d4a4a7e1f000137e5b9","","","","","",""
"","image-keyboard-response","59","229308","0.0-5.0-23.0-0.0","1034","","","https://ziweizhang0304.github.io/Stats_learning_trig/img/Stim/FN_014_g.png","13","","","","","","","","","","","","","","","","","",""
"","animation","60","233841","0.0-5.0-23.0-1.0","","","","","","[{""stimulus"":""https://ziweizhang0304.github.io/Stats_learning_trig/img/Stim/FN_015_g.png"",""time"":344},{""stimulus"":""blank"",""time"":653},{""stimulus"":""https://ziweizhang0304.github.io/Stats_learning_trig/img/Stim/FN_008_g.png"",""time"":692},{""stimulus"":""blank"",""time"":991},{""stimulus"":""https://ziweizhang0304.github.io/Stats_learning_trig/img/Stim/FN_025_g.png"",""time"":1041},{""stimulus"":""blank"",""time"":1342},{""stimulus"":""https://ziweizhang0304.github.io/Stats_learning_trig/img/Stim/FN_012_g.png"",""time"":1384},{""stimulus"":""blank"",""time"":1693},{""stimulus"":""https://ziweizhang0304.github.io/Stats_learning_trig/img/Stim/FN_014_g.png"",""time"":1734},{""stimulus"":""blank"",""time"":2042},{""stimulus"":""https://ziweizhang0304.github.io/Stats_learning_trig/img/Stim/FN_022_g.png"",""time"":2084},{""stimulus"":""blank"",""time"":2393},{""stimulus"":""https://ziweizhang0304.github.io/Stats_learning_trig/img/Stim/FN_013_g.png"",""time"":2434},{""stimulus"":""blank"",""time"":2743},{""stimulus"":""https://ziweizhang0304.github.io/Stats_learning_trig/img/Stim/FN_017_g.png"",""time"":2783},{""stimulus"":""blank"",""time"":3093},{""stimulus"":""https://ziweizhang0304.github.io/Stats_learning_trig/img/Stim/FN_020_g.png"",""time"":3134},{""stimulus"":""blank"",""time"":3443},{""stimulus"":""https://ziweizhang0304.github.io/Stats_learning_trig/img/Stim/FN_018_g.png"",""time"":3485},{""stimulus"":""blank"",""time"":3803},{""stimulus"":""https://ziweizhang0304.github.io/Stats_learning_trig/img/Stim/FN_019_g.png"",""time"":3833},{""stimulus"":""blank"",""time"":4139},{""stimulus"":""https://ziweizhang0304.github.io/Stats_learning_trig/img/Stim/FN_003_g.png"",""time"":4184},{""stimulus"":""blank"",""time"":4493}]","[{""key_press"":32,""rt"":2155,""stimulus"":""https://ziweizhang0304.github.io/Stats_learning_trig/img/Stim/FN_022_g.png""}]","421","https://ziweizhang0304.github.io/Stats_learning_trig/img/Stim/FN_014_g.png","post_TD","24","1734","2155","slow","5","1","5c223d4a4a7e1f000137e5b9","29f3d","","","","",""
"","survey-text","61","259675","0.0-6.0","25815","","","","","","","","","","","","","","","","","","{""Q0"":""I tried to really focus on the shapes and press it as fast as I could when I saw the shape that I was supposed to find""}","","","",""
"","survey-text","62","270321","0.0-7.0","10636","","","","","","","","","","","","","","","","","","{""[object Object]"":""I noticed that the end sequence of shapes was the same""}","","","",""
"","instructions","63","280905","0.0-8.0","10583","","[{""page_index"":0,""viewing_time"":10582}]","","","","","","","","","","","","","","","","","","","",""
"","free-sort","64","309462","0.0-9.0","28555","","","","","","","","","post_drag","","","","fast","","","","","","[{""src"":""https://ziweizhang0304.github.io/Stats_learning_trig/img/Stim/FN_005_g.png"",""x"":475,""y"":0},{""src"":""https://ziweizhang0304.github.io/Stats_learning_trig/img/Stim/FN_002_g.png"",""x"":-225,""y"":50},{""src"":""https://ziweizhang0304.github.io/Stats_learning_trig/img/Stim/FN_023_g.png"",""x"":475,""y"":50}]","[{""src"":""https://ziweizhang0304.github.io/Stats_learning_trig/img/Stim/FN_023_g.png"",""x"":31,""y"":24},{""src"":""https://ziweizhang0304.github.io/Stats_learning_trig/img/Stim/FN_005_g.png"",""x"":127,""y"":27},{""src"":""https://ziweizhang0304.github.io/Stats_learning_trig/img/Stim/FN_002_g.png"",""x"":233,""y"":5}]","[{""src"":""https://ziweizhang0304.github.io/Stats_learning_trig/img/Stim/FN_005_g.png"",""x"":127,""y"":27},{""src"":""https://ziweizhang0304.github.io/Stats_learning_trig/img/Stim/FN_002_g.png"",""x"":233,""y"":5},{""src"":""https://ziweizhang0304.github.io/Stats_learning_trig/img/Stim/FN_023_g.png"",""x"":31,""y"":24}]",""
"","free-sort","65","319532","0.0-10.0","10068","","","","","","","","","post_drag","","","","slow","","","","","","[{""src"":""https://ziweizhang0304.github.io/Stats_learning_trig/img/Stim/FN_013_g.png"",""x"":475,""y"":0},{""src"":""https://ziweizhang0304.github.io/Stats_learning_trig/img/Stim/FN_014_g.png"",""x"":-225,""y"":50},{""src"":""https://ziweizhang0304.github.io/Stats_learning_trig/img/Stim/FN_022_g.png"",""x"":475,""y"":50}]","[{""src"":""https://ziweizhang0304.github.io/Stats_learning_trig/img/Stim/FN_022_g.png"",""x"":36,""y"":26},{""src"":""https://ziweizhang0304.github.io/Stats_learning_trig/img/Stim/FN_013_g.png"",""x"":127,""y"":24},{""src"":""https://ziweizhang0304.github.io/Stats_learning_trig/img/Stim/FN_014_g.png"",""x"":228,""y"":8}]","[{""src"":""https://ziweizhang0304.github.io/Stats_learning_trig/img/Stim/FN_013_g.png"",""x"":127,""y"":24},{""src"":""https://ziweizhang0304.github.io/Stats_learning_trig/img/Stim/FN_014_g.png"",""x"":228,""y"":8},{""src"":""https://ziweizhang0304.github.io/Stats_learning_trig/img/Stim/FN_022_g.png"",""x"":36,""y"":26}]",""
"","survey-multi-choice","66","331380","0.0-11.0","11839","","","","","","","","","","","","","","","","5c223d4a4a7e1f000137e5b9","","{""awareness"":""Yes"",""attention_check"":""Press SPACEBAR to a target""}","","","","[0,1]"
