"success","trial_type","trial_index","time_elapsed","internal_node_id","rt","url","view_history","stimulus","key_press","animation_sequence","response","TD_rt","TD_target","test_part","TD_trial_number","onset","offset","attention_state","TD_target_position","TD_within_triplet_counter","participant","yoke_participant","responses","init_locations","moves","final_locations","question_order"
"true","fullscreen","0","2119","0.0-0.0","","","","","","","","","","","","","","","","","","","","","","",""
"","external-html","1","5319","0.0-1.0","3096.4000000059605","https://ziweizhang0304.github.io/Stats_learning_trig/content/consent.html","","","","","","","","","","","","","","","","","","","","",""
"","instructions","2","22943","0.0-2.0","17623","","[{""page_index"":0,""viewing_time"":1374.7000000029802},{""page_index"":1,""viewing_time"":7623.600000008941},{""page_index"":2,""viewing_time"":7208},{""page_index"":3,""viewing_time"":1416.199999988079}]","","","","","","","","","","","","","","","","","","","",""
"","image-keyboard-response","3","28351","0.0-3.0-0.0-0.0","5406.79999999702","","","https://ziweizhang0304.github.io/Stats_learning_trig/img/Stim/FN_019_g.png","13","","","","","","","","","","","","","","","","","",""
"","animation","4","32771","0.0-3.0-0.0-1.0","","","","","","[{""stimulus"":""https://ziweizhang0304.github.io/Stats_learning_trig/img/Stim/FN_014_g.png"",""time"":359.29999999701977},{""stimulus"":""blank"",""time"":668.2999999970198},{""stimulus"":""https://ziweizhang0304.github.io/Stats_learning_trig/img/Stim/FN_004_g.png"",""time"":683.7000000029802},{""stimulus"":""blank"",""time"":993.5},{""stimulus"":""https://ziweizhang0304.github.io/Stats_learning_trig/img/Stim/FN_016_g.png"",""time"":1021},{""stimulus"":""blank"",""time"":1335.4000000059605},{""stimulus"":""https://ziweizhang0304.github.io/Stats_learning_trig/img/Stim/FN_007_g.png"",""time"":1360.7000000029802},{""stimulus"":""blank"",""time"":1661.5999999940395},{""stimulus"":""https://ziweizhang0304.github.io/Stats_learning_trig/img/Stim/FN_021_g.png"",""time"":1708},{""stimulus"":""blank"",""time"":2019.9000000059605},{""stimulus"":""https://ziweizhang0304.github.io/Stats_learning_trig/img/Stim/FN_019_g.png"",""time"":2040.7000000029802},{""stimulus"":""blank"",""time"":2344.7999999970198},{""stimulus"":""https://ziweizhang0304.github.io/Stats_learning_trig/img/Stim/FN_002_g.png"",""time"":2392.4000000059605},{""stimulus"":""blank"",""time"":2705.5},{""stimulus"":""https://ziweizhang0304.github.io/Stats_learning_trig/img/Stim/FN_022_g.png"",""time"":2721.5999999940395},{""stimulus"":""blank"",""time"":3032.2000000029802},{""stimulus"":""https://ziweizhang0304.github.io/Stats_learning_trig/img/Stim/FN_025_g.png"",""time"":3063.7000000029802},{""stimulus"":""blank"",""time"":3373.5},{""stimulus"":""https://ziweizhang0304.github.io/Stats_learning_trig/img/Stim/FN_023_g.png"",""time"":3404.5},{""stimulus"":""blank"",""time"":3714.5999999940395},{""stimulus"":""https://ziweizhang0304.github.io/Stats_learning_trig/img/Stim/FN_008_g.png"",""time"":3746.0999999940395},{""stimulus"":""blank"",""time"":4058.4000000059605},{""stimulus"":""https://ziweizhang0304.github.io/Stats_learning_trig/img/Stim/FN_017_g.png"",""time"":4090.5},{""stimulus"":""blank"",""time"":4403.0999999940395}]","[{""key_press"":32,""rt"":2447.4000000059605,""stimulus"":""https://ziweizhang0304.github.io/Stats_learning_trig/img/Stim/FN_002_g.png""}]","406.70000000298023","https://ziweizhang0304.github.io/Stats_learning_trig/img/Stim/FN_019_g.png","post_prac","","","","","","","","","","","","",""
"","html-keyboard-response","5","36343","0.0-3.0-0.0-2.0","3569.3999999910593","","","<p>Your reaction time for this trial was 406.7 ms.</p><p>Remember that you should only press the SPACEBAR when you see the shape presented at the beginning of the trial. </b> </p><p>Press enter to move on.</p>","13","","","","","","","","","","","","","","","","","",""
"","image-keyboard-response","6","39296","0.0-3.0-1.0-0.0","2952.2000000029802","","","https://ziweizhang0304.github.io/Stats_learning_trig/img/Stim/FN_005_g.png","13","","","","","","","","","","","","","","","","","",""
"","animation","7","43721","0.0-3.0-1.0-1.0","","","","","","[{""stimulus"":""https://ziweizhang0304.github.io/Stats_learning_trig/img/Stim/FN_023_g.png"",""time"":347.79999999701977},{""stimulus"":""blank"",""time"":660.2999999970198},{""stimulus"":""https://ziweizhang0304.github.io/Stats_learning_trig/img/Stim/FN_025_g.png"",""time"":691.8999999910593},{""stimulus"":""blank"",""time"":1002.2999999970198},{""stimulus"":""https://ziweizhang0304.github.io/Stats_learning_trig/img/Stim/FN_021_g.png"",""time"":1024.7000000029802},{""stimulus"":""blank"",""time"":1329.3999999910593},{""stimulus"":""https://ziweizhang0304.github.io/Stats_learning_trig/img/Stim/FN_004_g.png"",""time"":1360.5},{""stimulus"":""blank"",""time"":1675.0999999940395},{""stimulus"":""https://ziweizhang0304.github.io/Stats_learning_trig/img/Stim/FN_017_g.png"",""time"":1705.7000000029802},{""stimulus"":""blank"",""time"":2017},{""stimulus"":""https://ziweizhang0304.github.io/Stats_learning_trig/img/Stim/FN_009_g.png"",""time"":2047.7999999970198},{""stimulus"":""blank"",""time"":2356.2000000029802},{""stimulus"":""https://ziweizhang0304.github.io/Stats_learning_trig/img/Stim/FN_005_g.png"",""time"":2387.7000000029802},{""stimulus"":""blank"",""time"":2698},{""stimulus"":""https://ziweizhang0304.github.io/Stats_learning_trig/img/Stim/FN_010_g.png"",""time"":2729.7000000029802},{""stimulus"":""blank"",""time"":3040.7999999970198},{""stimulus"":""https://ziweizhang0304.github.io/Stats_learning_trig/img/Stim/FN_016_g.png"",""time"":3071.7000000029802},{""stimulus"":""blank"",""time"":3381.0999999940395},{""stimulus"":""https://ziweizhang0304.github.io/Stats_learning_trig/img/Stim/FN_022_g.png"",""time"":3402},{""stimulus"":""blank"",""time"":3707.5},{""stimulus"":""https://ziweizhang0304.github.io/Stats_learning_trig/img/Stim/FN_014_g.png"",""time"":3741.3999999910593},{""stimulus"":""blank"",""time"":4051.3999999910593},{""stimulus"":""https://ziweizhang0304.github.io/Stats_learning_trig/img/Stim/FN_002_g.png"",""time"":4080.5999999940395},{""stimulus"":""blank"",""time"":4394.0999999940395}]","[{""key_press"":32,""rt"":2782.5999999940395,""stimulus"":""https://ziweizhang0304.github.io/Stats_learning_trig/img/Stim/FN_010_g.png""}]","394.8999999910593","https://ziweizhang0304.github.io/Stats_learning_trig/img/Stim/FN_005_g.png","post_prac","","","","","","","","","","","","",""
"","html-keyboard-response","8","45567","0.0-3.0-1.0-2.0","1844.2999999970198","","","<p>Your reaction time for this trial was 394.9 ms.</p><p>Remember that you should only press the SPACEBAR when you see the shape presented at the beginning of the trial. </b> </p><p>Press enter to move on.</p>","13","","","","","","","","","","","","","","","","","",""
"","image-keyboard-response","9","47471","0.0-3.0-2.0-0.0","1903.8999999910593","","","https://ziweizhang0304.github.io/Stats_learning_trig/img/Stim/FN_005_g.png","13","","","","","","","","","","","","","","","","","",""
"","animation","10","51899","0.0-3.0-2.0-1.0","","","","","","[{""stimulus"":""https://ziweizhang0304.github.io/Stats_learning_trig/img/Stim/FN_025_g.png"",""time"":348},{""stimulus"":""blank"",""time"":655.3999999910593},{""stimulus"":""https://ziweizhang0304.github.io/Stats_learning_trig/img/Stim/FN_017_g.png"",""time"":686.7999999970198},{""stimulus"":""blank"",""time"":1001.5},{""stimulus"":""https://ziweizhang0304.github.io/Stats_learning_trig/img/Stim/FN_002_g.png"",""time"":1024.2000000029802},{""stimulus"":""blank"",""time"":1329.7000000029802},{""stimulus"":""https://ziweizhang0304.github.io/Stats_learning_trig/img/Stim/FN_009_g.png"",""time"":1361.5999999940395},{""stimulus"":""blank"",""time"":1674.2999999970198},{""stimulus"":""https://ziweizhang0304.github.io/Stats_learning_trig/img/Stim/FN_005_g.png"",""time"":1706.0999999940395},{""stimulus"":""blank"",""time"":2017.2999999970198},{""stimulus"":""https://ziweizhang0304.github.io/Stats_learning_trig/img/Stim/FN_010_g.png"",""time"":2048.7999999970198},{""stimulus"":""blank"",""time"":2359.2000000029802},{""stimulus"":""https://ziweizhang0304.github.io/Stats_learning_trig/img/Stim/FN_023_g.png"",""time"":2380.8999999910593},{""stimulus"":""blank"",""time"":2684.5},{""stimulus"":""https://ziweizhang0304.github.io/Stats_learning_trig/img/Stim/FN_016_g.png"",""time"":2720.7999999970198},{""stimulus"":""blank"",""time"":3028.5},{""stimulus"":""https://ziweizhang0304.github.io/Stats_learning_trig/img/Stim/FN_022_g.png"",""time"":3075.7999999970198},{""stimulus"":""blank"",""time"":3385},{""stimulus"":""https://ziweizhang0304.github.io/Stats_learning_trig/img/Stim/FN_021_g.png"",""time"":3401.0999999940395},{""stimulus"":""blank"",""time"":3713.2000000029802},{""stimulus"":""https://ziweizhang0304.github.io/Stats_learning_trig/img/Stim/FN_014_g.png"",""time"":3744.5999999940395},{""stimulus"":""blank"",""time"":4055},{""stimulus"":""https://ziweizhang0304.github.io/Stats_learning_trig/img/Stim/FN_004_g.png"",""time"":4086.2999999970198},{""stimulus"":""blank"",""time"":4396.20000000298}]","[{""key_press"":32,""rt"":2137.7000000029802,""stimulus"":""https://ziweizhang0304.github.io/Stats_learning_trig/img/Stim/FN_010_g.png""}]","431.6000000089407","https://ziweizhang0304.github.io/Stats_learning_trig/img/Stim/FN_005_g.png","post_prac","","","","","","","","","","","","",""
"","html-keyboard-response","11","53127","0.0-3.0-2.0-2.0","1227.2000000029802","","","<p>Your reaction time for this trial was 431.6 ms.</p><p>Remember that you should only press the SPACEBAR when you see the shape presented at the beginning of the trial. </b> </p><p>Press enter to move on.</p>","13","","","","","","","","","","","","","","","","","",""
"","instructions","12","55047","0.0-4.0","1919.7000000029802","","[{""page_index"":0,""viewing_time"":1919.7000000029802}]","","","","","","","","","","","","","","","","","","","",""
"","image-keyboard-response","13","56551","0.0-5.0-0.0-0.0","1503.5","","","https://ziweizhang0304.github.io/Stats_learning_trig/img/Stim/FN_009_g.png","13","","","","","","","","","","","","","","","","","",""
"","animation","14","60987","0.0-5.0-0.0-1.0","","","","","","[{""stimulus"":""https://ziweizhang0304.github.io/Stats_learning_trig/img/Stim/FN_025_g.png"",""time"":342.59999999403954},{""stimulus"":""blank"",""time"":652.7999999970198},{""stimulus"":""https://ziweizhang0304.github.io/Stats_learning_trig/img/Stim/FN_017_g.png"",""time"":680.2999999970198},{""stimulus"":""blank"",""time"":993.9000000059605},{""stimulus"":""https://ziweizhang0304.github.io/Stats_learning_trig/img/Stim/FN_002_g.png"",""time"":1024.7999999970198},{""stimulus"":""blank"",""time"":1337},{""stimulus"":""https://ziweizhang0304.github.io/Stats_learning_trig/img/Stim/FN_009_g.png"",""time"":1361.4000000059605},{""stimulus"":""blank"",""time"":1663.5},{""stimulus"":""https://ziweizhang0304.github.io/Stats_learning_trig/img/Stim/FN_005_g.png"",""time"":1710.2000000029802},{""stimulus"":""blank"",""time"":2024.2999999970198},{""stimulus"":""https://ziweizhang0304.github.io/Stats_learning_trig/img/Stim/FN_010_g.png"",""time"":2044.4000000059605},{""stimulus"":""blank"",""time"":2350.9000000059605},{""stimulus"":""https://ziweizhang0304.github.io/Stats_learning_trig/img/Stim/FN_023_g.png"",""time"":2381.4000000059605},{""stimulus"":""blank"",""time"":2692},{""stimulus"":""https://ziweizhang0304.github.io/Stats_learning_trig/img/Stim/FN_016_g.png"",""time"":2723},{""stimulus"":""blank"",""time"":3033.2000000029802},{""stimulus"":""https://ziweizhang0304.github.io/Stats_learning_trig/img/Stim/FN_022_g.png"",""time"":3065.4000000059605},{""stimulus"":""blank"",""time"":3375.9000000059605},{""stimulus"":""https://ziweizhang0304.github.io/Stats_learning_trig/img/Stim/FN_021_g.png"",""time"":3407.5},{""stimulus"":""blank"",""time"":3719.2000000029802},{""stimulus"":""https://ziweizhang0304.github.io/Stats_learning_trig/img/Stim/FN_014_g.png"",""time"":3751},{""stimulus"":""blank"",""time"":4059.5999999940395},{""stimulus"":""https://ziweizhang0304.github.io/Stats_learning_trig/img/Stim/FN_004_g.png"",""time"":4080.5999999940395},{""stimulus"":""blank"",""time"":4388.5}]","[{""key_press"":32,""rt"":1751.2999999970198,""stimulus"":""https://ziweizhang0304.github.io/Stats_learning_trig/img/Stim/FN_005_g.png""}]","389.8999999910593","https://ziweizhang0304.github.io/Stats_learning_trig/img/Stim/FN_009_g.png","post_TD","1","1361.4000000059605","1751.2999999970198","slow","4","1","5914b7b50a4b9d0001add64f","","","","","",""
"","image-keyboard-response","15","63279","0.0-5.0-1.0-0.0","2288.7999999970198","","","https://ziweizhang0304.github.io/Stats_learning_trig/img/Stim/FN_019_g.png","13","","","","","","","","","","","","","","","","","",""
"","animation","16","67712","0.0-5.0-1.0-1.0","","","","","","[{""stimulus"":""https://ziweizhang0304.github.io/Stats_learning_trig/img/Stim/FN_022_g.png"",""time"":342.20000000298023},{""stimulus"":""blank"",""time"":653.9000000059605},{""stimulus"":""https://ziweizhang0304.github.io/Stats_learning_trig/img/Stim/FN_002_g.png"",""time"":684.8000000119209},{""stimulus"":""blank"",""time"":994.8000000119209},{""stimulus"":""https://ziweizhang0304.github.io/Stats_learning_trig/img/Stim/FN_021_g.png"",""time"":1025.9000000059605},{""stimulus"":""blank"",""time"":1337.6000000089407},{""stimulus"":""https://ziweizhang0304.github.io/Stats_learning_trig/img/Stim/FN_017_g.png"",""time"":1369.2000000029802},{""stimulus"":""blank"",""time"":1678.300000011921},{""stimulus"":""https://ziweizhang0304.github.io/Stats_learning_trig/img/Stim/FN_004_g.png"",""time"":1710.2000000029802},{""stimulus"":""blank"",""time"":2020.800000011921},{""stimulus"":""https://ziweizhang0304.github.io/Stats_learning_trig/img/Stim/FN_016_g.png"",""time"":2052.300000011921},{""stimulus"":""blank"",""time"":2363.9000000059605},{""stimulus"":""https://ziweizhang0304.github.io/Stats_learning_trig/img/Stim/FN_019_g.png"",""time"":2383.1000000089407},{""stimulus"":""blank"",""time"":2694.1000000089407},{""stimulus"":""https://ziweizhang0304.github.io/Stats_learning_trig/img/Stim/FN_007_g.png"",""time"":2724.9000000059605},{""stimulus"":""blank"",""time"":3035.9000000059605},{""stimulus"":""https://ziweizhang0304.github.io/Stats_learning_trig/img/Stim/FN_008_g.png"",""time"":3068.300000011921},{""stimulus"":""blank"",""time"":3377.7000000029802},{""stimulus"":""https://ziweizhang0304.github.io/Stats_learning_trig/img/Stim/FN_023_g.png"",""time"":3409.1000000089407},{""stimulus"":""blank"",""time"":3717.5},{""stimulus"":""https://ziweizhang0304.github.io/Stats_learning_trig/img/Stim/FN_014_g.png"",""time"":3748.300000011921},{""stimulus"":""blank"",""time"":4058.9000000059605},{""stimulus"":""https://ziweizhang0304.github.io/Stats_learning_trig/img/Stim/FN_025_g.png"",""time"":4080.5},{""stimulus"":""blank"",""time"":4385.70000000298}]","[{""key_press"":32,""rt"":2783.2000000029802,""stimulus"":""https://ziweizhang0304.github.io/Stats_learning_trig/img/Stim/FN_007_g.png""}]","400.09999999403954","https://ziweizhang0304.github.io/Stats_learning_trig/img/Stim/FN_019_g.png","post_TD","2","2383.1000000089407","2783.2000000029802","fast","7","1","5914b7b50a4b9d0001add64f","","","","","",""
"","image-keyboard-response","17","68975","0.0-5.0-2.0-0.0","1262.3999999910593","","","https://ziweizhang0304.github.io/Stats_learning_trig/img/Stim/FN_009_g.png","13","","","","","","","","","","","","","","","","","",""
"","animation","18","73396","0.0-5.0-2.0-1.0","","","","","","[{""stimulus"":""https://ziweizhang0304.github.io/Stats_learning_trig/img/Stim/FN_023_g.png"",""time"":349.79999999701977},{""stimulus"":""blank"",""time"":663.5},{""stimulus"":""https://ziweizhang0304.github.io/Stats_learning_trig/img/Stim/FN_021_g.png"",""time"":694.4000000059605},{""stimulus"":""blank"",""time"":1005.5},{""stimulus"":""https://ziweizhang0304.github.io/Stats_learning_trig/img/Stim/FN_014_g.png"",""time"":1020.4000000059605},{""stimulus"":""blank"",""time"":1332.4000000059605},{""stimulus"":""https://ziweizhang0304.github.io/Stats_learning_trig/img/Stim/FN_002_g.png"",""time"":1361.7000000029802},{""stimulus"":""blank"",""time"":1662.4000000059605},{""stimulus"":""https://ziweizhang0304.github.io/Stats_learning_trig/img/Stim/FN_022_g.png"",""time"":1708.7999999970198},{""stimulus"":""blank"",""time"":2019.5999999940395},{""stimulus"":""https://ziweizhang0304.github.io/Stats_learning_trig/img/Stim/FN_004_g.png"",""time"":2050.2000000029802},{""stimulus"":""blank"",""time"":2359.2999999970198},{""stimulus"":""https://ziweizhang0304.github.io/Stats_learning_trig/img/Stim/FN_009_g.png"",""time"":2391.2999999970198},{""stimulus"":""blank"",""time"":2701.4000000059605},{""stimulus"":""https://ziweizhang0304.github.io/Stats_learning_trig/img/Stim/FN_005_g.png"",""time"":2720.5999999940395},{""stimulus"":""blank"",""time"":3028.9000000059605},{""stimulus"":""https://ziweizhang0304.github.io/Stats_learning_trig/img/Stim/FN_010_g.png"",""time"":3060.5},{""stimulus"":""blank"",""time"":3372.5},{""stimulus"":""https://ziweizhang0304.github.io/Stats_learning_trig/img/Stim/FN_016_g.png"",""time"":3403.2000000029802},{""stimulus"":""blank"",""time"":3714.2000000029802},{""stimulus"":""https://ziweizhang0304.github.io/Stats_learning_trig/img/Stim/FN_025_g.png"",""time"":3746.0999999940395},{""stimulus"":""blank"",""time"":4059.5999999940395},{""stimulus"":""https://ziweizhang0304.github.io/Stats_learning_trig/img/Stim/FN_017_g.png"",""time"":4090.5999999940395},{""stimulus"":""blank"",""time"":4400.70000000298}]","[{""key_press"":32,""rt"":2759.5,""stimulus"":""https://ziweizhang0304.github.io/Stats_learning_trig/img/Stim/FN_005_g.png""}]","368.20000000298023","https://ziweizhang0304.github.io/Stats_learning_trig/img/Stim/FN_009_g.png","post_TD","3","2391.2999999970198","2759.5","slow","7","1","5914b7b50a4b9d0001add64f","","","","","",""
"","image-keyboard-response","19","76055","0.0-5.0-3.0-0.0","2658.3999999910593","","","https://ziweizhang0304.github.io/Stats_learning_trig/img/Stim/FN_007_g.png","13","","","","","","","","","","","","","","","","","",""
"","animation","20","80481","0.0-5.0-3.0-1.0","","","","","","[{""stimulus"":""https://ziweizhang0304.github.io/Stats_learning_trig/img/Stim/FN_023_g.png"",""time"":342},{""stimulus"":""blank"",""time"":652.5999999940395},{""stimulus"":""https://ziweizhang0304.github.io/Stats_learning_trig/img/Stim/FN_017_g.png"",""time"":681.2000000029802},{""stimulus"":""blank"",""time"":995.2000000029802},{""stimulus"":""https://ziweizhang0304.github.io/Stats_learning_trig/img/Stim/FN_025_g.png"",""time"":1027},{""stimulus"":""blank"",""time"":1339.3999999910593},{""stimulus"":""https://ziweizhang0304.github.io/Stats_learning_trig/img/Stim/FN_004_g.png"",""time"":1369.8999999910593},{""stimulus"":""blank"",""time"":1679.8999999910593},{""stimulus"":""https://ziweizhang0304.github.io/Stats_learning_trig/img/Stim/FN_002_g.png"",""time"":1710.5},{""stimulus"":""blank"",""time"":2020.7999999970198},{""stimulus"":""https://ziweizhang0304.github.io/Stats_learning_trig/img/Stim/FN_019_g.png"",""time"":2041.5},{""stimulus"":""blank"",""time"":2347.7000000029802},{""stimulus"":""https://ziweizhang0304.github.io/Stats_learning_trig/img/Stim/FN_007_g.png"",""time"":2394.2999999970198},{""stimulus"":""blank"",""time"":2702.7999999970198},{""stimulus"":""https://ziweizhang0304.github.io/Stats_learning_trig/img/Stim/FN_008_g.png"",""time"":2724.0999999940395},{""stimulus"":""blank"",""time"":3029.5999999940395},{""stimulus"":""https://ziweizhang0304.github.io/Stats_learning_trig/img/Stim/FN_016_g.png"",""time"":3075.5},{""stimulus"":""blank"",""time"":3384.2999999970198},{""stimulus"":""https://ziweizhang0304.github.io/Stats_learning_trig/img/Stim/FN_022_g.png"",""time"":3416.7000000029802},{""stimulus"":""blank"",""time"":3730.2999999970198},{""stimulus"":""https://ziweizhang0304.github.io/Stats_learning_trig/img/Stim/FN_021_g.png"",""time"":3745.7000000029802},{""stimulus"":""blank"",""time"":4055.2000000029802},{""stimulus"":""https://ziweizhang0304.github.io/Stats_learning_trig/img/Stim/FN_014_g.png"",""time"":4086},{""stimulus"":""blank"",""time"":4395.20000000298}]","[{""key_press"":32,""rt"":2831.6000000089407,""stimulus"":""https://ziweizhang0304.github.io/Stats_learning_trig/img/Stim/FN_008_g.png""}]","437.30000001192093","https://ziweizhang0304.github.io/Stats_learning_trig/img/Stim/FN_007_g.png","post_TD","4","2394.2999999970198","2831.6000000089407","fast","7","2","5914b7b50a4b9d0001add64f","","","","","",""
"","image-keyboard-response","21","82543","0.0-5.0-4.0-0.0","2061.3999999910593","","","https://ziweizhang0304.github.io/Stats_learning_trig/img/Stim/FN_008_g.png","13","","","","","","","","","","","","","","","","","",""
"","animation","22","86963","0.0-5.0-4.0-1.0","","","","","","[{""stimulus"":""https://ziweizhang0304.github.io/Stats_learning_trig/img/Stim/FN_014_g.png"",""time"":343.8999999910593},{""stimulus"":""blank"",""time"":655.3999999910593},{""stimulus"":""https://ziweizhang0304.github.io/Stats_learning_trig/img/Stim/FN_023_g.png"",""time"":686.2999999970198},{""stimulus"":""blank"",""time"":997},{""stimulus"":""https://ziweizhang0304.github.io/Stats_learning_trig/img/Stim/FN_022_g.png"",""time"":1029},{""stimulus"":""blank"",""time"":1337.8999999910593},{""stimulus"":""https://ziweizhang0304.github.io/Stats_learning_trig/img/Stim/FN_019_g.png"",""time"":1368.8999999910593},{""stimulus"":""blank"",""time"":1681.7999999970198},{""stimulus"":""https://ziweizhang0304.github.io/Stats_learning_trig/img/Stim/FN_007_g.png"",""time"":1702.5999999940395},{""stimulus"":""blank"",""time"":2009.7000000029802},{""stimulus"":""https://ziweizhang0304.github.io/Stats_learning_trig/img/Stim/FN_008_g.png"",""time"":2041.3999999910593},{""stimulus"":""blank"",""time"":2352.3999999910593},{""stimulus"":""https://ziweizhang0304.github.io/Stats_learning_trig/img/Stim/FN_016_g.png"",""time"":2383.0999999940395},{""stimulus"":""blank"",""time"":2693.8999999910593},{""stimulus"":""https://ziweizhang0304.github.io/Stats_learning_trig/img/Stim/FN_021_g.png"",""time"":2724.3999999910593},{""stimulus"":""blank"",""time"":3037.5},{""stimulus"":""https://ziweizhang0304.github.io/Stats_learning_trig/img/Stim/FN_004_g.png"",""time"":3068.0999999940395},{""stimulus"":""blank"",""time"":3381.0999999940395},{""stimulus"":""https://ziweizhang0304.github.io/Stats_learning_trig/img/Stim/FN_025_g.png"",""time"":3412.5999999940395},{""stimulus"":""blank"",""time"":3721.5},{""stimulus"":""https://ziweizhang0304.github.io/Stats_learning_trig/img/Stim/FN_002_g.png"",""time"":3741.2000000029802},{""stimulus"":""blank"",""time"":4048.3999999910593},{""stimulus"":""https://ziweizhang0304.github.io/Stats_learning_trig/img/Stim/FN_017_g.png"",""time"":4094.2999999970198},{""stimulus"":""blank"",""time"":4404.70000000298}]","[{""key_press"":32,""rt"":2519.6000000089407,""stimulus"":""https://ziweizhang0304.github.io/Stats_learning_trig/img/Stim/FN_016_g.png""}]","478.2000000178814","https://ziweizhang0304.github.io/Stats_learning_trig/img/Stim/FN_008_g.png","post_TD","5","2041.3999999910593","2519.6000000089407","fast","6","3","5914b7b50a4b9d0001add64f","","","","","",""
"","image-keyboard-response","23","88103","0.0-5.0-5.0-0.0","1139.2000000029802","","","https://ziweizhang0304.github.io/Stats_learning_trig/img/Stim/FN_009_g.png","13","","","","","","","","","","","","","","","","","",""
"","animation","24","92527","0.0-5.0-5.0-1.0","","","","","","[{""stimulus"":""https://ziweizhang0304.github.io/Stats_learning_trig/img/Stim/FN_023_g.png"",""time"":352.20000000298023},{""stimulus"":""blank"",""time"":662.2999999970198},{""stimulus"":""https://ziweizhang0304.github.io/Stats_learning_trig/img/Stim/FN_025_g.png"",""time"":694},{""stimulus"":""blank"",""time"":1003.2000000029802},{""stimulus"":""https://ziweizhang0304.github.io/Stats_learning_trig/img/Stim/FN_021_g.png"",""time"":1033.8999999910593},{""stimulus"":""blank"",""time"":1342.0999999940395},{""stimulus"":""https://ziweizhang0304.github.io/Stats_learning_trig/img/Stim/FN_004_g.png"",""time"":1372.7999999970198},{""stimulus"":""blank"",""time"":1683.7000000029802},{""stimulus"":""https://ziweizhang0304.github.io/Stats_learning_trig/img/Stim/FN_017_g.png"",""time"":1700.5999999940395},{""stimulus"":""blank"",""time"":2010.7000000029802},{""stimulus"":""https://ziweizhang0304.github.io/Stats_learning_trig/img/Stim/FN_009_g.png"",""time"":2042.2000000029802},{""stimulus"":""blank"",""time"":2353.7999999970198},{""stimulus"":""https://ziweizhang0304.github.io/Stats_learning_trig/img/Stim/FN_005_g.png"",""time"":2385.7000000029802},{""stimulus"":""blank"",""time"":2697.7000000029802},{""stimulus"":""https://ziweizhang0304.github.io/Stats_learning_trig/img/Stim/FN_010_g.png"",""time"":2729.0999999940395},{""stimulus"":""blank"",""time"":3039.2999999970198},{""stimulus"":""https://ziweizhang0304.github.io/Stats_learning_trig/img/Stim/FN_016_g.png"",""time"":3070.7999999970198},{""stimulus"":""blank"",""time"":3384.2999999970198},{""stimulus"":""https://ziweizhang0304.github.io/Stats_learning_trig/img/Stim/FN_022_g.png"",""time"":3400.5},{""stimulus"":""blank"",""time"":3713},{""stimulus"":""https://ziweizhang0304.github.io/Stats_learning_trig/img/Stim/FN_014_g.png"",""time"":3744.7999999970198},{""stimulus"":""blank"",""time"":4055.0999999940395},{""stimulus"":""https://ziweizhang0304.github.io/Stats_learning_trig/img/Stim/FN_002_g.png"",""time"":4086.2999999970198},{""stimulus"":""blank"",""time"":4393.20000000298}]","[{""key_press"":32,""rt"":2463.2000000029802,""stimulus"":""https://ziweizhang0304.github.io/Stats_learning_trig/img/Stim/FN_005_g.png""}]","421","https://ziweizhang0304.github.io/Stats_learning_trig/img/Stim/FN_009_g.png","post_TD","6","2042.2000000029802","2463.2000000029802","slow","6","1","5914b7b50a4b9d0001add64f","","","","","",""
"","image-keyboard-response","25","94111","0.0-5.0-6.0-0.0","1583.0999999940395","","","https://ziweizhang0304.github.io/Stats_learning_trig/img/Stim/FN_005_g.png","13","","","","","","","","","","","","","","","","","",""
"","animation","26","98532","0.0-5.0-6.0-1.0","","","","","","[{""stimulus"":""https://ziweizhang0304.github.io/Stats_learning_trig/img/Stim/FN_023_g.png"",""time"":344.3999999910593},{""stimulus"":""blank"",""time"":659},{""stimulus"":""https://ziweizhang0304.github.io/Stats_learning_trig/img/Stim/FN_021_g.png"",""time"":684.5999999940395},{""stimulus"":""blank"",""time"":1000.0999999940395},{""stimulus"":""https://ziweizhang0304.github.io/Stats_learning_trig/img/Stim/FN_014_g.png"",""time"":1031.0999999940395},{""stimulus"":""blank"",""time"":1344.2999999970198},{""stimulus"":""https://ziweizhang0304.github.io/Stats_learning_trig/img/Stim/FN_002_g.png"",""time"":1361.2999999970198},{""stimulus"":""blank"",""time"":1673.699999988079},{""stimulus"":""https://ziweizhang0304.github.io/Stats_learning_trig/img/Stim/FN_022_g.png"",""time"":1705.199999988079},{""stimulus"":""blank"",""time"":2016.7999999970198},{""stimulus"":""https://ziweizhang0304.github.io/Stats_learning_trig/img/Stim/FN_004_g.png"",""time"":2047.699999988079},{""stimulus"":""blank"",""time"":2361.3999999910593},{""stimulus"":""https://ziweizhang0304.github.io/Stats_learning_trig/img/Stim/FN_009_g.png"",""time"":2391.699999988079},{""stimulus"":""blank"",""time"":2703.2999999970198},{""stimulus"":""https://ziweizhang0304.github.io/Stats_learning_trig/img/Stim/FN_005_g.png"",""time"":2735.5},{""stimulus"":""blank"",""time"":3048.0999999940395},{""stimulus"":""https://ziweizhang0304.github.io/Stats_learning_trig/img/Stim/FN_010_g.png"",""time"":3063.5},{""stimulus"":""blank"",""time"":3377.5999999940395},{""stimulus"":""https://ziweizhang0304.github.io/Stats_learning_trig/img/Stim/FN_016_g.png"",""time"":3408.5999999940395},{""stimulus"":""blank"",""time"":3720.199999988079},{""stimulus"":""https://ziweizhang0304.github.io/Stats_learning_trig/img/Stim/FN_025_g.png"",""time"":3741.3999999910593},{""stimulus"":""blank"",""time"":4047},{""stimulus"":""https://ziweizhang0304.github.io/Stats_learning_trig/img/Stim/FN_017_g.png"",""time"":4080.699999988079},{""stimulus"":""blank"",""time"":4389.699999988079}]","[{""key_press"":32,""rt"":3103.199999988079,""stimulus"":""https://ziweizhang0304.github.io/Stats_learning_trig/img/Stim/FN_010_g.png""}]","367.69999998807907","https://ziweizhang0304.github.io/Stats_learning_trig/img/Stim/FN_005_g.png","post_TD","7","2735.5","3103.199999988079","slow","8","2","5914b7b50a4b9d0001add64f","","","","","",""
"","image-keyboard-response","27","101127","0.0-5.0-7.0-0.0","2594.7000000029802","","","https://ziweizhang0304.github.io/Stats_learning_trig/img/Stim/FN_010_g.png","13","","","","","","","","","","","","","","","","","",""
"","animation","28","105548","0.0-5.0-7.0-1.0","","","","","","[{""stimulus"":""https://ziweizhang0304.github.io/Stats_learning_trig/img/Stim/FN_023_g.png"",""time"":342.79999999701977},{""stimulus"":""blank"",""time"":657.4000000059605},{""stimulus"":""https://ziweizhang0304.github.io/Stats_learning_trig/img/Stim/FN_025_g.png"",""time"":688.7000000029802},{""stimulus"":""blank"",""time"":998.9000000059605},{""stimulus"":""https://ziweizhang0304.github.io/Stats_learning_trig/img/Stim/FN_021_g.png"",""time"":1030.2999999970198},{""stimulus"":""blank"",""time"":1339},{""stimulus"":""https://ziweizhang0304.github.io/Stats_learning_trig/img/Stim/FN_004_g.png"",""time"":1370.5},{""stimulus"":""blank"",""time"":1682.7000000029802},{""stimulus"":""https://ziweizhang0304.github.io/Stats_learning_trig/img/Stim/FN_017_g.png"",""time"":1701.7000000029802},{""stimulus"":""blank"",""time"":2009.7999999970198},{""stimulus"":""https://ziweizhang0304.github.io/Stats_learning_trig/img/Stim/FN_009_g.png"",""time"":2040.7000000029802},{""stimulus"":""blank"",""time"":2350.0999999940395},{""stimulus"":""https://ziweizhang0304.github.io/Stats_learning_trig/img/Stim/FN_005_g.png"",""time"":2382.2000000029802},{""stimulus"":""blank"",""time"":2690.7999999970198},{""stimulus"":""https://ziweizhang0304.github.io/Stats_learning_trig/img/Stim/FN_010_g.png"",""time"":2722},{""stimulus"":""blank"",""time"":3034},{""stimulus"":""https://ziweizhang0304.github.io/Stats_learning_trig/img/Stim/FN_016_g.png"",""time"":3064.7999999970198},{""stimulus"":""blank"",""time"":3375.4000000059605},{""stimulus"":""https://ziweizhang0304.github.io/Stats_learning_trig/img/Stim/FN_022_g.png"",""time"":3406.5},{""stimulus"":""blank"",""time"":3717.2999999970198},{""stimulus"":""https://ziweizhang0304.github.io/Stats_learning_trig/img/Stim/FN_014_g.png"",""time"":3740.7999999970198},{""stimulus"":""blank"",""time"":4046},{""stimulus"":""https://ziweizhang0304.github.io/Stats_learning_trig/img/Stim/FN_002_g.png"",""time"":4092.2000000029802},{""stimulus"":""blank"",""time"":4392.4000000059605}]","[{""key_press"":32,""rt"":3112.1000000089407,""stimulus"":""https://ziweizhang0304.github.io/Stats_learning_trig/img/Stim/FN_016_g.png""}]","390.1000000089407","https://ziweizhang0304.github.io/Stats_learning_trig/img/Stim/FN_010_g.png","post_TD","8","2722","3112.1000000089407","slow","8","3","5914b7b50a4b9d0001add64f","","","","","",""
"","image-keyboard-response","29","108510","0.0-5.0-8.0-0.0","2961.7999999970198","","","https://ziweizhang0304.github.io/Stats_learning_trig/img/Stim/FN_010_g.png","13","","","","","","","","","","","","","","","","","",""
"","animation","30","112932","0.0-5.0-8.0-1.0","","","","","","[{""stimulus"":""https://ziweizhang0304.github.io/Stats_learning_trig/img/Stim/FN_025_g.png"",""time"":344.3999999910593},{""stimulus"":""blank"",""time"":654.8999999910593},{""stimulus"":""https://ziweizhang0304.github.io/Stats_learning_trig/img/Stim/FN_017_g.png"",""time"":680.5},{""stimulus"":""blank"",""time"":981.7999999970198},{""stimulus"":""https://ziweizhang0304.github.io/Stats_learning_trig/img/Stim/FN_002_g.png"",""time"":1028.5},{""stimulus"":""blank"",""time"":1338.0999999940395},{""stimulus"":""https://ziweizhang0304.github.io/Stats_learning_trig/img/Stim/FN_009_g.png"",""time"":1369.7999999970198},{""stimulus"":""blank"",""time"":1678.8999999910593},{""stimulus"":""https://ziweizhang0304.github.io/Stats_learning_trig/img/Stim/FN_005_g.png"",""time"":1710.699999988079},{""stimulus"":""blank"",""time"":2020.0999999940395},{""stimulus"":""https://ziweizhang0304.github.io/Stats_learning_trig/img/Stim/FN_010_g.png"",""time"":2051.2999999970198},{""stimulus"":""blank"",""time"":2361.7999999970198},{""stimulus"":""https://ziweizhang0304.github.io/Stats_learning_trig/img/Stim/FN_023_g.png"",""time"":2381.7999999970198},{""stimulus"":""blank"",""time"":2688.7999999970198},{""stimulus"":""https://ziweizhang0304.github.io/Stats_learning_trig/img/Stim/FN_016_g.png"",""time"":2735.699999988079},{""stimulus"":""blank"",""time"":3044.7999999970198},{""stimulus"":""https://ziweizhang0304.github.io/Stats_learning_trig/img/Stim/FN_022_g.png"",""time"":3060.8999999910593},{""stimulus"":""blank"",""time"":3370.699999988079},{""stimulus"":""https://ziweizhang0304.github.io/Stats_learning_trig/img/Stim/FN_021_g.png"",""time"":3401.5999999940395},{""stimulus"":""blank"",""time"":3713.699999988079},{""stimulus"":""https://ziweizhang0304.github.io/Stats_learning_trig/img/Stim/FN_014_g.png"",""time"":3744.8999999910593},{""stimulus"":""blank"",""time"":4056.3999999910593},{""stimulus"":""https://ziweizhang0304.github.io/Stats_learning_trig/img/Stim/FN_004_g.png"",""time"":4087.5},{""stimulus"":""blank"",""time"":4400.5999999940395}]","[{""key_press"":32,""rt"":2375.9000000059605,""stimulus"":""blank""}]","324.6000000089407","https://ziweizhang0304.github.io/Stats_learning_trig/img/Stim/FN_010_g.png","post_TD","9","2051.2999999970198","2375.9000000059605","slow","6","3","5914b7b50a4b9d0001add64f","","","","","",""
"","image-keyboard-response","31","113895","0.0-5.0-9.0-0.0","962.5","","","https://ziweizhang0304.github.io/Stats_learning_trig/img/Stim/FN_010_g.png","13","","","","","","","","","","","","","","","","","",""
"","animation","32","118329","0.0-5.0-9.0-1.0","","","","","","[{""stimulus"":""https://ziweizhang0304.github.io/Stats_learning_trig/img/Stim/FN_016_g.png"",""time"":355.79999999701977},{""stimulus"":""blank"",""time"":671.1000000089407},{""stimulus"":""https://ziweizhang0304.github.io/Stats_learning_trig/img/Stim/FN_002_g.png"",""time"":683.9000000059605},{""stimulus"":""blank"",""time"":999.4000000059605},{""stimulus"":""https://ziweizhang0304.github.io/Stats_learning_trig/img/Stim/FN_017_g.png"",""time"":1030.7999999970198},{""stimulus"":""blank"",""time"":1342.2999999970198},{""stimulus"":""https://ziweizhang0304.github.io/Stats_learning_trig/img/Stim/FN_023_g.png"",""time"":1372.7000000029802},{""stimulus"":""blank"",""time"":1682},{""stimulus"":""https://ziweizhang0304.github.io/Stats_learning_trig/img/Stim/FN_009_g.png"",""time"":1700.5},{""stimulus"":""blank"",""time"":2010.2999999970198},{""stimulus"":""https://ziweizhang0304.github.io/Stats_learning_trig/img/Stim/FN_005_g.png"",""time"":2041.7999999970198},{""stimulus"":""blank"",""time"":2353.2999999970198},{""stimulus"":""https://ziweizhang0304.github.io/Stats_learning_trig/img/Stim/FN_010_g.png"",""time"":2383.9000000059605},{""stimulus"":""blank"",""time"":2693.2999999970198},{""stimulus"":""https://ziweizhang0304.github.io/Stats_learning_trig/img/Stim/FN_022_g.png"",""time"":2721.4000000059605},{""stimulus"":""blank"",""time"":3034.5},{""stimulus"":""https://ziweizhang0304.github.io/Stats_learning_trig/img/Stim/FN_021_g.png"",""time"":3065.6000000089407},{""stimulus"":""blank"",""time"":3374.9000000059605},{""stimulus"":""https://ziweizhang0304.github.io/Stats_learning_trig/img/Stim/FN_014_g.png"",""time"":3406.5},{""stimulus"":""blank"",""time"":3718.7000000029802},{""stimulus"":""https://ziweizhang0304.github.io/Stats_learning_trig/img/Stim/FN_004_g.png"",""time"":3741.1000000089407},{""stimulus"":""blank"",""time"":4043.1000000089407},{""stimulus"":""https://ziweizhang0304.github.io/Stats_learning_trig/img/Stim/FN_025_g.png"",""time"":4081.2999999970198},{""stimulus"":""blank"",""time"":4388}]","[{""key_press"":32,""rt"":2791.2999999970198,""stimulus"":""https://ziweizhang0304.github.io/Stats_learning_trig/img/Stim/FN_022_g.png""}]","407.3999999910593","https://ziweizhang0304.github.io/Stats_learning_trig/img/Stim/FN_010_g.png","post_TD","10","2383.9000000059605","2791.2999999970198","slow","7","3","5914b7b50a4b9d0001add64f","","","","","",""
"","image-keyboard-response","33","119039","0.0-5.0-10.0-0.0","708.7999999970198","","","https://ziweizhang0304.github.io/Stats_learning_trig/img/Stim/FN_007_g.png","13","","","","","","","","","","","","","","","","","",""
"","animation","34","123473","0.0-5.0-10.0-1.0","","","","","","[{""stimulus"":""https://ziweizhang0304.github.io/Stats_learning_trig/img/Stim/FN_022_g.png"",""time"":345},{""stimulus"":""blank"",""time"":654.7999999970198},{""stimulus"":""https://ziweizhang0304.github.io/Stats_learning_trig/img/Stim/FN_002_g.png"",""time"":686.7999999970198},{""stimulus"":""blank"",""time"":996.5},{""stimulus"":""https://ziweizhang0304.github.io/Stats_learning_trig/img/Stim/FN_021_g.png"",""time"":1028.3999999910593},{""stimulus"":""blank"",""time"":1338.5999999940395},{""stimulus"":""https://ziweizhang0304.github.io/Stats_learning_trig/img/Stim/FN_017_g.png"",""time"":1369},{""stimulus"":""blank"",""time"":1679},{""stimulus"":""https://ziweizhang0304.github.io/Stats_learning_trig/img/Stim/FN_004_g.png"",""time"":1710.2000000029802},{""stimulus"":""blank"",""time"":2019.3999999910593},{""stimulus"":""https://ziweizhang0304.github.io/Stats_learning_trig/img/Stim/FN_016_g.png"",""time"":2040.8999999910593},{""stimulus"":""blank"",""time"":2347.7000000029802},{""stimulus"":""https://ziweizhang0304.github.io/Stats_learning_trig/img/Stim/FN_019_g.png"",""time"":2393.8999999910593},{""stimulus"":""blank"",""time"":2706.2999999970198},{""stimulus"":""https://ziweizhang0304.github.io/Stats_learning_trig/img/Stim/FN_007_g.png"",""time"":2722.3999999910593},{""stimulus"":""blank"",""time"":3032.5},{""stimulus"":""https://ziweizhang0304.github.io/Stats_learning_trig/img/Stim/FN_008_g.png"",""time"":3063.7999999970198},{""stimulus"":""blank"",""time"":3375},{""stimulus"":""https://ziweizhang0304.github.io/Stats_learning_trig/img/Stim/FN_023_g.png"",""time"":3407.2999999970198},{""stimulus"":""blank"",""time"":3719.7000000029802},{""stimulus"":""https://ziweizhang0304.github.io/Stats_learning_trig/img/Stim/FN_014_g.png"",""time"":3750.7000000029802},{""stimulus"":""blank"",""time"":4060.2000000029802},{""stimulus"":""https://ziweizhang0304.github.io/Stats_learning_trig/img/Stim/FN_025_g.png"",""time"":4081.7000000029802},{""stimulus"":""blank"",""time"":4387.20000000298}]","[{""key_press"":32,""rt"":3112.6000000089407,""stimulus"":""https://ziweizhang0304.github.io/Stats_learning_trig/img/Stim/FN_008_g.png""}]","390.2000000178814","https://ziweizhang0304.github.io/Stats_learning_trig/img/Stim/FN_007_g.png","post_TD","11","2722.3999999910593","3112.6000000089407","fast","8","2","5914b7b50a4b9d0001add64f","","","","","",""
"","image-keyboard-response","35","124135","0.0-5.0-11.0-0.0","659.2000000029802","","","https://ziweizhang0304.github.io/Stats_learning_trig/img/Stim/FN_005_g.png","13","","","","","","","","","","","","","","","","","",""
"","animation","36","128566","0.0-5.0-11.0-1.0","","","","","","[{""stimulus"":""https://ziweizhang0304.github.io/Stats_learning_trig/img/Stim/FN_023_g.png"",""time"":354.1000000089407},{""stimulus"":""blank"",""time"":666.7000000029802},{""stimulus"":""https://ziweizhang0304.github.io/Stats_learning_trig/img/Stim/FN_025_g.png"",""time"":682.9000000059605},{""stimulus"":""blank"",""time"":992.9000000059605},{""stimulus"":""https://ziweizhang0304.github.io/Stats_learning_trig/img/Stim/FN_021_g.png"",""time"":1023.4000000059605},{""stimulus"":""blank"",""time"":1334.2000000029802},{""stimulus"":""https://ziweizhang0304.github.io/Stats_learning_trig/img/Stim/FN_004_g.png"",""time"":1361.800000011921},{""stimulus"":""blank"",""time"":1674.6000000089407},{""stimulus"":""https://ziweizhang0304.github.io/Stats_learning_trig/img/Stim/FN_017_g.png"",""time"":1705.5},{""stimulus"":""blank"",""time"":2015.2000000029802},{""stimulus"":""https://ziweizhang0304.github.io/Stats_learning_trig/img/Stim/FN_009_g.png"",""time"":2046.2000000029802},{""stimulus"":""blank"",""time"":2355},{""stimulus"":""https://ziweizhang0304.github.io/Stats_learning_trig/img/Stim/FN_005_g.png"",""time"":2387.9000000059605},{""stimulus"":""blank"",""time"":2698.4000000059605},{""stimulus"":""https://ziweizhang0304.github.io/Stats_learning_trig/img/Stim/FN_010_g.png"",""time"":2730.4000000059605},{""stimulus"":""blank"",""time"":3040.800000011921},{""stimulus"":""https://ziweizhang0304.github.io/Stats_learning_trig/img/Stim/FN_016_g.png"",""time"":3060.300000011921},{""stimulus"":""blank"",""time"":3369.5},{""stimulus"":""https://ziweizhang0304.github.io/Stats_learning_trig/img/Stim/FN_022_g.png"",""time"":3400.6000000089407},{""stimulus"":""blank"",""time"":3713.800000011921},{""stimulus"":""https://ziweizhang0304.github.io/Stats_learning_trig/img/Stim/FN_014_g.png"",""time"":3745.7000000029802},{""stimulus"":""blank"",""time"":4056},{""stimulus"":""https://ziweizhang0304.github.io/Stats_learning_trig/img/Stim/FN_002_g.png"",""time"":4086.7000000029802},{""stimulus"":""blank"",""time"":4399.9000000059605}]","[{""key_press"":32,""rt"":2767.1000000089407,""stimulus"":""https://ziweizhang0304.github.io/Stats_learning_trig/img/Stim/FN_010_g.png""}]","379.20000000298023","https://ziweizhang0304.github.io/Stats_learning_trig/img/Stim/FN_005_g.png","post_TD","12","2387.9000000059605","2767.1000000089407","slow","7","2","5914b7b50a4b9d0001add64f","","","","","",""
"","image-keyboard-response","37","129199","0.0-5.0-12.0-0.0","631.8999999910593","","","https://ziweizhang0304.github.io/Stats_learning_trig/img/Stim/FN_019_g.png","13","","","","","","","","","","","","","","","","","",""
"","animation","38","133630","0.0-5.0-12.0-1.0","","","","","","[{""stimulus"":""https://ziweizhang0304.github.io/Stats_learning_trig/img/Stim/FN_023_g.png"",""time"":343.8999999910593},{""stimulus"":""blank"",""time"":657.0999999940395},{""stimulus"":""https://ziweizhang0304.github.io/Stats_learning_trig/img/Stim/FN_017_g.png"",""time"":681.0999999940395},{""stimulus"":""blank"",""time"":984},{""stimulus"":""https://ziweizhang0304.github.io/Stats_learning_trig/img/Stim/FN_025_g.png"",""time"":1031.2999999970198},{""stimulus"":""blank"",""time"":1342.5999999940395},{""stimulus"":""https://ziweizhang0304.github.io/Stats_learning_trig/img/Stim/FN_004_g.png"",""time"":1373.5},{""stimulus"":""blank"",""time"":1683.2999999970198},{""stimulus"":""https://ziweizhang0304.github.io/Stats_learning_trig/img/Stim/FN_002_g.png"",""time"":1701.0999999940395},{""stimulus"":""blank"",""time"":2006.3999999910593},{""stimulus"":""https://ziweizhang0304.github.io/Stats_learning_trig/img/Stim/FN_019_g.png"",""time"":2053.2000000029802},{""stimulus"":""blank"",""time"":2367.7999999970198},{""stimulus"":""https://ziweizhang0304.github.io/Stats_learning_trig/img/Stim/FN_007_g.png"",""time"":2383.0999999940395},{""stimulus"":""blank"",""time"":2695.7000000029802},{""stimulus"":""https://ziweizhang0304.github.io/Stats_learning_trig/img/Stim/FN_008_g.png"",""time"":2726.2999999970198},{""stimulus"":""blank"",""time"":3033.5},{""stimulus"":""https://ziweizhang0304.github.io/Stats_learning_trig/img/Stim/FN_016_g.png"",""time"":3064.8999999910593},{""stimulus"":""blank"",""time"":3376},{""stimulus"":""https://ziweizhang0304.github.io/Stats_learning_trig/img/Stim/FN_022_g.png"",""time"":3407.7999999970198},{""stimulus"":""blank"",""time"":3718.5},{""stimulus"":""https://ziweizhang0304.github.io/Stats_learning_trig/img/Stim/FN_021_g.png"",""time"":3749.5},{""stimulus"":""blank"",""time"":4059.2000000029802},{""stimulus"":""https://ziweizhang0304.github.io/Stats_learning_trig/img/Stim/FN_014_g.png"",""time"":4080.5},{""stimulus"":""blank"",""time"":4381.0999999940395}]","[{""key_press"":32,""rt"":2440.7000000029802,""stimulus"":""https://ziweizhang0304.github.io/Stats_learning_trig/img/Stim/FN_007_g.png""}]","387.5","https://ziweizhang0304.github.io/Stats_learning_trig/img/Stim/FN_019_g.png","post_TD","13","2053.2000000029802","2440.7000000029802","fast","6","1","5914b7b50a4b9d0001add64f","","","","","",""
"","image-keyboard-response","39","134271","0.0-5.0-13.0-0.0","637.5999999940395","","","https://ziweizhang0304.github.io/Stats_learning_trig/img/Stim/FN_007_g.png","13","","","","","","","","","","","","","","","","","",""
"","animation","40","138696","0.0-5.0-13.0-1.0","","","","","","[{""stimulus"":""https://ziweizhang0304.github.io/Stats_learning_trig/img/Stim/FN_014_g.png"",""time"":355},{""stimulus"":""blank"",""time"":667.2000000029802},{""stimulus"":""https://ziweizhang0304.github.io/Stats_learning_trig/img/Stim/FN_023_g.png"",""time"":682.5},{""stimulus"":""blank"",""time"":992.6000000089407},{""stimulus"":""https://ziweizhang0304.github.io/Stats_learning_trig/img/Stim/FN_022_g.png"",""time"":1023.2999999970198},{""stimulus"":""blank"",""time"":1336.2000000029802},{""stimulus"":""https://ziweizhang0304.github.io/Stats_learning_trig/img/Stim/FN_019_g.png"",""time"":1366.5},{""stimulus"":""blank"",""time"":1677},{""stimulus"":""https://ziweizhang0304.github.io/Stats_learning_trig/img/Stim/FN_007_g.png"",""time"":1700.6000000089407},{""stimulus"":""blank"",""time"":2004.2000000029802},{""stimulus"":""https://ziweizhang0304.github.io/Stats_learning_trig/img/Stim/FN_008_g.png"",""time"":2050.1000000089407},{""stimulus"":""blank"",""time"":2360.6000000089407},{""stimulus"":""https://ziweizhang0304.github.io/Stats_learning_trig/img/Stim/FN_016_g.png"",""time"":2391.2999999970198},{""stimulus"":""blank"",""time"":2703},{""stimulus"":""https://ziweizhang0304.github.io/Stats_learning_trig/img/Stim/FN_021_g.png"",""time"":2724.5},{""stimulus"":""blank"",""time"":3029.7000000029802},{""stimulus"":""https://ziweizhang0304.github.io/Stats_learning_trig/img/Stim/FN_004_g.png"",""time"":3060.5},{""stimulus"":""blank"",""time"":3373.1000000089407},{""stimulus"":""https://ziweizhang0304.github.io/Stats_learning_trig/img/Stim/FN_025_g.png"",""time"":3404.7999999970198},{""stimulus"":""blank"",""time"":3717.6000000089407},{""stimulus"":""https://ziweizhang0304.github.io/Stats_learning_trig/img/Stim/FN_002_g.png"",""time"":3749.2999999970198},{""stimulus"":""blank"",""time"":4060.2999999970198},{""stimulus"":""https://ziweizhang0304.github.io/Stats_learning_trig/img/Stim/FN_017_g.png"",""time"":4091.7999999970198},{""stimulus"":""blank"",""time"":4404.20000000298}]","[{""key_press"":32,""rt"":2055.3999999910593,""stimulus"":""https://ziweizhang0304.github.io/Stats_learning_trig/img/Stim/FN_008_g.png""}]","354.7999999821186","https://ziweizhang0304.github.io/Stats_learning_trig/img/Stim/FN_007_g.png","post_TD","14","1700.6000000089407","2055.3999999910593","fast","5","2","5914b7b50a4b9d0001add64f","","","","","",""
"","image-keyboard-response","41","139263","0.0-5.0-14.0-0.0","566.4000000059605","","","https://ziweizhang0304.github.io/Stats_learning_trig/img/Stim/FN_010_g.png","13","","","","","","","","","","","","","","","","","",""
"","animation","42","143693","0.0-5.0-14.0-1.0","","","","","","[{""stimulus"":""https://ziweizhang0304.github.io/Stats_learning_trig/img/Stim/FN_023_g.png"",""time"":346.09999999403954},{""stimulus"":""blank"",""time"":646.5999999940395},{""stimulus"":""https://ziweizhang0304.github.io/Stats_learning_trig/img/Stim/FN_021_g.png"",""time"":693.3999999910593},{""stimulus"":""blank"",""time"":1003.7999999970198},{""stimulus"":""https://ziweizhang0304.github.io/Stats_learning_trig/img/Stim/FN_014_g.png"",""time"":1020.7000000029802},{""stimulus"":""blank"",""time"":1330.2000000029802},{""stimulus"":""https://ziweizhang0304.github.io/Stats_learning_trig/img/Stim/FN_002_g.png"",""time"":1360.7999999970198},{""stimulus"":""blank"",""time"":1672},{""stimulus"":""https://ziweizhang0304.github.io/Stats_learning_trig/img/Stim/FN_022_g.png"",""time"":1703.0999999940395},{""stimulus"":""blank"",""time"":2014.2999999970198},{""stimulus"":""https://ziweizhang0304.github.io/Stats_learning_trig/img/Stim/FN_004_g.png"",""time"":2045.5999999940395},{""stimulus"":""blank"",""time"":2358.5},{""stimulus"":""https://ziweizhang0304.github.io/Stats_learning_trig/img/Stim/FN_009_g.png"",""time"":2389.5999999940395},{""stimulus"":""blank"",""time"":2701.5},{""stimulus"":""https://ziweizhang0304.github.io/Stats_learning_trig/img/Stim/FN_005_g.png"",""time"":2733.2000000029802},{""stimulus"":""blank"",""time"":3046.7999999970198},{""stimulus"":""https://ziweizhang0304.github.io/Stats_learning_trig/img/Stim/FN_010_g.png"",""time"":3062.2000000029802},{""stimulus"":""blank"",""time"":3371.5999999940395},{""stimulus"":""https://ziweizhang0304.github.io/Stats_learning_trig/img/Stim/FN_016_g.png"",""time"":3402.7999999970198},{""stimulus"":""blank"",""time"":3715.7999999970198},{""stimulus"":""https://ziweizhang0304.github.io/Stats_learning_trig/img/Stim/FN_025_g.png"",""time"":3746.2000000029802},{""stimulus"":""blank"",""time"":4056.5999999940395},{""stimulus"":""https://ziweizhang0304.github.io/Stats_learning_trig/img/Stim/FN_017_g.png"",""time"":4081.3999999910593},{""stimulus"":""blank"",""time"":4383}]","[{""key_press"":32,""rt"":3439.5,""stimulus"":""https://ziweizhang0304.github.io/Stats_learning_trig/img/Stim/FN_016_g.png""}]","377.29999999701977","https://ziweizhang0304.github.io/Stats_learning_trig/img/Stim/FN_010_g.png","post_TD","15","3062.2000000029802","3439.5","slow","9","3","5914b7b50a4b9d0001add64f","","","","","",""
"","image-keyboard-response","43","144246","0.0-5.0-15.0-0.0","552.2999999970198","","","https://ziweizhang0304.github.io/Stats_learning_trig/img/Stim/FN_009_g.png","13","","","","","","","","","","","","","","","","","",""
"","animation","44","148668","0.0-5.0-15.0-1.0","","","","","","[{""stimulus"":""https://ziweizhang0304.github.io/Stats_learning_trig/img/Stim/FN_016_g.png"",""time"":352.29999999701977},{""stimulus"":""blank"",""time"":658.9000000059605},{""stimulus"":""https://ziweizhang0304.github.io/Stats_learning_trig/img/Stim/FN_002_g.png"",""time"":689.6000000089407},{""stimulus"":""blank"",""time"":1001},{""stimulus"":""https://ziweizhang0304.github.io/Stats_learning_trig/img/Stim/FN_017_g.png"",""time"":1032},{""stimulus"":""blank"",""time"":1343.9000000059605},{""stimulus"":""https://ziweizhang0304.github.io/Stats_learning_trig/img/Stim/FN_023_g.png"",""time"":1374.6000000089407},{""stimulus"":""blank"",""time"":1686.4000000059605},{""stimulus"":""https://ziweizhang0304.github.io/Stats_learning_trig/img/Stim/FN_009_g.png"",""time"":1701.4000000059605},{""stimulus"":""blank"",""time"":2015.2000000029802},{""stimulus"":""https://ziweizhang0304.github.io/Stats_learning_trig/img/Stim/FN_005_g.png"",""time"":2046.6000000089407},{""stimulus"":""blank"",""time"":2358.7999999970198},{""stimulus"":""https://ziweizhang0304.github.io/Stats_learning_trig/img/Stim/FN_010_g.png"",""time"":2380.9000000059605},{""stimulus"":""blank"",""time"":2686.2000000029802},{""stimulus"":""https://ziweizhang0304.github.io/Stats_learning_trig/img/Stim/FN_022_g.png"",""time"":2734},{""stimulus"":""blank"",""time"":3043.4000000059605},{""stimulus"":""https://ziweizhang0304.github.io/Stats_learning_trig/img/Stim/FN_021_g.png"",""time"":3075.6000000089407},{""stimulus"":""blank"",""time"":3386.7999999970198},{""stimulus"":""https://ziweizhang0304.github.io/Stats_learning_trig/img/Stim/FN_014_g.png"",""time"":3402.6000000089407},{""stimulus"":""blank"",""time"":3713.9000000059605},{""stimulus"":""https://ziweizhang0304.github.io/Stats_learning_trig/img/Stim/FN_004_g.png"",""time"":3745.6000000089407},{""stimulus"":""blank"",""time"":4055.7000000029802},{""stimulus"":""https://ziweizhang0304.github.io/Stats_learning_trig/img/Stim/FN_025_g.png"",""time"":4087.7999999970198},{""stimulus"":""blank"",""time"":4399}]","[{""key_press"":32,""rt"":2114.199999988079,""stimulus"":""https://ziweizhang0304.github.io/Stats_learning_trig/img/Stim/FN_005_g.png""}]","412.7999999821186","https://ziweizhang0304.github.io/Stats_learning_trig/img/Stim/FN_009_g.png","post_TD","16","1701.4000000059605","2114.199999988079","slow","5","1","5914b7b50a4b9d0001add64f","","","","","",""
"","image-keyboard-response","45","149071","0.0-5.0-16.0-0.0","399.69999998807907","","","https://ziweizhang0304.github.io/Stats_learning_trig/img/Stim/FN_008_g.png","13","","","","","","","","","","","","","","","","","",""
"","animation","46","153491","0.0-5.0-16.0-1.0","","","","","","[{""stimulus"":""https://ziweizhang0304.github.io/Stats_learning_trig/img/Stim/FN_017_g.png"",""time"":354.69999998807907},{""stimulus"":""blank"",""time"":665.8999999910593},{""stimulus"":""https://ziweizhang0304.github.io/Stats_learning_trig/img/Stim/FN_021_g.png"",""time"":681.7999999970198},{""stimulus"":""blank"",""time"":996.5999999940395},{""stimulus"":""https://ziweizhang0304.github.io/Stats_learning_trig/img/Stim/FN_022_g.png"",""time"":1027.3999999910593},{""stimulus"":""blank"",""time"":1339},{""stimulus"":""https://ziweizhang0304.github.io/Stats_learning_trig/img/Stim/FN_023_g.png"",""time"":1371.0999999940395},{""stimulus"":""blank"",""time"":1681.8999999910593},{""stimulus"":""https://ziweizhang0304.github.io/Stats_learning_trig/img/Stim/FN_019_g.png"",""time"":1713.2999999970198},{""stimulus"":""blank"",""time"":2025.5},{""stimulus"":""https://ziweizhang0304.github.io/Stats_learning_trig/img/Stim/FN_007_g.png"",""time"":2041.0999999940395},{""stimulus"":""blank"",""time"":2351.3999999910593},{""stimulus"":""https://ziweizhang0304.github.io/Stats_learning_trig/img/Stim/FN_008_g.png"",""time"":2382.5999999940395},{""stimulus"":""blank"",""time"":2696.2999999970198},{""stimulus"":""https://ziweizhang0304.github.io/Stats_learning_trig/img/Stim/FN_016_g.png"",""time"":2727.199999988079},{""stimulus"":""blank"",""time"":3033.699999988079},{""stimulus"":""https://ziweizhang0304.github.io/Stats_learning_trig/img/Stim/FN_014_g.png"",""time"":3060.5999999940395},{""stimulus"":""blank"",""time"":3362.199999988079},{""stimulus"":""https://ziweizhang0304.github.io/Stats_learning_trig/img/Stim/FN_004_g.png"",""time"":3410},{""stimulus"":""blank"",""time"":3721.5999999940395},{""stimulus"":""https://ziweizhang0304.github.io/Stats_learning_trig/img/Stim/FN_025_g.png"",""time"":3741.5999999940395},{""stimulus"":""blank"",""time"":4048.5999999940395},{""stimulus"":""https://ziweizhang0304.github.io/Stats_learning_trig/img/Stim/FN_002_g.png"",""time"":4080.8999999910593},{""stimulus"":""blank"",""time"":4392.199999988079}]","[{""key_press"":32,""rt"":2088.2999999970198,""stimulus"":""https://ziweizhang0304.github.io/Stats_learning_trig/img/Stim/FN_007_g.png""},{""key_press"":32,""rt"":3033.2000000029802,""stimulus"":""https://ziweizhang0304.github.io/Stats_learning_trig/img/Stim/FN_016_g.png""}]","650.6000000089407","https://ziweizhang0304.github.io/Stats_learning_trig/img/Stim/FN_008_g.png","post_TD","17","2382.5999999940395","3033.2000000029802","fast","7","3","5914b7b50a4b9d0001add64f","","","","","",""
"","image-keyboard-response","47","154239","0.0-5.0-17.0-0.0","747","","","https://ziweizhang0304.github.io/Stats_learning_trig/img/Stim/FN_005_g.png","13","","","","","","","","","","","","","","","","","",""
"","animation","48","158673","0.0-5.0-17.0-1.0","","","","","","[{""stimulus"":""https://ziweizhang0304.github.io/Stats_learning_trig/img/Stim/FN_016_g.png"",""time"":341.1000000089407},{""stimulus"":""blank"",""time"":651.9000000059605},{""stimulus"":""https://ziweizhang0304.github.io/Stats_learning_trig/img/Stim/FN_002_g.png"",""time"":682.6000000089407},{""stimulus"":""blank"",""time"":990.7999999970198},{""stimulus"":""https://ziweizhang0304.github.io/Stats_learning_trig/img/Stim/FN_017_g.png"",""time"":1021.4000000059605},{""stimulus"":""blank"",""time"":1331.6000000089407},{""stimulus"":""https://ziweizhang0304.github.io/Stats_learning_trig/img/Stim/FN_023_g.png"",""time"":1362.2000000029802},{""stimulus"":""blank"",""time"":1674.6000000089407},{""stimulus"":""https://ziweizhang0304.github.io/Stats_learning_trig/img/Stim/FN_009_g.png"",""time"":1705.2000000029802},{""stimulus"":""blank"",""time"":2016.5},{""stimulus"":""https://ziweizhang0304.github.io/Stats_learning_trig/img/Stim/FN_005_g.png"",""time"":2040.7000000029802},{""stimulus"":""blank"",""time"":2343.7000000029802},{""stimulus"":""https://ziweizhang0304.github.io/Stats_learning_trig/img/Stim/FN_010_g.png"",""time"":2384.2000000029802},{""stimulus"":""blank"",""time"":2686.2000000029802},{""stimulus"":""https://ziweizhang0304.github.io/Stats_learning_trig/img/Stim/FN_022_g.png"",""time"":2733.1000000089407},{""stimulus"":""blank"",""time"":3044.7000000029802},{""stimulus"":""https://ziweizhang0304.github.io/Stats_learning_trig/img/Stim/FN_021_g.png"",""time"":3060.4000000059605},{""stimulus"":""blank"",""time"":3371.6000000089407},{""stimulus"":""https://ziweizhang0304.github.io/Stats_learning_trig/img/Stim/FN_014_g.png"",""time"":3403},{""stimulus"":""blank"",""time"":3717.1000000089407},{""stimulus"":""https://ziweizhang0304.github.io/Stats_learning_trig/img/Stim/FN_004_g.png"",""time"":3740.5},{""stimulus"":""blank"",""time"":4045.5},{""stimulus"":""https://ziweizhang0304.github.io/Stats_learning_trig/img/Stim/FN_025_g.png"",""time"":4092.5},{""stimulus"":""blank"",""time"":4402.4000000059605}]","[{""key_press"":32,""rt"":2383.7999999970198,""stimulus"":""blank""}]","343.09999999403954","https://ziweizhang0304.github.io/Stats_learning_trig/img/Stim/FN_005_g.png","post_TD","18","2040.7000000029802","2383.7999999970198","slow","6","2","5914b7b50a4b9d0001add64f","","","","","",""
"","image-keyboard-response","49","159039","0.0-5.0-18.0-0.0","365.1000000089407","","","https://ziweizhang0304.github.io/Stats_learning_trig/img/Stim/FN_008_g.png","13","","","","","","","","","","","","","","","","","",""
"","animation","50","163467","0.0-5.0-18.0-1.0","","","","","","[{""stimulus"":""https://ziweizhang0304.github.io/Stats_learning_trig/img/Stim/FN_022_g.png"",""time"":355.20000000298023},{""stimulus"":""blank"",""time"":666.2999999970198},{""stimulus"":""https://ziweizhang0304.github.io/Stats_learning_trig/img/Stim/FN_002_g.png"",""time"":681.9000000059605},{""stimulus"":""blank"",""time"":996.9000000059605},{""stimulus"":""https://ziweizhang0304.github.io/Stats_learning_trig/img/Stim/FN_021_g.png"",""time"":1027.4000000059605},{""stimulus"":""blank"",""time"":1339.5},{""stimulus"":""https://ziweizhang0304.github.io/Stats_learning_trig/img/Stim/FN_017_g.png"",""time"":1370.0999999940395},{""stimulus"":""blank"",""time"":1676.5},{""stimulus"":""https://ziweizhang0304.github.io/Stats_learning_trig/img/Stim/FN_004_g.png"",""time"":1708.4000000059605},{""stimulus"":""blank"",""time"":2018.5999999940395},{""stimulus"":""https://ziweizhang0304.github.io/Stats_learning_trig/img/Stim/FN_016_g.png"",""time"":2050.5},{""stimulus"":""blank"",""time"":2357.7999999970198},{""stimulus"":""https://ziweizhang0304.github.io/Stats_learning_trig/img/Stim/FN_019_g.png"",""time"":2380.2000000029802},{""stimulus"":""blank"",""time"":2685.0999999940395},{""stimulus"":""https://ziweizhang0304.github.io/Stats_learning_trig/img/Stim/FN_007_g.png"",""time"":2731.2000000029802},{""stimulus"":""blank"",""time"":3041.7999999970198},{""stimulus"":""https://ziweizhang0304.github.io/Stats_learning_trig/img/Stim/FN_008_g.png"",""time"":3074.2000000029802},{""stimulus"":""blank"",""time"":3386.9000000059605},{""stimulus"":""https://ziweizhang0304.github.io/Stats_learning_trig/img/Stim/FN_023_g.png"",""time"":3402.5},{""stimulus"":""blank"",""time"":3711.2999999970198},{""stimulus"":""https://ziweizhang0304.github.io/Stats_learning_trig/img/Stim/FN_014_g.png"",""time"":3741.7000000029802},{""stimulus"":""blank"",""time"":4050.9000000059605},{""stimulus"":""https://ziweizhang0304.github.io/Stats_learning_trig/img/Stim/FN_025_g.png"",""time"":4080.7999999970198},{""stimulus"":""blank"",""time"":4396.5999999940395}]","[{""key_press"":32,""rt"":3471.5999999940395,""stimulus"":""https://ziweizhang0304.github.io/Stats_learning_trig/img/Stim/FN_023_g.png""}]","397.3999999910593","https://ziweizhang0304.github.io/Stats_learning_trig/img/Stim/FN_008_g.png","post_TD","19","3074.2000000029802","3471.5999999940395","fast","9","3","5914b7b50a4b9d0001add64f","","","","","",""
"","image-keyboard-response","51","163895","0.0-5.0-19.0-0.0","427.5","","","https://ziweizhang0304.github.io/Stats_learning_trig/img/Stim/FN_019_g.png","13","","","","","","","","","","","","","","","","","",""
"","animation","52","168321","0.0-5.0-19.0-1.0","","","","","","[{""stimulus"":""https://ziweizhang0304.github.io/Stats_learning_trig/img/Stim/FN_017_g.png"",""time"":352.80000001192093},{""stimulus"":""blank"",""time"":664.1000000089407},{""stimulus"":""https://ziweizhang0304.github.io/Stats_learning_trig/img/Stim/FN_021_g.png"",""time"":684.1000000089407},{""stimulus"":""blank"",""time"":990.2000000029802},{""stimulus"":""https://ziweizhang0304.github.io/Stats_learning_trig/img/Stim/FN_022_g.png"",""time"":1021},{""stimulus"":""blank"",""time"":1332.2000000029802},{""stimulus"":""https://ziweizhang0304.github.io/Stats_learning_trig/img/Stim/FN_023_g.png"",""time"":1363.800000011921},{""stimulus"":""blank"",""time"":1673.5},{""stimulus"":""https://ziweizhang0304.github.io/Stats_learning_trig/img/Stim/FN_019_g.png"",""time"":1704.5},{""stimulus"":""blank"",""time"":2014.800000011921},{""stimulus"":""https://ziweizhang0304.github.io/Stats_learning_trig/img/Stim/FN_007_g.png"",""time"":2046},{""stimulus"":""blank"",""time"":2359.5},{""stimulus"":""https://ziweizhang0304.github.io/Stats_learning_trig/img/Stim/FN_008_g.png"",""time"":2380.9000000059605},{""stimulus"":""blank"",""time"":2685.300000011921},{""stimulus"":""https://ziweizhang0304.github.io/Stats_learning_trig/img/Stim/FN_016_g.png"",""time"":2732.5},{""stimulus"":""blank"",""time"":3043.800000011921},{""stimulus"":""https://ziweizhang0304.github.io/Stats_learning_trig/img/Stim/FN_014_g.png"",""time"":3075},{""stimulus"":""blank"",""time"":3386.5},{""stimulus"":""https://ziweizhang0304.github.io/Stats_learning_trig/img/Stim/FN_004_g.png"",""time"":3400.9000000059605},{""stimulus"":""blank"",""time"":3710.5},{""stimulus"":""https://ziweizhang0304.github.io/Stats_learning_trig/img/Stim/FN_025_g.png"",""time"":3742.2000000029802},{""stimulus"":""blank"",""time"":4054.5},{""stimulus"":""https://ziweizhang0304.github.io/Stats_learning_trig/img/Stim/FN_002_g.png"",""time"":4085.2000000029802},{""stimulus"":""blank"",""time"":4394.70000000298}]","[{""key_press"":32,""rt"":2055.6000000089407,""stimulus"":""https://ziweizhang0304.github.io/Stats_learning_trig/img/Stim/FN_007_g.png""}]","351.1000000089407","https://ziweizhang0304.github.io/Stats_learning_trig/img/Stim/FN_019_g.png","post_TD","20","1704.5","2055.6000000089407","fast","5","1","5914b7b50a4b9d0001add64f","","","","","",""
"","image-keyboard-response","53","168815","0.0-5.0-20.0-0.0","493.3999999910593","","","https://ziweizhang0304.github.io/Stats_learning_trig/img/Stim/FN_005_g.png","13","","","","","","","","","","","","","","","","","",""
"","animation","54","173237","0.0-5.0-20.0-1.0","","","","","","[{""stimulus"":""https://ziweizhang0304.github.io/Stats_learning_trig/img/Stim/FN_025_g.png"",""time"":345},{""stimulus"":""blank"",""time"":655.5},{""stimulus"":""https://ziweizhang0304.github.io/Stats_learning_trig/img/Stim/FN_017_g.png"",""time"":680.4000000059605},{""stimulus"":""blank"",""time"":981.3000000119209},{""stimulus"":""https://ziweizhang0304.github.io/Stats_learning_trig/img/Stim/FN_002_g.png"",""time"":1027.9000000059605},{""stimulus"":""blank"",""time"":1338.2000000029802},{""stimulus"":""https://ziweizhang0304.github.io/Stats_learning_trig/img/Stim/FN_009_g.png"",""time"":1369.2000000029802},{""stimulus"":""blank"",""time"":1682.1000000089407},{""stimulus"":""https://ziweizhang0304.github.io/Stats_learning_trig/img/Stim/FN_005_g.png"",""time"":1701.300000011921},{""stimulus"":""blank"",""time"":2007.7000000029802},{""stimulus"":""https://ziweizhang0304.github.io/Stats_learning_trig/img/Stim/FN_010_g.png"",""time"":2047.300000011921},{""stimulus"":""blank"",""time"":2349.4000000059605},{""stimulus"":""https://ziweizhang0304.github.io/Stats_learning_trig/img/Stim/FN_023_g.png"",""time"":2382.1000000089407},{""stimulus"":""blank"",""time"":2692.4000000059605},{""stimulus"":""https://ziweizhang0304.github.io/Stats_learning_trig/img/Stim/FN_016_g.png"",""time"":2721.4000000059605},{""stimulus"":""blank"",""time"":3032.300000011921},{""stimulus"":""https://ziweizhang0304.github.io/Stats_learning_trig/img/Stim/FN_022_g.png"",""time"":3063.7000000029802},{""stimulus"":""blank"",""time"":3374.2000000029802},{""stimulus"":""https://ziweizhang0304.github.io/Stats_learning_trig/img/Stim/FN_021_g.png"",""time"":3405.9000000059605},{""stimulus"":""blank"",""time"":3719.300000011921},{""stimulus"":""https://ziweizhang0304.github.io/Stats_learning_trig/img/Stim/FN_014_g.png"",""time"":3750.9000000059605},{""stimulus"":""blank"",""time"":4061.2000000029802},{""stimulus"":""https://ziweizhang0304.github.io/Stats_learning_trig/img/Stim/FN_004_g.png"",""time"":4092.2000000029802},{""stimulus"":""blank"",""time"":4402.300000011921}]","[{""key_press"":32,""rt"":2047,""stimulus"":""blank""}]","345.69999998807907","https://ziweizhang0304.github.io/Stats_learning_trig/img/Stim/FN_005_g.png","post_TD","21","1701.300000011921","2047","slow","5","2","5914b7b50a4b9d0001add64f","","","","","",""
"","image-keyboard-response","55","173647","0.0-5.0-21.0-0.0","408.70000000298023","","","https://ziweizhang0304.github.io/Stats_learning_trig/img/Stim/FN_007_g.png","13","","","","","","","","","","","","","","","","","",""
"","animation","56","178070","0.0-5.0-21.0-1.0","","","","","","[{""stimulus"":""https://ziweizhang0304.github.io/Stats_learning_trig/img/Stim/FN_017_g.png"",""time"":351.80000001192093},{""stimulus"":""blank"",""time"":659.4000000059605},{""stimulus"":""https://ziweizhang0304.github.io/Stats_learning_trig/img/Stim/FN_021_g.png"",""time"":690.5},{""stimulus"":""blank"",""time"":999.2000000029802},{""stimulus"":""https://ziweizhang0304.github.io/Stats_learning_trig/img/Stim/FN_022_g.png"",""time"":1020.7000000029802},{""stimulus"":""blank"",""time"":1327.1000000089407},{""stimulus"":""https://ziweizhang0304.github.io/Stats_learning_trig/img/Stim/FN_023_g.png"",""time"":1374.800000011921},{""stimulus"":""blank"",""time"":1686.4000000059605},{""stimulus"":""https://ziweizhang0304.github.io/Stats_learning_trig/img/Stim/FN_019_g.png"",""time"":1702.1000000089407},{""stimulus"":""blank"",""time"":2015.1000000089407},{""stimulus"":""https://ziweizhang0304.github.io/Stats_learning_trig/img/Stim/FN_007_g.png"",""time"":2047},{""stimulus"":""blank"",""time"":2356.300000011921},{""stimulus"":""https://ziweizhang0304.github.io/Stats_learning_trig/img/Stim/FN_008_g.png"",""time"":2382.2000000029802},{""stimulus"":""blank"",""time"":2684},{""stimulus"":""https://ziweizhang0304.github.io/Stats_learning_trig/img/Stim/FN_016_g.png"",""time"":2730.9000000059605},{""stimulus"":""blank"",""time"":3040.2000000029802},{""stimulus"":""https://ziweizhang0304.github.io/Stats_learning_trig/img/Stim/FN_014_g.png"",""time"":3071},{""stimulus"":""blank"",""time"":3381.800000011921},{""stimulus"":""https://ziweizhang0304.github.io/Stats_learning_trig/img/Stim/FN_004_g.png"",""time"":3412.9000000059605},{""stimulus"":""blank"",""time"":3725.300000011921},{""stimulus"":""https://ziweizhang0304.github.io/Stats_learning_trig/img/Stim/FN_025_g.png"",""time"":3740.300000011921},{""stimulus"":""blank"",""time"":4049.6000000089407},{""stimulus"":""https://ziweizhang0304.github.io/Stats_learning_trig/img/Stim/FN_002_g.png"",""time"":4081.300000011921},{""stimulus"":""blank"",""time"":4391.600000008941}]","[{""key_press"":32,""rt"":2415.7000000029802,""stimulus"":""https://ziweizhang0304.github.io/Stats_learning_trig/img/Stim/FN_008_g.png""}]","368.70000000298023","https://ziweizhang0304.github.io/Stats_learning_trig/img/Stim/FN_007_g.png","post_TD","22","2047","2415.7000000029802","fast","6","2","5914b7b50a4b9d0001add64f","","","","","",""
"","image-keyboard-response","57","178479","0.0-5.0-22.0-0.0","408.70000000298023","","","https://ziweizhang0304.github.io/Stats_learning_trig/img/Stim/FN_019_g.png","13","","","","","","","","","","","","","","","","","",""
"","animation","58","182900","0.0-5.0-22.0-1.0","","","","","","[{""stimulus"":""https://ziweizhang0304.github.io/Stats_learning_trig/img/Stim/FN_014_g.png"",""time"":354.79999999701977},{""stimulus"":""blank"",""time"":664.7999999970198},{""stimulus"":""https://ziweizhang0304.github.io/Stats_learning_trig/img/Stim/FN_023_g.png"",""time"":680.5999999940395},{""stimulus"":""blank"",""time"":990.6999999880791},{""stimulus"":""https://ziweizhang0304.github.io/Stats_learning_trig/img/Stim/FN_022_g.png"",""time"":1021},{""stimulus"":""blank"",""time"":1336},{""stimulus"":""https://ziweizhang0304.github.io/Stats_learning_trig/img/Stim/FN_019_g.png"",""time"":1368.5999999940395},{""stimulus"":""blank"",""time"":1680.8999999910593},{""stimulus"":""https://ziweizhang0304.github.io/Stats_learning_trig/img/Stim/FN_007_g.png"",""time"":1712},{""stimulus"":""blank"",""time"":2022.5},{""stimulus"":""https://ziweizhang0304.github.io/Stats_learning_trig/img/Stim/FN_008_g.png"",""time"":2041.3999999910593},{""stimulus"":""blank"",""time"":2347.2999999970198},{""stimulus"":""https://ziweizhang0304.github.io/Stats_learning_trig/img/Stim/FN_016_g.png"",""time"":2394.5},{""stimulus"":""blank"",""time"":2704},{""stimulus"":""https://ziweizhang0304.github.io/Stats_learning_trig/img/Stim/FN_021_g.png"",""time"":2720.2999999970198},{""stimulus"":""blank"",""time"":3032.2999999970198},{""stimulus"":""https://ziweizhang0304.github.io/Stats_learning_trig/img/Stim/FN_004_g.png"",""time"":3064.0999999940395},{""stimulus"":""blank"",""time"":3374.3999999910593},{""stimulus"":""https://ziweizhang0304.github.io/Stats_learning_trig/img/Stim/FN_025_g.png"",""time"":3405.5},{""stimulus"":""blank"",""time"":3716.2999999970198},{""stimulus"":""https://ziweizhang0304.github.io/Stats_learning_trig/img/Stim/FN_002_g.png"",""time"":3741},{""stimulus"":""blank"",""time"":4042.7999999970198},{""stimulus"":""https://ziweizhang0304.github.io/Stats_learning_trig/img/Stim/FN_017_g.png"",""time"":4089.2999999970198},{""stimulus"":""blank"",""time"":4400.199999988079}]","[{""key_press"":32,""rt"":1745.8999999910593,""stimulus"":""https://ziweizhang0304.github.io/Stats_learning_trig/img/Stim/FN_007_g.png""}]","377.29999999701977","https://ziweizhang0304.github.io/Stats_learning_trig/img/Stim/FN_019_g.png","post_TD","23","1368.5999999940395","1745.8999999910593","fast","4","1","5914b7b50a4b9d0001add64f","","","","","",""
"","image-keyboard-response","59","183343","0.0-5.0-23.0-0.0","442.5","","","https://ziweizhang0304.github.io/Stats_learning_trig/img/Stim/FN_008_g.png","13","","","","","","","","","","","","","","","","","",""
"","animation","60","187768","0.0-5.0-23.0-1.0","","","","","","[{""stimulus"":""https://ziweizhang0304.github.io/Stats_learning_trig/img/Stim/FN_023_g.png"",""time"":348.1000000089407},{""stimulus"":""blank"",""time"":660.2000000029802},{""stimulus"":""https://ziweizhang0304.github.io/Stats_learning_trig/img/Stim/FN_017_g.png"",""time"":691.7000000029802},{""stimulus"":""blank"",""time"":1004.9000000059605},{""stimulus"":""https://ziweizhang0304.github.io/Stats_learning_trig/img/Stim/FN_025_g.png"",""time"":1021},{""stimulus"":""blank"",""time"":1332.2000000029802},{""stimulus"":""https://ziweizhang0304.github.io/Stats_learning_trig/img/Stim/FN_004_g.png"",""time"":1363.4000000059605},{""stimulus"":""blank"",""time"":1674.5},{""stimulus"":""https://ziweizhang0304.github.io/Stats_learning_trig/img/Stim/FN_002_g.png"",""time"":1705.7000000029802},{""stimulus"":""blank"",""time"":2016.7000000029802},{""stimulus"":""https://ziweizhang0304.github.io/Stats_learning_trig/img/Stim/FN_019_g.png"",""time"":2047.9000000059605},{""stimulus"":""blank"",""time"":2362.2999999970198},{""stimulus"":""https://ziweizhang0304.github.io/Stats_learning_trig/img/Stim/FN_007_g.png"",""time"":2381.1000000089407},{""stimulus"":""blank"",""time"":2688.5},{""stimulus"":""https://ziweizhang0304.github.io/Stats_learning_trig/img/Stim/FN_008_g.png"",""time"":2734.7999999970198},{""stimulus"":""blank"",""time"":3043.9000000059605},{""stimulus"":""https://ziweizhang0304.github.io/Stats_learning_trig/img/Stim/FN_016_g.png"",""time"":3060.4000000059605},{""stimulus"":""blank"",""time"":3367.2000000029802},{""stimulus"":""https://ziweizhang0304.github.io/Stats_learning_trig/img/Stim/FN_022_g.png"",""time"":3413},{""stimulus"":""blank"",""time"":3725.1000000089407},{""stimulus"":""https://ziweizhang0304.github.io/Stats_learning_trig/img/Stim/FN_021_g.png"",""time"":3740.7999999970198},{""stimulus"":""blank"",""time"":4051.2999999970198},{""stimulus"":""https://ziweizhang0304.github.io/Stats_learning_trig/img/Stim/FN_014_g.png"",""time"":4080.9000000059605},{""stimulus"":""blank"",""time"":4394.29999999702}]","[{""key_press"":32,""rt"":3136.5999999940395,""stimulus"":""https://ziweizhang0304.github.io/Stats_learning_trig/img/Stim/FN_016_g.png""}]","401.79999999701977","https://ziweizhang0304.github.io/Stats_learning_trig/img/Stim/FN_008_g.png","post_TD","24","2734.7999999970198","3136.5999999940395","fast","8","3","5914b7b50a4b9d0001add64f","29dfb","","","","",""
"","survey-text","61","205343","0.0-6.0","17571","","","","","","","","","","","","","","","","","","{""Q0"":""There was no strategy. I answered when I thought I saw the image. ""}","","","",""
"","survey-text","62","208511","0.0-7.0","3166.0999999940395","","","","","","","","","","","","","","","","","","{""[object Object]"":""No""}","","","",""
"","instructions","63","215599","0.0-8.0","7088.20000000298","","[{""page_index"":0,""viewing_time"":7088}]","","","","","","","","","","","","","","","","","","","",""
"","free-sort","64","221599","0.0-9.0","5998.800000011921","","","","","","","","","post_drag","","","","fast","","","","","","[{""src"":""https://ziweizhang0304.github.io/Stats_learning_trig/img/Stim/FN_007_g.png"",""x"":475,""y"":0},{""src"":""https://ziweizhang0304.github.io/Stats_learning_trig/img/Stim/FN_019_g.png"",""x"":-225,""y"":50},{""src"":""https://ziweizhang0304.github.io/Stats_learning_trig/img/Stim/FN_008_g.png"",""x"":475,""y"":50}]","[{""src"":""https://ziweizhang0304.github.io/Stats_learning_trig/img/Stim/FN_019_g.png"",""x"":77,""y"":-2},{""src"":""https://ziweizhang0304.github.io/Stats_learning_trig/img/Stim/FN_007_g.png"",""x"":184,""y"":7},{""src"":""https://ziweizhang0304.github.io/Stats_learning_trig/img/Stim/FN_008_g.png"",""x"":240,""y"":9}]","[{""src"":""https://ziweizhang0304.github.io/Stats_learning_trig/img/Stim/FN_007_g.png"",""x"":184,""y"":7},{""src"":""https://ziweizhang0304.github.io/Stats_learning_trig/img/Stim/FN_019_g.png"",""x"":77,""y"":-2},{""src"":""https://ziweizhang0304.github.io/Stats_learning_trig/img/Stim/FN_008_g.png"",""x"":240,""y"":9}]",""
"","free-sort","65","228959","0.0-10.0","7359.100000008941","","","","","","","","","post_drag","","","","slow","","","","","","[{""src"":""https://ziweizhang0304.github.io/Stats_learning_trig/img/Stim/FN_005_g.png"",""x"":475,""y"":0},{""src"":""https://ziweizhang0304.github.io/Stats_learning_trig/img/Stim/FN_010_g.png"",""x"":-225,""y"":50},{""src"":""https://ziweizhang0304.github.io/Stats_learning_trig/img/Stim/FN_009_g.png"",""x"":475,""y"":50}]","[{""src"":""https://ziweizhang0304.github.io/Stats_learning_trig/img/Stim/FN_005_g.png"",""x"":133,""y"":22},{""src"":""https://ziweizhang0304.github.io/Stats_learning_trig/img/Stim/FN_009_g.png"",""x"":61,""y"":32},{""src"":""https://ziweizhang0304.github.io/Stats_learning_trig/img/Stim/FN_010_g.png"",""x"":223,""y"":27},{""src"":""https://ziweizhang0304.github.io/Stats_learning_trig/img/Stim/FN_010_g.png"",""x"":223,""y"":27}]","[{""src"":""https://ziweizhang0304.github.io/Stats_learning_trig/img/Stim/FN_005_g.png"",""x"":133,""y"":22},{""src"":""https://ziweizhang0304.github.io/Stats_learning_trig/img/Stim/FN_010_g.png"",""x"":223,""y"":27},{""src"":""https://ziweizhang0304.github.io/Stats_learning_trig/img/Stim/FN_009_g.png"",""x"":61,""y"":32}]",""
"","survey-multi-choice","66","241351","0.0-11.0","12390.29999999702","","","","","","","","","","","","","","","","5914b7b50a4b9d0001add64f","","{""awareness"":""No"",""attention_check"":""Press SPACEBAR to a target""}","","","","[0,1]"
