"success","trial_type","trial_index","time_elapsed","internal_node_id","rt","url","view_history","stimulus","key_press","animation_sequence","response","TD_rt","TD_target","test_part","TD_trial_number","onset","offset","attention_state","TD_target_position","TD_within_triplet_counter","participant","yoke_participant","responses","init_locations","moves","final_locations","question_order"
"true","fullscreen","0","6151","0.0-0.0","","","","","","","","","","","","","","","","","","","","","","",""
"","external-html","1","8795","0.0-1.0","2509.2000000476837","https://ziweizhang0304.github.io/Stats_learning_trig/content/consent.html","","","","","","","","","","","","","","","","","","","","",""
"","instructions","2","20439","0.0-2.0","11640.600000023842","","[{""page_index"":0,""viewing_time"":1201.2999999523163},{""page_index"":1,""viewing_time"":5451.200000047684},{""page_index"":2,""viewing_time"":3602.7000000476837},{""page_index"":3,""viewing_time"":1384.5999999046326}]","","","","","","","","","","","","","","","","","","","",""
"","image-keyboard-response","3","25924","0.0-3.0-0.0-0.0","5484.100000023842","","","https://ziweizhang0304.github.io/Stats_learning_trig/img/Stim/FN_004_g.png","13","","","","","","","","","","","","","","","","","",""
"","animation","4","30348","0.0-3.0-0.0-1.0","","","","","","[{""stimulus"":""https://ziweizhang0304.github.io/Stats_learning_trig/img/Stim/FN_003_g.png"",""time"":345},{""stimulus"":""blank"",""time"":648.3000000715256},{""stimulus"":""https://ziweizhang0304.github.io/Stats_learning_trig/img/Stim/FN_001_g.png"",""time"":680.7000000476837},{""stimulus"":""blank"",""time"":981},{""stimulus"":""https://ziweizhang0304.github.io/Stats_learning_trig/img/Stim/FN_008_g.png"",""time"":1024.3000000715256},{""stimulus"":""blank"",""time"":1329.4000000953674},{""stimulus"":""https://ziweizhang0304.github.io/Stats_learning_trig/img/Stim/FN_011_g.png"",""time"":1362.3000000715256},{""stimulus"":""blank"",""time"":1665.4000000953674},{""stimulus"":""https://ziweizhang0304.github.io/Stats_learning_trig/img/Stim/FN_024_g.png"",""time"":1703.4000000953674},{""stimulus"":""blank"",""time"":2008.4000000953674},{""stimulus"":""https://ziweizhang0304.github.io/Stats_learning_trig/img/Stim/FN_004_g.png"",""time"":2042.1000000238419},{""stimulus"":""blank"",""time"":2342.3000000715256},{""stimulus"":""https://ziweizhang0304.github.io/Stats_learning_trig/img/Stim/FN_019_g.png"",""time"":2380.5},{""stimulus"":""blank"",""time"":2681.8000000715256},{""stimulus"":""https://ziweizhang0304.github.io/Stats_learning_trig/img/Stim/FN_006_g.png"",""time"":2722.8000000715256},{""stimulus"":""blank"",""time"":3023.8000000715256},{""stimulus"":""https://ziweizhang0304.github.io/Stats_learning_trig/img/Stim/FN_014_g.png"",""time"":3061.9000000953674},{""stimulus"":""blank"",""time"":3362.9000000953674},{""stimulus"":""https://ziweizhang0304.github.io/Stats_learning_trig/img/Stim/FN_010_g.png"",""time"":3402.4000000953674},{""stimulus"":""blank"",""time"":3706},{""stimulus"":""https://ziweizhang0304.github.io/Stats_learning_trig/img/Stim/FN_017_g.png"",""time"":3740.9000000953674},{""stimulus"":""blank"",""time"":4043.8000000715256},{""stimulus"":""https://ziweizhang0304.github.io/Stats_learning_trig/img/Stim/FN_007_g.png"",""time"":4080.7000000476837},{""stimulus"":""blank"",""time"":4382.800000071526}]","[{""key_press"":32,""rt"":2396.5,""stimulus"":""https://ziweizhang0304.github.io/Stats_learning_trig/img/Stim/FN_019_g.png""},{""key_press"":32,""rt"":3570.100000023842,""stimulus"":""https://ziweizhang0304.github.io/Stats_learning_trig/img/Stim/FN_010_g.png""}]","354.39999997615814","https://ziweizhang0304.github.io/Stats_learning_trig/img/Stim/FN_004_g.png","post_prac","","","","","","","","","","","","",""
"","html-keyboard-response","5","34311","0.0-3.0-0.0-2.0","3959.2000000476837","","","<p>Your reaction time for this trial was 354.4 ms.</p><p>Remember that you should only press the SPACEBAR when you see the shape presented at the beginning of the trial. </b> </p><p>Press enter to move on.</p>","13","","","","","","","","","","","","","","","","","",""
"","image-keyboard-response","6","36341","0.0-3.0-1.0-0.0","2029.3999999761581","","","https://ziweizhang0304.github.io/Stats_learning_trig/img/Stim/FN_023_g.png","13","","","","","","","","","","","","","","","","","",""
"","animation","7","40763","0.0-3.0-1.0-1.0","","","","","","[{""stimulus"":""https://ziweizhang0304.github.io/Stats_learning_trig/img/Stim/FN_019_g.png"",""time"":340.7999999523163},{""stimulus"":""blank"",""time"":641.7999999523163},{""stimulus"":""https://ziweizhang0304.github.io/Stats_learning_trig/img/Stim/FN_011_g.png"",""time"":682.1000000238419},{""stimulus"":""blank"",""time"":983.8999999761581},{""stimulus"":""https://ziweizhang0304.github.io/Stats_learning_trig/img/Stim/FN_017_g.png"",""time"":1022.2999999523163},{""stimulus"":""blank"",""time"":1324.2000000476837},{""stimulus"":""https://ziweizhang0304.github.io/Stats_learning_trig/img/Stim/FN_010_g.png"",""time"":1364.2000000476837},{""stimulus"":""blank"",""time"":1664.6000000238419},{""stimulus"":""https://ziweizhang0304.github.io/Stats_learning_trig/img/Stim/FN_012_g.png"",""time"":1703.7999999523163},{""stimulus"":""blank"",""time"":2005},{""stimulus"":""https://ziweizhang0304.github.io/Stats_learning_trig/img/Stim/FN_023_g.png"",""time"":2040.6000000238419},{""stimulus"":""blank"",""time"":2341.7999999523163},{""stimulus"":""https://ziweizhang0304.github.io/Stats_learning_trig/img/Stim/FN_009_g.png"",""time"":2383.100000023842},{""stimulus"":""blank"",""time"":2684.600000023842},{""stimulus"":""https://ziweizhang0304.github.io/Stats_learning_trig/img/Stim/FN_007_g.png"",""time"":2721.7999999523163},{""stimulus"":""blank"",""time"":3022.7999999523163},{""stimulus"":""https://ziweizhang0304.github.io/Stats_learning_trig/img/Stim/FN_006_g.png"",""time"":3061.100000023842},{""stimulus"":""blank"",""time"":3363.2999999523163},{""stimulus"":""https://ziweizhang0304.github.io/Stats_learning_trig/img/Stim/FN_008_g.png"",""time"":3404.600000023842},{""stimulus"":""blank"",""time"":3705.899999976158},{""stimulus"":""https://ziweizhang0304.github.io/Stats_learning_trig/img/Stim/FN_024_g.png"",""time"":3741.399999976158},{""stimulus"":""blank"",""time"":4043.100000023842},{""stimulus"":""https://ziweizhang0304.github.io/Stats_learning_trig/img/Stim/FN_003_g.png"",""time"":4083.5},{""stimulus"":""blank"",""time"":4386.899999976158}]","[{""key_press"":32,""rt"":2434.7999999523163,""stimulus"":""https://ziweizhang0304.github.io/Stats_learning_trig/img/Stim/FN_009_g.png""}]","394.1999999284744","https://ziweizhang0304.github.io/Stats_learning_trig/img/Stim/FN_023_g.png","post_prac","","","","","","","","","","","","",""
"","html-keyboard-response","8","42228","0.0-3.0-1.0-2.0","1463.7999999523163","","","<p>Your reaction time for this trial was 394.2 ms.</p><p>Remember that you should only press the SPACEBAR when you see the shape presented at the beginning of the trial. </b> </p><p>Press enter to move on.</p>","13","","","","","","","","","","","","","","","","","",""
"","image-keyboard-response","9","44478","0.0-3.0-2.0-0.0","2249.9000000953674","","","https://ziweizhang0304.github.io/Stats_learning_trig/img/Stim/FN_012_g.png","13","","","","","","","","","","","","","","","","","",""
"","animation","10","48900","0.0-3.0-2.0-1.0","","","","","","[{""stimulus"":""https://ziweizhang0304.github.io/Stats_learning_trig/img/Stim/FN_011_g.png"",""time"":341.3000000715256},{""stimulus"":""blank"",""time"":643.1000000238419},{""stimulus"":""https://ziweizhang0304.github.io/Stats_learning_trig/img/Stim/FN_017_g.png"",""time"":680.8000000715256},{""stimulus"":""blank"",""time"":982.3000000715256},{""stimulus"":""https://ziweizhang0304.github.io/Stats_learning_trig/img/Stim/FN_019_g.png"",""time"":1022.3000000715256},{""stimulus"":""blank"",""time"":1327.2000000476837},{""stimulus"":""https://ziweizhang0304.github.io/Stats_learning_trig/img/Stim/FN_012_g.png"",""time"":1362.3999999761581},{""stimulus"":""blank"",""time"":1664.7000000476837},{""stimulus"":""https://ziweizhang0304.github.io/Stats_learning_trig/img/Stim/FN_023_g.png"",""time"":1700.5},{""stimulus"":""blank"",""time"":2001.3000000715256},{""stimulus"":""https://ziweizhang0304.github.io/Stats_learning_trig/img/Stim/FN_009_g.png"",""time"":2042.3000000715256},{""stimulus"":""blank"",""time"":2343.600000023842},{""stimulus"":""https://ziweizhang0304.github.io/Stats_learning_trig/img/Stim/FN_010_g.png"",""time"":2380.3000000715256},{""stimulus"":""blank"",""time"":2681.399999976158},{""stimulus"":""https://ziweizhang0304.github.io/Stats_learning_trig/img/Stim/FN_007_g.png"",""time"":2721.600000023842},{""stimulus"":""blank"",""time"":3023},{""stimulus"":""https://ziweizhang0304.github.io/Stats_learning_trig/img/Stim/FN_006_g.png"",""time"":3064},{""stimulus"":""blank"",""time"":3365.5},{""stimulus"":""https://ziweizhang0304.github.io/Stats_learning_trig/img/Stim/FN_008_g.png"",""time"":3400.5},{""stimulus"":""blank"",""time"":3701.5},{""stimulus"":""https://ziweizhang0304.github.io/Stats_learning_trig/img/Stim/FN_024_g.png"",""time"":3743},{""stimulus"":""blank"",""time"":4044.600000023842},{""stimulus"":""https://ziweizhang0304.github.io/Stats_learning_trig/img/Stim/FN_003_g.png"",""time"":4080.600000023842},{""stimulus"":""blank"",""time"":4381.300000071526}]","[{""key_press"":32,""rt"":1765.7000000476837,""stimulus"":""https://ziweizhang0304.github.io/Stats_learning_trig/img/Stim/FN_023_g.png""}]","403.3000000715256","https://ziweizhang0304.github.io/Stats_learning_trig/img/Stim/FN_012_g.png","post_prac","","","","","","","","","","","","",""
"","html-keyboard-response","11","50207","0.0-3.0-2.0-2.0","1306.1999999284744","","","<p>Your reaction time for this trial was 403.3 ms.</p><p>Remember that you should only press the SPACEBAR when you see the shape presented at the beginning of the trial. </b> </p><p>Press enter to move on.</p>","13","","","","","","","","","","","","","","","","","",""
"","instructions","12","51316","0.0-4.0","1108.3999999761581","","[{""page_index"":0,""viewing_time"":1108.2000000476837}]","","","","","","","","","","","","","","","","","","","",""
"","image-keyboard-response","13","54414","0.0-5.0-0.0-0.0","3097.8000000715256","","","https://ziweizhang0304.github.io/Stats_learning_trig/img/Stim/FN_009_g.png","13","","","","","","","","","","","","","","","","","",""
"","animation","14","58838","0.0-5.0-0.0-1.0","","","","","","[{""stimulus"":""https://ziweizhang0304.github.io/Stats_learning_trig/img/Stim/FN_011_g.png"",""time"":341.2000000476837},{""stimulus"":""blank"",""time"":641.6000000238419},{""stimulus"":""https://ziweizhang0304.github.io/Stats_learning_trig/img/Stim/FN_017_g.png"",""time"":681.3000000715256},{""stimulus"":""blank"",""time"":983.5},{""stimulus"":""https://ziweizhang0304.github.io/Stats_learning_trig/img/Stim/FN_019_g.png"",""time"":1023.3000000715256},{""stimulus"":""blank"",""time"":1324.1000000238419},{""stimulus"":""https://ziweizhang0304.github.io/Stats_learning_trig/img/Stim/FN_012_g.png"",""time"":1364},{""stimulus"":""blank"",""time"":1664.3000000715256},{""stimulus"":""https://ziweizhang0304.github.io/Stats_learning_trig/img/Stim/FN_023_g.png"",""time"":1701.8999999761581},{""stimulus"":""blank"",""time"":2003.5},{""stimulus"":""https://ziweizhang0304.github.io/Stats_learning_trig/img/Stim/FN_009_g.png"",""time"":2040.7000000476837},{""stimulus"":""blank"",""time"":2341.5},{""stimulus"":""https://ziweizhang0304.github.io/Stats_learning_trig/img/Stim/FN_010_g.png"",""time"":2381},{""stimulus"":""blank"",""time"":2682},{""stimulus"":""https://ziweizhang0304.github.io/Stats_learning_trig/img/Stim/FN_007_g.png"",""time"":2723.399999976158},{""stimulus"":""blank"",""time"":3024.899999976158},{""stimulus"":""https://ziweizhang0304.github.io/Stats_learning_trig/img/Stim/FN_006_g.png"",""time"":3060.3000000715256},{""stimulus"":""blank"",""time"":3361.899999976158},{""stimulus"":""https://ziweizhang0304.github.io/Stats_learning_trig/img/Stim/FN_008_g.png"",""time"":3401.8000000715256},{""stimulus"":""blank"",""time"":3703},{""stimulus"":""https://ziweizhang0304.github.io/Stats_learning_trig/img/Stim/FN_024_g.png"",""time"":3740.5},{""stimulus"":""blank"",""time"":4040.7000000476837},{""stimulus"":""https://ziweizhang0304.github.io/Stats_learning_trig/img/Stim/FN_003_g.png"",""time"":4082},{""stimulus"":""blank"",""time"":4385.5}]","[{""key_press"":32,""rt"":2337.899999976158,""stimulus"":""https://ziweizhang0304.github.io/Stats_learning_trig/img/Stim/FN_009_g.png""}]","297.1999999284744","https://ziweizhang0304.github.io/Stats_learning_trig/img/Stim/FN_009_g.png","post_TD","1","2040.7000000476837","2337.899999976158","slow","6","3","59e1e3a23e4b5a00016a9c17","","","","","",""
"","image-keyboard-response","15","60389","0.0-5.0-1.0-0.0","1549.4000000953674","","","https://ziweizhang0304.github.io/Stats_learning_trig/img/Stim/FN_001_g.png","13","","","","","","","","","","","","","","","","","",""
"","animation","16","64811","0.0-5.0-1.0-1.0","","","","","","[{""stimulus"":""https://ziweizhang0304.github.io/Stats_learning_trig/img/Stim/FN_011_g.png"",""time"":342.7000000476837},{""stimulus"":""blank"",""time"":643.9000000953674},{""stimulus"":""https://ziweizhang0304.github.io/Stats_learning_trig/img/Stim/FN_010_g.png"",""time"":682.6000000238419},{""stimulus"":""blank"",""time"":986},{""stimulus"":""https://ziweizhang0304.github.io/Stats_learning_trig/img/Stim/FN_017_g.png"",""time"":1021.4000000953674},{""stimulus"":""blank"",""time"":1321.7000000476837},{""stimulus"":""https://ziweizhang0304.github.io/Stats_learning_trig/img/Stim/FN_003_g.png"",""time"":1364.1000000238419},{""stimulus"":""blank"",""time"":1665.3000000715256},{""stimulus"":""https://ziweizhang0304.github.io/Stats_learning_trig/img/Stim/FN_014_g.png"",""time"":1704},{""stimulus"":""blank"",""time"":2007.9000000953674},{""stimulus"":""https://ziweizhang0304.github.io/Stats_learning_trig/img/Stim/FN_004_g.png"",""time"":2044.9000000953674},{""stimulus"":""blank"",""time"":2347.9000000953674},{""stimulus"":""https://ziweizhang0304.github.io/Stats_learning_trig/img/Stim/FN_001_g.png"",""time"":2382.4000000953674},{""stimulus"":""blank"",""time"":2684.600000023842},{""stimulus"":""https://ziweizhang0304.github.io/Stats_learning_trig/img/Stim/FN_007_g.png"",""time"":2721.2000000476837},{""stimulus"":""blank"",""time"":3021.5},{""stimulus"":""https://ziweizhang0304.github.io/Stats_learning_trig/img/Stim/FN_006_g.png"",""time"":3064.9000000953674},{""stimulus"":""blank"",""time"":3366.100000023842},{""stimulus"":""https://ziweizhang0304.github.io/Stats_learning_trig/img/Stim/FN_008_g.png"",""time"":3401.7000000476837},{""stimulus"":""blank"",""time"":3703.3000000715256},{""stimulus"":""https://ziweizhang0304.github.io/Stats_learning_trig/img/Stim/FN_024_g.png"",""time"":3744},{""stimulus"":""blank"",""time"":4045.9000000953674},{""stimulus"":""https://ziweizhang0304.github.io/Stats_learning_trig/img/Stim/FN_019_g.png"",""time"":4080.600000023842},{""stimulus"":""blank"",""time"":4382.5}]","[{""key_press"":32,""rt"":2700.2000000476837,""stimulus"":""blank""}]","317.7999999523163","https://ziweizhang0304.github.io/Stats_learning_trig/img/Stim/FN_001_g.png","post_TD","2","2382.4000000953674","2700.2000000476837","fast","7","3","59e1e3a23e4b5a00016a9c17","","","","","",""
"","image-keyboard-response","17","65995","0.0-5.0-2.0-0.0","1182.8999999761581","","","https://ziweizhang0304.github.io/Stats_learning_trig/img/Stim/FN_023_g.png","13","","","","","","","","","","","","","","","","","",""
"","animation","18","70418","0.0-5.0-2.0-1.0","","","","","","[{""stimulus"":""https://ziweizhang0304.github.io/Stats_learning_trig/img/Stim/FN_011_g.png"",""time"":344.2000000476837},{""stimulus"":""blank"",""time"":645.7000000476837},{""stimulus"":""https://ziweizhang0304.github.io/Stats_learning_trig/img/Stim/FN_007_g.png"",""time"":681.1000000238419},{""stimulus"":""blank"",""time"":982.6000000238419},{""stimulus"":""https://ziweizhang0304.github.io/Stats_learning_trig/img/Stim/FN_008_g.png"",""time"":1022.6000000238419},{""stimulus"":""blank"",""time"":1324.6000000238419},{""stimulus"":""https://ziweizhang0304.github.io/Stats_learning_trig/img/Stim/FN_006_g.png"",""time"":1360.3999999761581},{""stimulus"":""blank"",""time"":1661.8999999761581},{""stimulus"":""https://ziweizhang0304.github.io/Stats_learning_trig/img/Stim/FN_024_g.png"",""time"":1702.5},{""stimulus"":""blank"",""time"":2005.2000000476837},{""stimulus"":""https://ziweizhang0304.github.io/Stats_learning_trig/img/Stim/FN_010_g.png"",""time"":2044.8999999761581},{""stimulus"":""blank"",""time"":2349},{""stimulus"":""https://ziweizhang0304.github.io/Stats_learning_trig/img/Stim/FN_012_g.png"",""time"":2381.7000000476837},{""stimulus"":""blank"",""time"":2683.8000000715256},{""stimulus"":""https://ziweizhang0304.github.io/Stats_learning_trig/img/Stim/FN_023_g.png"",""time"":2721.399999976158},{""stimulus"":""blank"",""time"":3021.600000023842},{""stimulus"":""https://ziweizhang0304.github.io/Stats_learning_trig/img/Stim/FN_009_g.png"",""time"":3060.899999976158},{""stimulus"":""blank"",""time"":3362.899999976158},{""stimulus"":""https://ziweizhang0304.github.io/Stats_learning_trig/img/Stim/FN_017_g.png"",""time"":3403.7000000476837},{""stimulus"":""blank"",""time"":3705.3000000715256},{""stimulus"":""https://ziweizhang0304.github.io/Stats_learning_trig/img/Stim/FN_003_g.png"",""time"":3741.600000023842},{""stimulus"":""blank"",""time"":4044.7000000476837},{""stimulus"":""https://ziweizhang0304.github.io/Stats_learning_trig/img/Stim/FN_019_g.png"",""time"":4082.399999976158},{""stimulus"":""blank"",""time"":4382.700000047684}]","[{""key_press"":32,""rt"":1940.3999999761581,""stimulus"":""https://ziweizhang0304.github.io/Stats_learning_trig/img/Stim/FN_024_g.png""},{""key_press"":32,""rt"":3061.899999976158,""stimulus"":""https://ziweizhang0304.github.io/Stats_learning_trig/img/Stim/FN_009_g.png""}]","340.5","https://ziweizhang0304.github.io/Stats_learning_trig/img/Stim/FN_023_g.png","post_TD","3","2721.399999976158","3061.899999976158","slow","8","2","59e1e3a23e4b5a00016a9c17","","","","","",""
"","image-keyboard-response","19","71612","0.0-5.0-3.0-0.0","1193","","","https://ziweizhang0304.github.io/Stats_learning_trig/img/Stim/FN_004_g.png","13","","","","","","","","","","","","","","","","","",""
"","animation","20","76033","0.0-5.0-3.0-1.0","","","","","","[{""stimulus"":""https://ziweizhang0304.github.io/Stats_learning_trig/img/Stim/FN_011_g.png"",""time"":341.2999999523163},{""stimulus"":""blank"",""time"":641.7000000476837},{""stimulus"":""https://ziweizhang0304.github.io/Stats_learning_trig/img/Stim/FN_010_g.png"",""time"":682.7000000476837},{""stimulus"":""blank"",""time"":983.7999999523163},{""stimulus"":""https://ziweizhang0304.github.io/Stats_learning_trig/img/Stim/FN_017_g.png"",""time"":1025.3999999761581},{""stimulus"":""blank"",""time"":1326.3999999761581},{""stimulus"":""https://ziweizhang0304.github.io/Stats_learning_trig/img/Stim/FN_003_g.png"",""time"":1363.7000000476837},{""stimulus"":""blank"",""time"":1663.8999999761581},{""stimulus"":""https://ziweizhang0304.github.io/Stats_learning_trig/img/Stim/FN_014_g.png"",""time"":1700.8999999761581},{""stimulus"":""blank"",""time"":2001.6000000238419},{""stimulus"":""https://ziweizhang0304.github.io/Stats_learning_trig/img/Stim/FN_004_g.png"",""time"":2041.3999999761581},{""stimulus"":""blank"",""time"":2342.399999976158},{""stimulus"":""https://ziweizhang0304.github.io/Stats_learning_trig/img/Stim/FN_001_g.png"",""time"":2383.100000023842},{""stimulus"":""blank"",""time"":2685.2999999523163},{""stimulus"":""https://ziweizhang0304.github.io/Stats_learning_trig/img/Stim/FN_007_g.png"",""time"":2720.7000000476837},{""stimulus"":""blank"",""time"":3021.600000023842},{""stimulus"":""https://ziweizhang0304.github.io/Stats_learning_trig/img/Stim/FN_006_g.png"",""time"":3063},{""stimulus"":""blank"",""time"":3366},{""stimulus"":""https://ziweizhang0304.github.io/Stats_learning_trig/img/Stim/FN_008_g.png"",""time"":3401.2999999523163},{""stimulus"":""blank"",""time"":3702.899999976158},{""stimulus"":""https://ziweizhang0304.github.io/Stats_learning_trig/img/Stim/FN_024_g.png"",""time"":3741.399999976158},{""stimulus"":""blank"",""time"":4043.2000000476837},{""stimulus"":""https://ziweizhang0304.github.io/Stats_learning_trig/img/Stim/FN_019_g.png"",""time"":4084.2000000476837},{""stimulus"":""blank"",""time"":4387.5}]","[{""key_press"":32,""rt"":2398.899999976158,""stimulus"":""https://ziweizhang0304.github.io/Stats_learning_trig/img/Stim/FN_001_g.png""}]","357.5","https://ziweizhang0304.github.io/Stats_learning_trig/img/Stim/FN_004_g.png","post_TD","4","2041.3999999761581","2398.899999976158","fast","6","2","59e1e3a23e4b5a00016a9c17","","","","","",""
"","image-keyboard-response","21","77623","0.0-5.0-4.0-0.0","1588.7999999523163","","","https://ziweizhang0304.github.io/Stats_learning_trig/img/Stim/FN_001_g.png","13","","","","","","","","","","","","","","","","","",""
"","animation","22","82047","0.0-5.0-4.0-1.0","","","","","","[{""stimulus"":""https://ziweizhang0304.github.io/Stats_learning_trig/img/Stim/FN_007_g.png"",""time"":341},{""stimulus"":""blank"",""time"":643.2000000476837},{""stimulus"":""https://ziweizhang0304.github.io/Stats_learning_trig/img/Stim/FN_008_g.png"",""time"":681},{""stimulus"":""blank"",""time"":981.8000000715256},{""stimulus"":""https://ziweizhang0304.github.io/Stats_learning_trig/img/Stim/FN_010_g.png"",""time"":1022.7000000476837},{""stimulus"":""blank"",""time"":1324.2000000476837},{""stimulus"":""https://ziweizhang0304.github.io/Stats_learning_trig/img/Stim/FN_024_g.png"",""time"":1361},{""stimulus"":""blank"",""time"":1662.5},{""stimulus"":""https://ziweizhang0304.github.io/Stats_learning_trig/img/Stim/FN_019_g.png"",""time"":1701.9000000953674},{""stimulus"":""blank"",""time"":2003.4000000953674},{""stimulus"":""https://ziweizhang0304.github.io/Stats_learning_trig/img/Stim/FN_006_g.png"",""time"":2040.8000000715256},{""stimulus"":""blank"",""time"":2342.3000000715256},{""stimulus"":""https://ziweizhang0304.github.io/Stats_learning_trig/img/Stim/FN_014_g.png"",""time"":2380.9000000953674},{""stimulus"":""blank"",""time"":2682.600000023842},{""stimulus"":""https://ziweizhang0304.github.io/Stats_learning_trig/img/Stim/FN_004_g.png"",""time"":2722.8000000715256},{""stimulus"":""blank"",""time"":3025.2000000476837},{""stimulus"":""https://ziweizhang0304.github.io/Stats_learning_trig/img/Stim/FN_001_g.png"",""time"":3061.2000000476837},{""stimulus"":""blank"",""time"":3361.8000000715256},{""stimulus"":""https://ziweizhang0304.github.io/Stats_learning_trig/img/Stim/FN_017_g.png"",""time"":3402.600000023842},{""stimulus"":""blank"",""time"":3704.3000000715256},{""stimulus"":""https://ziweizhang0304.github.io/Stats_learning_trig/img/Stim/FN_011_g.png"",""time"":3742.600000023842},{""stimulus"":""blank"",""time"":4044.100000023842},{""stimulus"":""https://ziweizhang0304.github.io/Stats_learning_trig/img/Stim/FN_003_g.png"",""time"":4081.5},{""stimulus"":""blank"",""time"":4383.5}]","[{""key_press"":32,""rt"":3420.899999976158,""stimulus"":""https://ziweizhang0304.github.io/Stats_learning_trig/img/Stim/FN_017_g.png""}]","359.6999999284744","https://ziweizhang0304.github.io/Stats_learning_trig/img/Stim/FN_001_g.png","post_TD","5","3061.2000000476837","3420.899999976158","fast","9","3","59e1e3a23e4b5a00016a9c17","","","","","",""
"","image-keyboard-response","23","83301","0.0-5.0-5.0-0.0","1253.1999999284744","","","https://ziweizhang0304.github.io/Stats_learning_trig/img/Stim/FN_014_g.png","13","","","","","","","","","","","","","","","","","",""
"","animation","24","87725","0.0-5.0-5.0-1.0","","","","","","[{""stimulus"":""https://ziweizhang0304.github.io/Stats_learning_trig/img/Stim/FN_010_g.png"",""time"":342.2000000476837},{""stimulus"":""blank"",""time"":644.1000000238419},{""stimulus"":""https://ziweizhang0304.github.io/Stats_learning_trig/img/Stim/FN_003_g.png"",""time"":681.5},{""stimulus"":""blank"",""time"":983.2000000476837},{""stimulus"":""https://ziweizhang0304.github.io/Stats_learning_trig/img/Stim/FN_006_g.png"",""time"":1022},{""stimulus"":""blank"",""time"":1323.5},{""stimulus"":""https://ziweizhang0304.github.io/Stats_learning_trig/img/Stim/FN_024_g.png"",""time"":1361.7000000476837},{""stimulus"":""blank"",""time"":1663.2000000476837},{""stimulus"":""https://ziweizhang0304.github.io/Stats_learning_trig/img/Stim/FN_017_g.png"",""time"":1700.5},{""stimulus"":""blank"",""time"":2002.2000000476837},{""stimulus"":""https://ziweizhang0304.github.io/Stats_learning_trig/img/Stim/FN_014_g.png"",""time"":2043.2000000476837},{""stimulus"":""blank"",""time"":2345.3000000715256},{""stimulus"":""https://ziweizhang0304.github.io/Stats_learning_trig/img/Stim/FN_004_g.png"",""time"":2380.600000023842},{""stimulus"":""blank"",""time"":2681.600000023842},{""stimulus"":""https://ziweizhang0304.github.io/Stats_learning_trig/img/Stim/FN_001_g.png"",""time"":2722.4000000953674},{""stimulus"":""blank"",""time"":3024.5},{""stimulus"":""https://ziweizhang0304.github.io/Stats_learning_trig/img/Stim/FN_007_g.png"",""time"":3060.7000000476837},{""stimulus"":""blank"",""time"":3361.100000023842},{""stimulus"":""https://ziweizhang0304.github.io/Stats_learning_trig/img/Stim/FN_011_g.png"",""time"":3401.4000000953674},{""stimulus"":""blank"",""time"":3703.5},{""stimulus"":""https://ziweizhang0304.github.io/Stats_learning_trig/img/Stim/FN_008_g.png"",""time"":3743.8000000715256},{""stimulus"":""blank"",""time"":4046},{""stimulus"":""https://ziweizhang0304.github.io/Stats_learning_trig/img/Stim/FN_019_g.png"",""time"":4080.7000000476837},{""stimulus"":""blank"",""time"":4381.300000071526}]","[{""key_press"":32,""rt"":2387.8000000715256,""stimulus"":""https://ziweizhang0304.github.io/Stats_learning_trig/img/Stim/FN_004_g.png""}]","344.60000002384186","https://ziweizhang0304.github.io/Stats_learning_trig/img/Stim/FN_014_g.png","post_TD","6","2043.2000000476837","2387.8000000715256","fast","6","1","59e1e3a23e4b5a00016a9c17","","","","","",""
"","image-keyboard-response","25","89146","0.0-5.0-6.0-0.0","1419.6000000238419","","","https://ziweizhang0304.github.io/Stats_learning_trig/img/Stim/FN_004_g.png","13","","","","","","","","","","","","","","","","","",""
"","animation","26","93568","0.0-5.0-6.0-1.0","","","","","","[{""stimulus"":""https://ziweizhang0304.github.io/Stats_learning_trig/img/Stim/FN_006_g.png"",""time"":341},{""stimulus"":""blank"",""time"":641.8999999761581},{""stimulus"":""https://ziweizhang0304.github.io/Stats_learning_trig/img/Stim/FN_024_g.png"",""time"":684.3999999761581},{""stimulus"":""blank"",""time"":987.6000000238419},{""stimulus"":""https://ziweizhang0304.github.io/Stats_learning_trig/img/Stim/FN_007_g.png"",""time"":1022.6999999284744},{""stimulus"":""blank"",""time"":1324.2999999523163},{""stimulus"":""https://ziweizhang0304.github.io/Stats_learning_trig/img/Stim/FN_014_g.png"",""time"":1360.6999999284744},{""stimulus"":""blank"",""time"":1660.8999999761581},{""stimulus"":""https://ziweizhang0304.github.io/Stats_learning_trig/img/Stim/FN_004_g.png"",""time"":1701.8999999761581},{""stimulus"":""blank"",""time"":2003.6000000238419},{""stimulus"":""https://ziweizhang0304.github.io/Stats_learning_trig/img/Stim/FN_001_g.png"",""time"":2042.2999999523163},{""stimulus"":""blank"",""time"":2345.6999999284744},{""stimulus"":""https://ziweizhang0304.github.io/Stats_learning_trig/img/Stim/FN_010_g.png"",""time"":2383.100000023842},{""stimulus"":""blank"",""time"":2687.899999976158},{""stimulus"":""https://ziweizhang0304.github.io/Stats_learning_trig/img/Stim/FN_017_g.png"",""time"":2723.600000023842},{""stimulus"":""blank"",""time"":3025.100000023842},{""stimulus"":""https://ziweizhang0304.github.io/Stats_learning_trig/img/Stim/FN_011_g.png"",""time"":3060.2999999523163},{""stimulus"":""blank"",""time"":3360.5},{""stimulus"":""https://ziweizhang0304.github.io/Stats_learning_trig/img/Stim/FN_008_g.png"",""time"":3402.6999999284744},{""stimulus"":""blank"",""time"":3704.399999976158},{""stimulus"":""https://ziweizhang0304.github.io/Stats_learning_trig/img/Stim/FN_003_g.png"",""time"":3742.899999976158},{""stimulus"":""blank"",""time"":4044.600000023842},{""stimulus"":""https://ziweizhang0304.github.io/Stats_learning_trig/img/Stim/FN_019_g.png"",""time"":4081.899999976158},{""stimulus"":""blank"",""time"":4383.600000023842}]","[{""key_press"":32,""rt"":2021.0999999046326,""stimulus"":""blank""}]","319.1999999284744","https://ziweizhang0304.github.io/Stats_learning_trig/img/Stim/FN_004_g.png","post_TD","7","1701.8999999761581","2021.0999999046326","fast","5","2","59e1e3a23e4b5a00016a9c17","","","","","",""
"","image-keyboard-response","27","94543","0.0-5.0-7.0-0.0","973.8999999761581","","","https://ziweizhang0304.github.io/Stats_learning_trig/img/Stim/FN_023_g.png","13","","","","","","","","","","","","","","","","","",""
"","animation","28","98966","0.0-5.0-7.0-1.0","","","","","","[{""stimulus"":""https://ziweizhang0304.github.io/Stats_learning_trig/img/Stim/FN_011_g.png"",""time"":341.2000000476837},{""stimulus"":""blank"",""time"":642},{""stimulus"":""https://ziweizhang0304.github.io/Stats_learning_trig/img/Stim/FN_017_g.png"",""time"":681.6000000238419},{""stimulus"":""blank"",""time"":983},{""stimulus"":""https://ziweizhang0304.github.io/Stats_learning_trig/img/Stim/FN_019_g.png"",""time"":1021},{""stimulus"":""blank"",""time"":1322.9000000953674},{""stimulus"":""https://ziweizhang0304.github.io/Stats_learning_trig/img/Stim/FN_012_g.png"",""time"":1360.4000000953674},{""stimulus"":""blank"",""time"":1661.8000000715256},{""stimulus"":""https://ziweizhang0304.github.io/Stats_learning_trig/img/Stim/FN_023_g.png"",""time"":1703.1000000238419},{""stimulus"":""blank"",""time"":2005.2000000476837},{""stimulus"":""https://ziweizhang0304.github.io/Stats_learning_trig/img/Stim/FN_009_g.png"",""time"":2041.4000000953674},{""stimulus"":""blank"",""time"":2341.8000000715256},{""stimulus"":""https://ziweizhang0304.github.io/Stats_learning_trig/img/Stim/FN_010_g.png"",""time"":2382.100000023842},{""stimulus"":""blank"",""time"":2684.100000023842},{""stimulus"":""https://ziweizhang0304.github.io/Stats_learning_trig/img/Stim/FN_007_g.png"",""time"":2721.9000000953674},{""stimulus"":""blank"",""time"":3023},{""stimulus"":""https://ziweizhang0304.github.io/Stats_learning_trig/img/Stim/FN_006_g.png"",""time"":3061.4000000953674},{""stimulus"":""blank"",""time"":3361.7000000476837},{""stimulus"":""https://ziweizhang0304.github.io/Stats_learning_trig/img/Stim/FN_008_g.png"",""time"":3404.3000000715256},{""stimulus"":""blank"",""time"":3705.8000000715256},{""stimulus"":""https://ziweizhang0304.github.io/Stats_learning_trig/img/Stim/FN_024_g.png"",""time"":3740.9000000953674},{""stimulus"":""blank"",""time"":4042.600000023842},{""stimulus"":""https://ziweizhang0304.github.io/Stats_learning_trig/img/Stim/FN_003_g.png"",""time"":4083.4000000953674},{""stimulus"":""blank"",""time"":4385.100000023842}]","[{""key_press"":32,""rt"":2065.4000000953674,""stimulus"":""https://ziweizhang0304.github.io/Stats_learning_trig/img/Stim/FN_009_g.png""}]","362.3000000715256","https://ziweizhang0304.github.io/Stats_learning_trig/img/Stim/FN_023_g.png","post_TD","8","1703.1000000238419","2065.4000000953674","slow","5","2","59e1e3a23e4b5a00016a9c17","","","","","",""
"","image-keyboard-response","29","99846","0.0-5.0-8.0-0.0","877.9000000953674","","","https://ziweizhang0304.github.io/Stats_learning_trig/img/Stim/FN_012_g.png","13","","","","","","","","","","","","","","","","","",""
"","animation","30","104269","0.0-5.0-8.0-1.0","","","","","","[{""stimulus"":""https://ziweizhang0304.github.io/Stats_learning_trig/img/Stim/FN_019_g.png"",""time"":342.1999999284744},{""stimulus"":""blank"",""time"":643.5999999046326},{""stimulus"":""https://ziweizhang0304.github.io/Stats_learning_trig/img/Stim/FN_011_g.png"",""time"":685.0999999046326},{""stimulus"":""blank"",""time"":988.0999999046326},{""stimulus"":""https://ziweizhang0304.github.io/Stats_learning_trig/img/Stim/FN_017_g.png"",""time"":1022},{""stimulus"":""blank"",""time"":1323.1999999284744},{""stimulus"":""https://ziweizhang0304.github.io/Stats_learning_trig/img/Stim/FN_010_g.png"",""time"":1360.6999999284744},{""stimulus"":""blank"",""time"":1661.0999999046326},{""stimulus"":""https://ziweizhang0304.github.io/Stats_learning_trig/img/Stim/FN_012_g.png"",""time"":1703.1999999284744},{""stimulus"":""blank"",""time"":2008.5},{""stimulus"":""https://ziweizhang0304.github.io/Stats_learning_trig/img/Stim/FN_023_g.png"",""time"":2042.5},{""stimulus"":""blank"",""time"":2344.5999999046326},{""stimulus"":""https://ziweizhang0304.github.io/Stats_learning_trig/img/Stim/FN_009_g.png"",""time"":2383.6999999284744},{""stimulus"":""blank"",""time"":2687.5999999046326},{""stimulus"":""https://ziweizhang0304.github.io/Stats_learning_trig/img/Stim/FN_007_g.png"",""time"":2722.0999999046326},{""stimulus"":""blank"",""time"":3024.2999999523163},{""stimulus"":""https://ziweizhang0304.github.io/Stats_learning_trig/img/Stim/FN_006_g.png"",""time"":3060.5999999046326},{""stimulus"":""blank"",""time"":3360.899999976158},{""stimulus"":""https://ziweizhang0304.github.io/Stats_learning_trig/img/Stim/FN_008_g.png"",""time"":3401.5999999046326},{""stimulus"":""blank"",""time"":3703.5},{""stimulus"":""https://ziweizhang0304.github.io/Stats_learning_trig/img/Stim/FN_024_g.png"",""time"":3741.1999999284744},{""stimulus"":""blank"",""time"":4043.899999976158},{""stimulus"":""https://ziweizhang0304.github.io/Stats_learning_trig/img/Stim/FN_003_g.png"",""time"":4081},{""stimulus"":""blank"",""time"":4382.5}]","[{""key_press"":32,""rt"":2042,""stimulus"":""blank""}]","338.8000000715256","https://ziweizhang0304.github.io/Stats_learning_trig/img/Stim/FN_012_g.png","post_TD","9","1703.1999999284744","2042","slow","5","1","59e1e3a23e4b5a00016a9c17","","","","","",""
"","image-keyboard-response","31","105198","0.0-5.0-9.0-0.0","928.2000000476837","","","https://ziweizhang0304.github.io/Stats_learning_trig/img/Stim/FN_012_g.png","13","","","","","","","","","","","","","","","","","",""
"","animation","32","109622","0.0-5.0-9.0-1.0","","","","","","[{""stimulus"":""https://ziweizhang0304.github.io/Stats_learning_trig/img/Stim/FN_011_g.png"",""time"":342.10000002384186},{""stimulus"":""blank"",""time"":643.5},{""stimulus"":""https://ziweizhang0304.github.io/Stats_learning_trig/img/Stim/FN_017_g.png"",""time"":680.7000000476837},{""stimulus"":""blank"",""time"":981.1000000238419},{""stimulus"":""https://ziweizhang0304.github.io/Stats_learning_trig/img/Stim/FN_019_g.png"",""time"":1021.5},{""stimulus"":""blank"",""time"":1323.1000000238419},{""stimulus"":""https://ziweizhang0304.github.io/Stats_learning_trig/img/Stim/FN_012_g.png"",""time"":1361},{""stimulus"":""blank"",""time"":1662.3999999761581},{""stimulus"":""https://ziweizhang0304.github.io/Stats_learning_trig/img/Stim/FN_023_g.png"",""time"":1700.3999999761581},{""stimulus"":""blank"",""time"":2002.5},{""stimulus"":""https://ziweizhang0304.github.io/Stats_learning_trig/img/Stim/FN_009_g.png"",""time"":2043.3000000715256},{""stimulus"":""blank"",""time"":2344.899999976158},{""stimulus"":""https://ziweizhang0304.github.io/Stats_learning_trig/img/Stim/FN_010_g.png"",""time"":2380.5},{""stimulus"":""blank"",""time"":2681.3000000715256},{""stimulus"":""https://ziweizhang0304.github.io/Stats_learning_trig/img/Stim/FN_007_g.png"",""time"":2722.399999976158},{""stimulus"":""blank"",""time"":3024.100000023842},{""stimulus"":""https://ziweizhang0304.github.io/Stats_learning_trig/img/Stim/FN_006_g.png"",""time"":3060.7000000476837},{""stimulus"":""blank"",""time"":3361},{""stimulus"":""https://ziweizhang0304.github.io/Stats_learning_trig/img/Stim/FN_008_g.png"",""time"":3403.5},{""stimulus"":""blank"",""time"":3704.899999976158},{""stimulus"":""https://ziweizhang0304.github.io/Stats_learning_trig/img/Stim/FN_024_g.png"",""time"":3744.399999976158},{""stimulus"":""blank"",""time"":4045.899999976158},{""stimulus"":""https://ziweizhang0304.github.io/Stats_learning_trig/img/Stim/FN_003_g.png"",""time"":4080.8000000715256},{""stimulus"":""blank"",""time"":4381.700000047684}]","[{""key_press"":32,""rt"":1756.5,""stimulus"":""https://ziweizhang0304.github.io/Stats_learning_trig/img/Stim/FN_023_g.png""}]","395.5","https://ziweizhang0304.github.io/Stats_learning_trig/img/Stim/FN_012_g.png","post_TD","10","1361","1756.5","slow","4","1","59e1e3a23e4b5a00016a9c17","","","","","",""
"","image-keyboard-response","33","110420","0.0-5.0-10.0-0.0","796.3000000715256","","","https://ziweizhang0304.github.io/Stats_learning_trig/img/Stim/FN_014_g.png","13","","","","","","","","","","","","","","","","","",""
"","animation","34","114841","0.0-5.0-10.0-1.0","","","","","","[{""stimulus"":""https://ziweizhang0304.github.io/Stats_learning_trig/img/Stim/FN_006_g.png"",""time"":341.10000002384186},{""stimulus"":""blank"",""time"":641.2999999523163},{""stimulus"":""https://ziweizhang0304.github.io/Stats_learning_trig/img/Stim/FN_024_g.png"",""time"":682},{""stimulus"":""blank"",""time"":982.7999999523163},{""stimulus"":""https://ziweizhang0304.github.io/Stats_learning_trig/img/Stim/FN_007_g.png"",""time"":1024.6999999284744},{""stimulus"":""blank"",""time"":1326.5},{""stimulus"":""https://ziweizhang0304.github.io/Stats_learning_trig/img/Stim/FN_014_g.png"",""time"":1361.2999999523163},{""stimulus"":""blank"",""time"":1662.5},{""stimulus"":""https://ziweizhang0304.github.io/Stats_learning_trig/img/Stim/FN_004_g.png"",""time"":1703.3999999761581},{""stimulus"":""blank"",""time"":2005.2999999523163},{""stimulus"":""https://ziweizhang0304.github.io/Stats_learning_trig/img/Stim/FN_001_g.png"",""time"":2041.1999999284744},{""stimulus"":""blank"",""time"":2341.6999999284744},{""stimulus"":""https://ziweizhang0304.github.io/Stats_learning_trig/img/Stim/FN_010_g.png"",""time"":2382.7999999523163},{""stimulus"":""blank"",""time"":2684.100000023842},{""stimulus"":""https://ziweizhang0304.github.io/Stats_learning_trig/img/Stim/FN_017_g.png"",""time"":2723.100000023842},{""stimulus"":""blank"",""time"":3026.6999999284744},{""stimulus"":""https://ziweizhang0304.github.io/Stats_learning_trig/img/Stim/FN_011_g.png"",""time"":3060.399999976158},{""stimulus"":""blank"",""time"":3360.5},{""stimulus"":""https://ziweizhang0304.github.io/Stats_learning_trig/img/Stim/FN_008_g.png"",""time"":3401.5},{""stimulus"":""blank"",""time"":3703.1999999284744},{""stimulus"":""https://ziweizhang0304.github.io/Stats_learning_trig/img/Stim/FN_003_g.png"",""time"":3740.899999976158},{""stimulus"":""blank"",""time"":4041.899999976158},{""stimulus"":""https://ziweizhang0304.github.io/Stats_learning_trig/img/Stim/FN_019_g.png"",""time"":4083.100000023842},{""stimulus"":""blank"",""time"":4385}]","[{""key_press"":32,""rt"":1884.2999999523163,""stimulus"":""https://ziweizhang0304.github.io/Stats_learning_trig/img/Stim/FN_004_g.png""}]","523","https://ziweizhang0304.github.io/Stats_learning_trig/img/Stim/FN_014_g.png","post_TD","11","1361.2999999523163","1884.2999999523163","fast","4","1","59e1e3a23e4b5a00016a9c17","","","","","",""
"","image-keyboard-response","35","115624","0.0-5.0-11.0-0.0","781.7999999523163","","","https://ziweizhang0304.github.io/Stats_learning_trig/img/Stim/FN_014_g.png","13","","","","","","","","","","","","","","","","","",""
"","animation","36","120048","0.0-5.0-11.0-1.0","","","","","","[{""stimulus"":""https://ziweizhang0304.github.io/Stats_learning_trig/img/Stim/FN_011_g.png"",""time"":342.1999999284744},{""stimulus"":""blank"",""time"":643.6000000238419},{""stimulus"":""https://ziweizhang0304.github.io/Stats_learning_trig/img/Stim/FN_010_g.png"",""time"":681.2999999523163},{""stimulus"":""blank"",""time"":981.6999999284744},{""stimulus"":""https://ziweizhang0304.github.io/Stats_learning_trig/img/Stim/FN_017_g.png"",""time"":1020.8999999761581},{""stimulus"":""blank"",""time"":1323},{""stimulus"":""https://ziweizhang0304.github.io/Stats_learning_trig/img/Stim/FN_003_g.png"",""time"":1362.6000000238419},{""stimulus"":""blank"",""time"":1664.6999999284744},{""stimulus"":""https://ziweizhang0304.github.io/Stats_learning_trig/img/Stim/FN_014_g.png"",""time"":1700.3999999761581},{""stimulus"":""blank"",""time"":2002.1000000238419},{""stimulus"":""https://ziweizhang0304.github.io/Stats_learning_trig/img/Stim/FN_004_g.png"",""time"":2041.8999999761581},{""stimulus"":""blank"",""time"":2343.600000023842},{""stimulus"":""https://ziweizhang0304.github.io/Stats_learning_trig/img/Stim/FN_001_g.png"",""time"":2380.600000023842},{""stimulus"":""blank"",""time"":2681.1999999284744},{""stimulus"":""https://ziweizhang0304.github.io/Stats_learning_trig/img/Stim/FN_007_g.png"",""time"":2721.600000023842},{""stimulus"":""blank"",""time"":3023.600000023842},{""stimulus"":""https://ziweizhang0304.github.io/Stats_learning_trig/img/Stim/FN_006_g.png"",""time"":3061.399999976158},{""stimulus"":""blank"",""time"":3363.7999999523163},{""stimulus"":""https://ziweizhang0304.github.io/Stats_learning_trig/img/Stim/FN_008_g.png"",""time"":3401},{""stimulus"":""blank"",""time"":3702.899999976158},{""stimulus"":""https://ziweizhang0304.github.io/Stats_learning_trig/img/Stim/FN_024_g.png"",""time"":3741.399999976158},{""stimulus"":""blank"",""time"":4042.2999999523163},{""stimulus"":""https://ziweizhang0304.github.io/Stats_learning_trig/img/Stim/FN_019_g.png"",""time"":4080.6999999284744},{""stimulus"":""blank"",""time"":4382.299999952316}]","[{""key_press"":32,""rt"":2097.899999976158,""stimulus"":""https://ziweizhang0304.github.io/Stats_learning_trig/img/Stim/FN_004_g.png""}]","397.5","https://ziweizhang0304.github.io/Stats_learning_trig/img/Stim/FN_014_g.png","post_TD","12","1700.3999999761581","2097.899999976158","fast","5","1","59e1e3a23e4b5a00016a9c17","","","","","",""
"","image-keyboard-response","37","120804","0.0-5.0-12.0-0.0","754","","","https://ziweizhang0304.github.io/Stats_learning_trig/img/Stim/FN_009_g.png","13","","","","","","","","","","","","","","","","","",""
"","animation","38","125225","0.0-5.0-12.0-1.0","","","","","","[{""stimulus"":""https://ziweizhang0304.github.io/Stats_learning_trig/img/Stim/FN_011_g.png"",""time"":341.5},{""stimulus"":""blank"",""time"":642.5},{""stimulus"":""https://ziweizhang0304.github.io/Stats_learning_trig/img/Stim/FN_010_g.png"",""time"":681.1000000238419},{""stimulus"":""blank"",""time"":982.7000000476837},{""stimulus"":""https://ziweizhang0304.github.io/Stats_learning_trig/img/Stim/FN_007_g.png"",""time"":1023.2000000476837},{""stimulus"":""blank"",""time"":1326.8000000715256},{""stimulus"":""https://ziweizhang0304.github.io/Stats_learning_trig/img/Stim/FN_003_g.png"",""time"":1360.5},{""stimulus"":""blank"",""time"":1661.3999999761581},{""stimulus"":""https://ziweizhang0304.github.io/Stats_learning_trig/img/Stim/FN_017_g.png"",""time"":1704.3999999761581},{""stimulus"":""blank"",""time"":2005.7000000476837},{""stimulus"":""https://ziweizhang0304.github.io/Stats_learning_trig/img/Stim/FN_012_g.png"",""time"":2041.8999999761581},{""stimulus"":""blank"",""time"":2343},{""stimulus"":""https://ziweizhang0304.github.io/Stats_learning_trig/img/Stim/FN_023_g.png"",""time"":2381.600000023842},{""stimulus"":""blank"",""time"":2683},{""stimulus"":""https://ziweizhang0304.github.io/Stats_learning_trig/img/Stim/FN_009_g.png"",""time"":2720.5},{""stimulus"":""blank"",""time"":3022.7000000476837},{""stimulus"":""https://ziweizhang0304.github.io/Stats_learning_trig/img/Stim/FN_006_g.png"",""time"":3061.100000023842},{""stimulus"":""blank"",""time"":3363},{""stimulus"":""https://ziweizhang0304.github.io/Stats_learning_trig/img/Stim/FN_008_g.png"",""time"":3400.3000000715256},{""stimulus"":""blank"",""time"":3701.7000000476837},{""stimulus"":""https://ziweizhang0304.github.io/Stats_learning_trig/img/Stim/FN_024_g.png"",""time"":3745.2000000476837},{""stimulus"":""blank"",""time"":4050.2000000476837},{""stimulus"":""https://ziweizhang0304.github.io/Stats_learning_trig/img/Stim/FN_019_g.png"",""time"":4080.8000000715256},{""stimulus"":""blank"",""time"":4381.399999976158}]","[{""key_press"":32,""rt"":2013.7999999523163,""stimulus"":""blank""},{""key_press"":32,""rt"":2998.899999976158,""stimulus"":""https://ziweizhang0304.github.io/Stats_learning_trig/img/Stim/FN_009_g.png""}]","278.39999997615814","https://ziweizhang0304.github.io/Stats_learning_trig/img/Stim/FN_009_g.png","post_TD","13","2720.5","2998.899999976158","slow","8","3","59e1e3a23e4b5a00016a9c17","","","","","",""
"","image-keyboard-response","39","125998","0.0-5.0-13.0-0.0","771.7000000476837","","","https://ziweizhang0304.github.io/Stats_learning_trig/img/Stim/FN_004_g.png","13","","","","","","","","","","","","","","","","","",""
"","animation","40","130421","0.0-5.0-13.0-1.0","","","","","","[{""stimulus"":""https://ziweizhang0304.github.io/Stats_learning_trig/img/Stim/FN_010_g.png"",""time"":341.3000000715256},{""stimulus"":""blank"",""time"":643.6000000238419},{""stimulus"":""https://ziweizhang0304.github.io/Stats_learning_trig/img/Stim/FN_003_g.png"",""time"":681},{""stimulus"":""blank"",""time"":981.5},{""stimulus"":""https://ziweizhang0304.github.io/Stats_learning_trig/img/Stim/FN_006_g.png"",""time"":1021.1000000238419},{""stimulus"":""blank"",""time"":1322.6000000238419},{""stimulus"":""https://ziweizhang0304.github.io/Stats_learning_trig/img/Stim/FN_024_g.png"",""time"":1360.8000000715256},{""stimulus"":""blank"",""time"":1661.5},{""stimulus"":""https://ziweizhang0304.github.io/Stats_learning_trig/img/Stim/FN_017_g.png"",""time"":1703.3000000715256},{""stimulus"":""blank"",""time"":2007.7000000476837},{""stimulus"":""https://ziweizhang0304.github.io/Stats_learning_trig/img/Stim/FN_014_g.png"",""time"":2042.6000000238419},{""stimulus"":""blank"",""time"":2344.4000000953674},{""stimulus"":""https://ziweizhang0304.github.io/Stats_learning_trig/img/Stim/FN_004_g.png"",""time"":2380.600000023842},{""stimulus"":""blank"",""time"":2681.100000023842},{""stimulus"":""https://ziweizhang0304.github.io/Stats_learning_trig/img/Stim/FN_001_g.png"",""time"":2723.2000000476837},{""stimulus"":""blank"",""time"":3023.600000023842},{""stimulus"":""https://ziweizhang0304.github.io/Stats_learning_trig/img/Stim/FN_007_g.png"",""time"":3061.3000000715256},{""stimulus"":""blank"",""time"":3362.4000000953674},{""stimulus"":""https://ziweizhang0304.github.io/Stats_learning_trig/img/Stim/FN_011_g.png"",""time"":3400.600000023842},{""stimulus"":""blank"",""time"":3702.8000000715256},{""stimulus"":""https://ziweizhang0304.github.io/Stats_learning_trig/img/Stim/FN_008_g.png"",""time"":3743.7000000476837},{""stimulus"":""blank"",""time"":4048.8000000715256},{""stimulus"":""https://ziweizhang0304.github.io/Stats_learning_trig/img/Stim/FN_019_g.png"",""time"":4080.600000023842},{""stimulus"":""blank"",""time"":4381.200000047684}]","[{""key_press"":32,""rt"":2160.899999976158,""stimulus"":""https://ziweizhang0304.github.io/Stats_learning_trig/img/Stim/FN_014_g.png""},{""key_press"":32,""rt"":2870.600000023842,""stimulus"":""https://ziweizhang0304.github.io/Stats_learning_trig/img/Stim/FN_001_g.png""}]","490","https://ziweizhang0304.github.io/Stats_learning_trig/img/Stim/FN_004_g.png","post_TD","14","2380.600000023842","2870.600000023842","fast","7","2","59e1e3a23e4b5a00016a9c17","","","","","",""
"","image-keyboard-response","41","131173","0.0-5.0-14.0-0.0","750.6000000238419","","","https://ziweizhang0304.github.io/Stats_learning_trig/img/Stim/FN_012_g.png","13","","","","","","","","","","","","","","","","","",""
"","animation","42","135594","0.0-5.0-14.0-1.0","","","","","","[{""stimulus"":""https://ziweizhang0304.github.io/Stats_learning_trig/img/Stim/FN_011_g.png"",""time"":341.39999997615814},{""stimulus"":""blank"",""time"":642.8999999761581},{""stimulus"":""https://ziweizhang0304.github.io/Stats_learning_trig/img/Stim/FN_007_g.png"",""time"":681.8000000715256},{""stimulus"":""blank"",""time"":983.2000000476837},{""stimulus"":""https://ziweizhang0304.github.io/Stats_learning_trig/img/Stim/FN_008_g.png"",""time"":1024.5},{""stimulus"":""blank"",""time"":1326.6000000238419},{""stimulus"":""https://ziweizhang0304.github.io/Stats_learning_trig/img/Stim/FN_006_g.png"",""time"":1361.3000000715256},{""stimulus"":""blank"",""time"":1662.8999999761581},{""stimulus"":""https://ziweizhang0304.github.io/Stats_learning_trig/img/Stim/FN_024_g.png"",""time"":1703.8999999761581},{""stimulus"":""blank"",""time"":2005.1000000238419},{""stimulus"":""https://ziweizhang0304.github.io/Stats_learning_trig/img/Stim/FN_010_g.png"",""time"":2040.3000000715256},{""stimulus"":""blank"",""time"":2341.399999976158},{""stimulus"":""https://ziweizhang0304.github.io/Stats_learning_trig/img/Stim/FN_012_g.png"",""time"":2382.3000000715256},{""stimulus"":""blank"",""time"":2684},{""stimulus"":""https://ziweizhang0304.github.io/Stats_learning_trig/img/Stim/FN_023_g.png"",""time"":2723.100000023842},{""stimulus"":""blank"",""time"":3027},{""stimulus"":""https://ziweizhang0304.github.io/Stats_learning_trig/img/Stim/FN_009_g.png"",""time"":3061.8000000715256},{""stimulus"":""blank"",""time"":3363.399999976158},{""stimulus"":""https://ziweizhang0304.github.io/Stats_learning_trig/img/Stim/FN_017_g.png"",""time"":3403.899999976158},{""stimulus"":""blank"",""time"":3704.100000023842},{""stimulus"":""https://ziweizhang0304.github.io/Stats_learning_trig/img/Stim/FN_003_g.png"",""time"":3740.8000000715256},{""stimulus"":""blank"",""time"":4042.899999976158},{""stimulus"":""https://ziweizhang0304.github.io/Stats_learning_trig/img/Stim/FN_019_g.png"",""time"":4083.2000000476837},{""stimulus"":""blank"",""time"":4385.399999976158}]","[{""key_press"":32,""rt"":2819.399999976158,""stimulus"":""https://ziweizhang0304.github.io/Stats_learning_trig/img/Stim/FN_023_g.png""}]","437.09999990463257","https://ziweizhang0304.github.io/Stats_learning_trig/img/Stim/FN_012_g.png","post_TD","15","2382.3000000715256","2819.399999976158","slow","7","1","59e1e3a23e4b5a00016a9c17","","","","","",""
"","image-keyboard-response","43","136371","0.0-5.0-15.0-0.0","775.6000000238419","","","https://ziweizhang0304.github.io/Stats_learning_trig/img/Stim/FN_001_g.png","13","","","","","","","","","","","","","","","","","",""
"","animation","44","140794","0.0-5.0-15.0-1.0","","","","","","[{""stimulus"":""https://ziweizhang0304.github.io/Stats_learning_trig/img/Stim/FN_010_g.png"",""time"":340.8000000715256},{""stimulus"":""blank"",""time"":641.2000000476837},{""stimulus"":""https://ziweizhang0304.github.io/Stats_learning_trig/img/Stim/FN_003_g.png"",""time"":685.5},{""stimulus"":""blank"",""time"":987.1000000238419},{""stimulus"":""https://ziweizhang0304.github.io/Stats_learning_trig/img/Stim/FN_006_g.png"",""time"":1023.4000000953674},{""stimulus"":""blank"",""time"":1323.8000000715256},{""stimulus"":""https://ziweizhang0304.github.io/Stats_learning_trig/img/Stim/FN_024_g.png"",""time"":1364.6000000238419},{""stimulus"":""blank"",""time"":1667.3000000715256},{""stimulus"":""https://ziweizhang0304.github.io/Stats_learning_trig/img/Stim/FN_017_g.png"",""time"":1702.9000000953674},{""stimulus"":""blank"",""time"":2006},{""stimulus"":""https://ziweizhang0304.github.io/Stats_learning_trig/img/Stim/FN_014_g.png"",""time"":2041.1000000238419},{""stimulus"":""blank"",""time"":2341.3000000715256},{""stimulus"":""https://ziweizhang0304.github.io/Stats_learning_trig/img/Stim/FN_004_g.png"",""time"":2384},{""stimulus"":""blank"",""time"":2686},{""stimulus"":""https://ziweizhang0304.github.io/Stats_learning_trig/img/Stim/FN_001_g.png"",""time"":2723},{""stimulus"":""blank"",""time"":3023.9000000953674},{""stimulus"":""https://ziweizhang0304.github.io/Stats_learning_trig/img/Stim/FN_007_g.png"",""time"":3062.4000000953674},{""stimulus"":""blank"",""time"":3366.5},{""stimulus"":""https://ziweizhang0304.github.io/Stats_learning_trig/img/Stim/FN_011_g.png"",""time"":3402.3000000715256},{""stimulus"":""blank"",""time"":3703.2000000476837},{""stimulus"":""https://ziweizhang0304.github.io/Stats_learning_trig/img/Stim/FN_008_g.png"",""time"":3741.3000000715256},{""stimulus"":""blank"",""time"":4042.9000000953674},{""stimulus"":""https://ziweizhang0304.github.io/Stats_learning_trig/img/Stim/FN_019_g.png"",""time"":4081.4000000953674},{""stimulus"":""blank"",""time"":4383.100000023842}]","[{""key_press"":32,""rt"":3015.7000000476837,""stimulus"":""https://ziweizhang0304.github.io/Stats_learning_trig/img/Stim/FN_001_g.png""}]","292.7000000476837","https://ziweizhang0304.github.io/Stats_learning_trig/img/Stim/FN_001_g.png","post_TD","16","2723","3015.7000000476837","fast","8","3","59e1e3a23e4b5a00016a9c17","","","","","",""
"","image-keyboard-response","45","141473","0.0-5.0-16.0-0.0","677.1000000238419","","","https://ziweizhang0304.github.io/Stats_learning_trig/img/Stim/FN_023_g.png","13","","","","","","","","","","","","","","","","","",""
"","animation","46","145897","0.0-5.0-16.0-1.0","","","","","","[{""stimulus"":""https://ziweizhang0304.github.io/Stats_learning_trig/img/Stim/FN_019_g.png"",""time"":341.5},{""stimulus"":""blank"",""time"":642.2000000476837},{""stimulus"":""https://ziweizhang0304.github.io/Stats_learning_trig/img/Stim/FN_011_g.png"",""time"":681.3000000715256},{""stimulus"":""blank"",""time"":982.3000000715256},{""stimulus"":""https://ziweizhang0304.github.io/Stats_learning_trig/img/Stim/FN_017_g.png"",""time"":1023.1000000238419},{""stimulus"":""blank"",""time"":1327.3000000715256},{""stimulus"":""https://ziweizhang0304.github.io/Stats_learning_trig/img/Stim/FN_010_g.png"",""time"":1362.3999999761581},{""stimulus"":""blank"",""time"":1667},{""stimulus"":""https://ziweizhang0304.github.io/Stats_learning_trig/img/Stim/FN_012_g.png"",""time"":1704.1000000238419},{""stimulus"":""blank"",""time"":2004.2000000476837},{""stimulus"":""https://ziweizhang0304.github.io/Stats_learning_trig/img/Stim/FN_023_g.png"",""time"":2041.6000000238419},{""stimulus"":""blank"",""time"":2343.100000023842},{""stimulus"":""https://ziweizhang0304.github.io/Stats_learning_trig/img/Stim/FN_009_g.png"",""time"":2381.5},{""stimulus"":""blank"",""time"":2683.100000023842},{""stimulus"":""https://ziweizhang0304.github.io/Stats_learning_trig/img/Stim/FN_007_g.png"",""time"":2723.899999976158},{""stimulus"":""blank"",""time"":3025.600000023842},{""stimulus"":""https://ziweizhang0304.github.io/Stats_learning_trig/img/Stim/FN_006_g.png"",""time"":3063.100000023842},{""stimulus"":""blank"",""time"":3367.5},{""stimulus"":""https://ziweizhang0304.github.io/Stats_learning_trig/img/Stim/FN_008_g.png"",""time"":3403.2000000476837},{""stimulus"":""blank"",""time"":3704.399999976158},{""stimulus"":""https://ziweizhang0304.github.io/Stats_learning_trig/img/Stim/FN_024_g.png"",""time"":3741.7000000476837},{""stimulus"":""blank"",""time"":4043},{""stimulus"":""https://ziweizhang0304.github.io/Stats_learning_trig/img/Stim/FN_003_g.png"",""time"":4081.8000000715256},{""stimulus"":""blank"",""time"":4384.100000023842}]","[{""key_press"":32,""rt"":2454.2000000476837,""stimulus"":""https://ziweizhang0304.github.io/Stats_learning_trig/img/Stim/FN_009_g.png""}]","412.60000002384186","https://ziweizhang0304.github.io/Stats_learning_trig/img/Stim/FN_023_g.png","post_TD","17","2041.6000000238419","2454.2000000476837","slow","6","2","59e1e3a23e4b5a00016a9c17","","","","","",""
"","image-keyboard-response","47","146314","0.0-5.0-17.0-0.0","415.3000000715256","","","https://ziweizhang0304.github.io/Stats_learning_trig/img/Stim/FN_001_g.png","13","","","","","","","","","","","","","","","","","",""
"","animation","48","150739","0.0-5.0-17.0-1.0","","","","","","[{""stimulus"":""https://ziweizhang0304.github.io/Stats_learning_trig/img/Stim/FN_006_g.png"",""time"":342.89999997615814},{""stimulus"":""blank"",""time"":644.1999999284744},{""stimulus"":""https://ziweizhang0304.github.io/Stats_learning_trig/img/Stim/FN_024_g.png"",""time"":683},{""stimulus"":""blank"",""time"":987},{""stimulus"":""https://ziweizhang0304.github.io/Stats_learning_trig/img/Stim/FN_007_g.png"",""time"":1022},{""stimulus"":""blank"",""time"":1325.6999999284744},{""stimulus"":""https://ziweizhang0304.github.io/Stats_learning_trig/img/Stim/FN_014_g.png"",""time"":1364},{""stimulus"":""blank"",""time"":1664.6999999284744},{""stimulus"":""https://ziweizhang0304.github.io/Stats_learning_trig/img/Stim/FN_004_g.png"",""time"":1701.1999999284744},{""stimulus"":""blank"",""time"":2002.8999999761581},{""stimulus"":""https://ziweizhang0304.github.io/Stats_learning_trig/img/Stim/FN_001_g.png"",""time"":2043.6999999284744},{""stimulus"":""blank"",""time"":2343.899999976158},{""stimulus"":""https://ziweizhang0304.github.io/Stats_learning_trig/img/Stim/FN_010_g.png"",""time"":2385.1999999284744},{""stimulus"":""blank"",""time"":2687.6999999284744},{""stimulus"":""https://ziweizhang0304.github.io/Stats_learning_trig/img/Stim/FN_017_g.png"",""time"":2723.1999999284744},{""stimulus"":""blank"",""time"":3024.5999999046326},{""stimulus"":""https://ziweizhang0304.github.io/Stats_learning_trig/img/Stim/FN_011_g.png"",""time"":3061.899999976158},{""stimulus"":""blank"",""time"":3362.2999999523163},{""stimulus"":""https://ziweizhang0304.github.io/Stats_learning_trig/img/Stim/FN_008_g.png"",""time"":3402.0999999046326},{""stimulus"":""blank"",""time"":3703.7999999523163},{""stimulus"":""https://ziweizhang0304.github.io/Stats_learning_trig/img/Stim/FN_003_g.png"",""time"":3740.7999999523163},{""stimulus"":""blank"",""time"":4041},{""stimulus"":""https://ziweizhang0304.github.io/Stats_learning_trig/img/Stim/FN_019_g.png"",""time"":4080.6999999284744},{""stimulus"":""blank"",""time"":4383.899999976158}]","[{""key_press"":32,""rt"":2387.399999976158,""stimulus"":""https://ziweizhang0304.github.io/Stats_learning_trig/img/Stim/FN_010_g.png""}]","343.7000000476837","https://ziweizhang0304.github.io/Stats_learning_trig/img/Stim/FN_001_g.png","post_TD","18","2043.6999999284744","2387.399999976158","fast","6","3","59e1e3a23e4b5a00016a9c17","","","","","",""
"","image-keyboard-response","49","151558","0.0-5.0-18.0-0.0","817.7000000476837","","","https://ziweizhang0304.github.io/Stats_learning_trig/img/Stim/FN_012_g.png","13","","","","","","","","","","","","","","","","","",""
"","animation","50","155979","0.0-5.0-18.0-1.0","","","","","","[{""stimulus"":""https://ziweizhang0304.github.io/Stats_learning_trig/img/Stim/FN_011_g.png"",""time"":341.6999999284744},{""stimulus"":""blank"",""time"":642.3999999761581},{""stimulus"":""https://ziweizhang0304.github.io/Stats_learning_trig/img/Stim/FN_010_g.png"",""time"":683.3999999761581},{""stimulus"":""blank"",""time"":985.5999999046326},{""stimulus"":""https://ziweizhang0304.github.io/Stats_learning_trig/img/Stim/FN_007_g.png"",""time"":1020.6999999284744},{""stimulus"":""blank"",""time"":1320.8999999761581},{""stimulus"":""https://ziweizhang0304.github.io/Stats_learning_trig/img/Stim/FN_003_g.png"",""time"":1362.5999999046326},{""stimulus"":""blank"",""time"":1664.5999999046326},{""stimulus"":""https://ziweizhang0304.github.io/Stats_learning_trig/img/Stim/FN_017_g.png"",""time"":1700.3999999761581},{""stimulus"":""blank"",""time"":2001.0999999046326},{""stimulus"":""https://ziweizhang0304.github.io/Stats_learning_trig/img/Stim/FN_012_g.png"",""time"":2043.0999999046326},{""stimulus"":""blank"",""time"":2343.399999976158},{""stimulus"":""https://ziweizhang0304.github.io/Stats_learning_trig/img/Stim/FN_023_g.png"",""time"":2384.7999999523163},{""stimulus"":""blank"",""time"":2686.399999976158},{""stimulus"":""https://ziweizhang0304.github.io/Stats_learning_trig/img/Stim/FN_009_g.png"",""time"":2720.5},{""stimulus"":""blank"",""time"":3021.1999999284744},{""stimulus"":""https://ziweizhang0304.github.io/Stats_learning_trig/img/Stim/FN_006_g.png"",""time"":3063.7999999523163},{""stimulus"":""blank"",""time"":3365.5999999046326},{""stimulus"":""https://ziweizhang0304.github.io/Stats_learning_trig/img/Stim/FN_008_g.png"",""time"":3400.399999976158},{""stimulus"":""blank"",""time"":3701.5},{""stimulus"":""https://ziweizhang0304.github.io/Stats_learning_trig/img/Stim/FN_024_g.png"",""time"":3742.5},{""stimulus"":""blank"",""time"":4044.5999999046326},{""stimulus"":""https://ziweizhang0304.github.io/Stats_learning_trig/img/Stim/FN_019_g.png"",""time"":4082.1999999284744},{""stimulus"":""blank"",""time"":4387.399999976158}]","[{""key_press"":32,""rt"":2448.399999976158,""stimulus"":""https://ziweizhang0304.github.io/Stats_learning_trig/img/Stim/FN_023_g.png""}]","405.3000000715256","https://ziweizhang0304.github.io/Stats_learning_trig/img/Stim/FN_012_g.png","post_TD","19","2043.0999999046326","2448.399999976158","slow","6","1","59e1e3a23e4b5a00016a9c17","","","","","",""
"","image-keyboard-response","51","156725","0.0-5.0-19.0-0.0","743.6999999284744","","","https://ziweizhang0304.github.io/Stats_learning_trig/img/Stim/FN_009_g.png","13","","","","","","","","","","","","","","","","","",""
"","animation","52","161147","0.0-5.0-19.0-1.0","","","","","","[{""stimulus"":""https://ziweizhang0304.github.io/Stats_learning_trig/img/Stim/FN_019_g.png"",""time"":341.60000002384186},{""stimulus"":""blank"",""time"":643},{""stimulus"":""https://ziweizhang0304.github.io/Stats_learning_trig/img/Stim/FN_011_g.png"",""time"":680.5},{""stimulus"":""blank"",""time"":980.6000000238419},{""stimulus"":""https://ziweizhang0304.github.io/Stats_learning_trig/img/Stim/FN_017_g.png"",""time"":1023.1000000238419},{""stimulus"":""blank"",""time"":1328.1000000238419},{""stimulus"":""https://ziweizhang0304.github.io/Stats_learning_trig/img/Stim/FN_010_g.png"",""time"":1360.7999999523163},{""stimulus"":""blank"",""time"":1662.3999999761581},{""stimulus"":""https://ziweizhang0304.github.io/Stats_learning_trig/img/Stim/FN_012_g.png"",""time"":1705.1000000238419},{""stimulus"":""blank"",""time"":2008},{""stimulus"":""https://ziweizhang0304.github.io/Stats_learning_trig/img/Stim/FN_023_g.png"",""time"":2042.2999999523163},{""stimulus"":""blank"",""time"":2343.899999976158},{""stimulus"":""https://ziweizhang0304.github.io/Stats_learning_trig/img/Stim/FN_009_g.png"",""time"":2380.7999999523163},{""stimulus"":""blank"",""time"":2681.2999999523163},{""stimulus"":""https://ziweizhang0304.github.io/Stats_learning_trig/img/Stim/FN_007_g.png"",""time"":2721.1999999284744},{""stimulus"":""blank"",""time"":3022.5},{""stimulus"":""https://ziweizhang0304.github.io/Stats_learning_trig/img/Stim/FN_006_g.png"",""time"":3061.7999999523163},{""stimulus"":""blank"",""time"":3363.1999999284744},{""stimulus"":""https://ziweizhang0304.github.io/Stats_learning_trig/img/Stim/FN_008_g.png"",""time"":3403},{""stimulus"":""blank"",""time"":3707.600000023842},{""stimulus"":""https://ziweizhang0304.github.io/Stats_learning_trig/img/Stim/FN_024_g.png"",""time"":3741.5},{""stimulus"":""blank"",""time"":4042.600000023842},{""stimulus"":""https://ziweizhang0304.github.io/Stats_learning_trig/img/Stim/FN_003_g.png"",""time"":4082.100000023842},{""stimulus"":""blank"",""time"":4382.399999976158}]","[{""key_press"":32,""rt"":2699.6999999284744,""stimulus"":""blank""}]","318.89999997615814","https://ziweizhang0304.github.io/Stats_learning_trig/img/Stim/FN_009_g.png","post_TD","20","2380.7999999523163","2699.6999999284744","slow","7","3","59e1e3a23e4b5a00016a9c17","","","","","",""
"","image-keyboard-response","53","161603","0.0-5.0-20.0-0.0","453.6999999284744","","","https://ziweizhang0304.github.io/Stats_learning_trig/img/Stim/FN_009_g.png","13","","","","","","","","","","","","","","","","","",""
"","animation","54","166027","0.0-5.0-20.0-1.0","","","","","","[{""stimulus"":""https://ziweizhang0304.github.io/Stats_learning_trig/img/Stim/FN_011_g.png"",""time"":345.7000000476837},{""stimulus"":""blank"",""time"":647.1000000238419},{""stimulus"":""https://ziweizhang0304.github.io/Stats_learning_trig/img/Stim/FN_007_g.png"",""time"":680.6000000238419},{""stimulus"":""blank"",""time"":982},{""stimulus"":""https://ziweizhang0304.github.io/Stats_learning_trig/img/Stim/FN_008_g.png"",""time"":1024.7000000476837},{""stimulus"":""blank"",""time"":1326.2999999523163},{""stimulus"":""https://ziweizhang0304.github.io/Stats_learning_trig/img/Stim/FN_006_g.png"",""time"":1361.2000000476837},{""stimulus"":""blank"",""time"":1662.8999999761581},{""stimulus"":""https://ziweizhang0304.github.io/Stats_learning_trig/img/Stim/FN_024_g.png"",""time"":1703.7999999523163},{""stimulus"":""blank"",""time"":2005.6000000238419},{""stimulus"":""https://ziweizhang0304.github.io/Stats_learning_trig/img/Stim/FN_010_g.png"",""time"":2040.3999999761581},{""stimulus"":""blank"",""time"":2341.899999976158},{""stimulus"":""https://ziweizhang0304.github.io/Stats_learning_trig/img/Stim/FN_012_g.png"",""time"":2380.600000023842},{""stimulus"":""blank"",""time"":2682.100000023842},{""stimulus"":""https://ziweizhang0304.github.io/Stats_learning_trig/img/Stim/FN_023_g.png"",""time"":2724.7999999523163},{""stimulus"":""blank"",""time"":3027.7000000476837},{""stimulus"":""https://ziweizhang0304.github.io/Stats_learning_trig/img/Stim/FN_009_g.png"",""time"":3061},{""stimulus"":""blank"",""time"":3362.100000023842},{""stimulus"":""https://ziweizhang0304.github.io/Stats_learning_trig/img/Stim/FN_017_g.png"",""time"":3404.899999976158},{""stimulus"":""blank"",""time"":3705},{""stimulus"":""https://ziweizhang0304.github.io/Stats_learning_trig/img/Stim/FN_003_g.png"",""time"":3741.2999999523163},{""stimulus"":""blank"",""time"":4043.100000023842},{""stimulus"":""https://ziweizhang0304.github.io/Stats_learning_trig/img/Stim/FN_019_g.png"",""time"":4081.7000000476837},{""stimulus"":""blank"",""time"":4382.100000023842}]","[{""key_press"":32,""rt"":3422.2999999523163,""stimulus"":""https://ziweizhang0304.github.io/Stats_learning_trig/img/Stim/FN_017_g.png""}]","361.2999999523163","https://ziweizhang0304.github.io/Stats_learning_trig/img/Stim/FN_009_g.png","post_TD","21","3061","3422.2999999523163","slow","9","3","59e1e3a23e4b5a00016a9c17","","","","","",""
"","image-keyboard-response","55","166625","0.0-5.0-21.0-0.0","596.3999999761581","","","https://ziweizhang0304.github.io/Stats_learning_trig/img/Stim/FN_014_g.png","13","","","","","","","","","","","","","","","","","",""
"","animation","56","171050","0.0-5.0-21.0-1.0","","","","","","[{""stimulus"":""https://ziweizhang0304.github.io/Stats_learning_trig/img/Stim/FN_007_g.png"",""time"":341.5},{""stimulus"":""blank"",""time"":643.3000000715256},{""stimulus"":""https://ziweizhang0304.github.io/Stats_learning_trig/img/Stim/FN_008_g.png"",""time"":681.3999999761581},{""stimulus"":""blank"",""time"":983.2000000476837},{""stimulus"":""https://ziweizhang0304.github.io/Stats_learning_trig/img/Stim/FN_010_g.png"",""time"":1024.2000000476837},{""stimulus"":""blank"",""time"":1325.8000000715256},{""stimulus"":""https://ziweizhang0304.github.io/Stats_learning_trig/img/Stim/FN_024_g.png"",""time"":1360.7000000476837},{""stimulus"":""blank"",""time"":1662},{""stimulus"":""https://ziweizhang0304.github.io/Stats_learning_trig/img/Stim/FN_019_g.png"",""time"":1703.3000000715256},{""stimulus"":""blank"",""time"":2004.2000000476837},{""stimulus"":""https://ziweizhang0304.github.io/Stats_learning_trig/img/Stim/FN_006_g.png"",""time"":2042},{""stimulus"":""blank"",""time"":2345},{""stimulus"":""https://ziweizhang0304.github.io/Stats_learning_trig/img/Stim/FN_014_g.png"",""time"":2382.600000023842},{""stimulus"":""blank"",""time"":2683.7000000476837},{""stimulus"":""https://ziweizhang0304.github.io/Stats_learning_trig/img/Stim/FN_004_g.png"",""time"":2724.600000023842},{""stimulus"":""blank"",""time"":3026.5},{""stimulus"":""https://ziweizhang0304.github.io/Stats_learning_trig/img/Stim/FN_001_g.png"",""time"":3061.600000023842},{""stimulus"":""blank"",""time"":3363.3000000715256},{""stimulus"":""https://ziweizhang0304.github.io/Stats_learning_trig/img/Stim/FN_017_g.png"",""time"":3404.3000000715256},{""stimulus"":""blank"",""time"":3705.7000000476837},{""stimulus"":""https://ziweizhang0304.github.io/Stats_learning_trig/img/Stim/FN_011_g.png"",""time"":3740.7000000476837},{""stimulus"":""blank"",""time"":4042.5},{""stimulus"":""https://ziweizhang0304.github.io/Stats_learning_trig/img/Stim/FN_003_g.png"",""time"":4082.600000023842},{""stimulus"":""blank"",""time"":4383.700000047684}]","[{""key_press"":32,""rt"":2868.399999976158,""stimulus"":""https://ziweizhang0304.github.io/Stats_learning_trig/img/Stim/FN_004_g.png""}]","485.7999999523163","https://ziweizhang0304.github.io/Stats_learning_trig/img/Stim/FN_014_g.png","post_TD","22","2382.600000023842","2868.399999976158","fast","7","1","59e1e3a23e4b5a00016a9c17","","","","","",""
"","image-keyboard-response","57","171833","0.0-5.0-22.0-0.0","781","","","https://ziweizhang0304.github.io/Stats_learning_trig/img/Stim/FN_004_g.png","13","","","","","","","","","","","","","","","","","",""
"","animation","58","176258","0.0-5.0-22.0-1.0","","","","","","[{""stimulus"":""https://ziweizhang0304.github.io/Stats_learning_trig/img/Stim/FN_007_g.png"",""time"":343.89999997615814},{""stimulus"":""blank"",""time"":645.1999999284744},{""stimulus"":""https://ziweizhang0304.github.io/Stats_learning_trig/img/Stim/FN_008_g.png"",""time"":680.5999999046326},{""stimulus"":""blank"",""time"":982.1999999284744},{""stimulus"":""https://ziweizhang0304.github.io/Stats_learning_trig/img/Stim/FN_010_g.png"",""time"":1022.3999999761581},{""stimulus"":""blank"",""time"":1323.8999999761581},{""stimulus"":""https://ziweizhang0304.github.io/Stats_learning_trig/img/Stim/FN_024_g.png"",""time"":1361.3999999761581},{""stimulus"":""blank"",""time"":1663.3999999761581},{""stimulus"":""https://ziweizhang0304.github.io/Stats_learning_trig/img/Stim/FN_019_g.png"",""time"":1702},{""stimulus"":""blank"",""time"":2003.6999999284744},{""stimulus"":""https://ziweizhang0304.github.io/Stats_learning_trig/img/Stim/FN_006_g.png"",""time"":2044.6999999284744},{""stimulus"":""blank"",""time"":2346.0999999046326},{""stimulus"":""https://ziweizhang0304.github.io/Stats_learning_trig/img/Stim/FN_014_g.png"",""time"":2380.899999976158},{""stimulus"":""blank"",""time"":2682.899999976158},{""stimulus"":""https://ziweizhang0304.github.io/Stats_learning_trig/img/Stim/FN_004_g.png"",""time"":2723.1999999284744},{""stimulus"":""blank"",""time"":3025.5},{""stimulus"":""https://ziweizhang0304.github.io/Stats_learning_trig/img/Stim/FN_001_g.png"",""time"":3060.5999999046326},{""stimulus"":""blank"",""time"":3362.0999999046326},{""stimulus"":""https://ziweizhang0304.github.io/Stats_learning_trig/img/Stim/FN_017_g.png"",""time"":3401.5},{""stimulus"":""blank"",""time"":3704.5},{""stimulus"":""https://ziweizhang0304.github.io/Stats_learning_trig/img/Stim/FN_011_g.png"",""time"":3743.5},{""stimulus"":""blank"",""time"":4043.5999999046326},{""stimulus"":""https://ziweizhang0304.github.io/Stats_learning_trig/img/Stim/FN_003_g.png"",""time"":4081.7999999523163},{""stimulus"":""blank"",""time"":4383.399999976158}]","[{""key_press"":32,""rt"":2691.7000000476837,""stimulus"":""blank""},{""key_press"":32,""rt"":3290.8000000715256,""stimulus"":""https://ziweizhang0304.github.io/Stats_learning_trig/img/Stim/FN_001_g.png""}]","567.6000001430511","https://ziweizhang0304.github.io/Stats_learning_trig/img/Stim/FN_004_g.png","post_TD","23","2723.1999999284744","3290.8000000715256","fast","8","2","59e1e3a23e4b5a00016a9c17","","","","","",""
"","image-keyboard-response","59","176908","0.0-5.0-23.0-0.0","648.6000000238419","","","https://ziweizhang0304.github.io/Stats_learning_trig/img/Stim/FN_023_g.png","13","","","","","","","","","","","","","","","","","",""
"","animation","60","181331","0.0-5.0-23.0-1.0","","","","","","[{""stimulus"":""https://ziweizhang0304.github.io/Stats_learning_trig/img/Stim/FN_011_g.png"",""time"":342.40000009536743},{""stimulus"":""blank"",""time"":645.9000000953674},{""stimulus"":""https://ziweizhang0304.github.io/Stats_learning_trig/img/Stim/FN_010_g.png"",""time"":682.7000000476837},{""stimulus"":""blank"",""time"":986},{""stimulus"":""https://ziweizhang0304.github.io/Stats_learning_trig/img/Stim/FN_007_g.png"",""time"":1021.3000000715256},{""stimulus"":""blank"",""time"":1323.1000000238419},{""stimulus"":""https://ziweizhang0304.github.io/Stats_learning_trig/img/Stim/FN_003_g.png"",""time"":1364},{""stimulus"":""blank"",""time"":1665.4000000953674},{""stimulus"":""https://ziweizhang0304.github.io/Stats_learning_trig/img/Stim/FN_017_g.png"",""time"":1700.6000000238419},{""stimulus"":""blank"",""time"":2001.6000000238419},{""stimulus"":""https://ziweizhang0304.github.io/Stats_learning_trig/img/Stim/FN_012_g.png"",""time"":2043},{""stimulus"":""blank"",""time"":2344.7000000476837},{""stimulus"":""https://ziweizhang0304.github.io/Stats_learning_trig/img/Stim/FN_023_g.png"",""time"":2383.2000000476837},{""stimulus"":""blank"",""time"":2685.5},{""stimulus"":""https://ziweizhang0304.github.io/Stats_learning_trig/img/Stim/FN_009_g.png"",""time"":2721.8000000715256},{""stimulus"":""blank"",""time"":3024.600000023842},{""stimulus"":""https://ziweizhang0304.github.io/Stats_learning_trig/img/Stim/FN_006_g.png"",""time"":3061.100000023842},{""stimulus"":""blank"",""time"":3363.2000000476837},{""stimulus"":""https://ziweizhang0304.github.io/Stats_learning_trig/img/Stim/FN_008_g.png"",""time"":3400.600000023842},{""stimulus"":""blank"",""time"":3701.2000000476837},{""stimulus"":""https://ziweizhang0304.github.io/Stats_learning_trig/img/Stim/FN_024_g.png"",""time"":3744},{""stimulus"":""blank"",""time"":4046.600000023842},{""stimulus"":""https://ziweizhang0304.github.io/Stats_learning_trig/img/Stim/FN_019_g.png"",""time"":4080.8000000715256},{""stimulus"":""blank"",""time"":4382.300000071526}]","[{""key_press"":32,""rt"":2869.600000023842,""stimulus"":""https://ziweizhang0304.github.io/Stats_learning_trig/img/Stim/FN_009_g.png""}]","486.39999997615814","https://ziweizhang0304.github.io/Stats_learning_trig/img/Stim/FN_023_g.png","post_TD","24","2383.2000000476837","2869.600000023842","slow","7","2","59e1e3a23e4b5a00016a9c17","7b91f","","","","",""
"","survey-text","61","184173","0.0-6.0","2836.5","","","","","","","","","","","","","","","","","","{""Q0"":""No.""}","","","",""
"","survey-text","62","192543","0.0-7.0","8368.5","","","","","","","","","","","","","","","","","","{""[object Object]"":""Looked like they were maybe in order but I couldn't tell and it didn't help me.""}","","","",""
"","instructions","63","197526","0.0-8.0","4981.800000071526","","[{""page_index"":0,""viewing_time"":4981.5}]","","","","","","","","","","","","","","","","","","","",""
"","free-sort","64","209780","0.0-9.0","12253.299999952316","","","","","","","","","post_drag","","","","fast","","","","","","[{""src"":""https://ziweizhang0304.github.io/Stats_learning_trig/img/Stim/FN_014_g.png"",""x"":475,""y"":0},{""src"":""https://ziweizhang0304.github.io/Stats_learning_trig/img/Stim/FN_001_g.png"",""x"":-225,""y"":50},{""src"":""https://ziweizhang0304.github.io/Stats_learning_trig/img/Stim/FN_004_g.png"",""x"":475,""y"":50}]","[{""src"":""https://ziweizhang0304.github.io/Stats_learning_trig/img/Stim/FN_001_g.png"",""x"":40,""y"":29},{""src"":""https://ziweizhang0304.github.io/Stats_learning_trig/img/Stim/FN_014_g.png"",""x"":118,""y"":27},{""src"":""https://ziweizhang0304.github.io/Stats_learning_trig/img/Stim/FN_004_g.png"",""x"":204,""y"":32}]","[{""src"":""https://ziweizhang0304.github.io/Stats_learning_trig/img/Stim/FN_014_g.png"",""x"":118,""y"":27},{""src"":""https://ziweizhang0304.github.io/Stats_learning_trig/img/Stim/FN_001_g.png"",""x"":40,""y"":29},{""src"":""https://ziweizhang0304.github.io/Stats_learning_trig/img/Stim/FN_004_g.png"",""x"":204,""y"":32}]",""
"","free-sort","65","216204","0.0-10.0","6423.299999952316","","","","","","","","","post_drag","","","","slow","","","","","","[{""src"":""https://ziweizhang0304.github.io/Stats_learning_trig/img/Stim/FN_012_g.png"",""x"":475,""y"":0},{""src"":""https://ziweizhang0304.github.io/Stats_learning_trig/img/Stim/FN_023_g.png"",""x"":-225,""y"":50},{""src"":""https://ziweizhang0304.github.io/Stats_learning_trig/img/Stim/FN_009_g.png"",""x"":475,""y"":50}]","[{""src"":""https://ziweizhang0304.github.io/Stats_learning_trig/img/Stim/FN_012_g.png"",""x"":20,""y"":19},{""src"":""https://ziweizhang0304.github.io/Stats_learning_trig/img/Stim/FN_023_g.png"",""x"":124,""y"":21},{""src"":""https://ziweizhang0304.github.io/Stats_learning_trig/img/Stim/FN_009_g.png"",""x"":220,""y"":28}]","[{""src"":""https://ziweizhang0304.github.io/Stats_learning_trig/img/Stim/FN_012_g.png"",""x"":20,""y"":19},{""src"":""https://ziweizhang0304.github.io/Stats_learning_trig/img/Stim/FN_023_g.png"",""x"":124,""y"":21},{""src"":""https://ziweizhang0304.github.io/Stats_learning_trig/img/Stim/FN_009_g.png"",""x"":220,""y"":28}]",""
"","survey-multi-choice","66","225467","0.0-11.0","9260.5","","","","","","","","","","","","","","","","59e1e3a23e4b5a00016a9c17","","{""awareness"":""Not sure"",""attention_check"":""Press SPACEBAR to a target""}","","","","[0,1]"
