"success","trial_type","trial_index","time_elapsed","internal_node_id","rt","url","view_history","stimulus","key_press","animation_sequence","response","TD_rt","TD_target","test_part","TD_trial_number","onset","offset","attention_state","TD_target_position","TD_within_triplet_counter","participant","yoke_participant","responses","init_locations","moves","final_locations","question_order"
"true","fullscreen","0","4764","0.0-0.0","","","","","","","","","","","","","","","","","","","","","","",""
"","external-html","1","37802","0.0-1.0","32962.300000071526","https://ziweizhang0304.github.io/Stats_learning_trig/content/consent.html","","","","","","","","","","","","","","","","","","","","",""
"","instructions","2","55972","0.0-2.0","18168.899999976158","","[{""page_index"":0,""viewing_time"":2359.7999999523163},{""page_index"":1,""viewing_time"":6827.400000095367},{""page_index"":2,""viewing_time"":7240.399999976158},{""page_index"":3,""viewing_time"":1740.6999999284744}]","","","","","","","","","","","","","","","","","","","",""
"","image-keyboard-response","3","63373","0.0-3.0-0.0-0.0","7399.5","","","https://ziweizhang0304.github.io/Stats_learning_trig/img/Stim/FN_016_g.png","13","","","","","","","","","","","","","","","","","",""
"","animation","4","67797","0.0-3.0-0.0-1.0","","","","","","[{""stimulus"":""https://ziweizhang0304.github.io/Stats_learning_trig/img/Stim/FN_026_g.png"",""time"":351},{""stimulus"":""blank"",""time"":652.5},{""stimulus"":""https://ziweizhang0304.github.io/Stats_learning_trig/img/Stim/FN_019_g.png"",""time"":682.1000000238419},{""stimulus"":""blank"",""time"":983.3999999761581},{""stimulus"":""https://ziweizhang0304.github.io/Stats_learning_trig/img/Stim/FN_005_g.png"",""time"":1024.6000000238419},{""stimulus"":""blank"",""time"":1326},{""stimulus"":""https://ziweizhang0304.github.io/Stats_learning_trig/img/Stim/FN_011_g.png"",""time"":1362.8999999761581},{""stimulus"":""blank"",""time"":1668.2000000476837},{""stimulus"":""https://ziweizhang0304.github.io/Stats_learning_trig/img/Stim/FN_015_g.png"",""time"":1704.6000000238419},{""stimulus"":""blank"",""time"":2005.1000000238419},{""stimulus"":""https://ziweizhang0304.github.io/Stats_learning_trig/img/Stim/FN_008_g.png"",""time"":2045.2000000476837},{""stimulus"":""blank"",""time"":2347.5},{""stimulus"":""https://ziweizhang0304.github.io/Stats_learning_trig/img/Stim/FN_024_g.png"",""time"":2382.899999976158},{""stimulus"":""blank"",""time"":2685.7000000476837},{""stimulus"":""https://ziweizhang0304.github.io/Stats_learning_trig/img/Stim/FN_013_g.png"",""time"":2725.2999999523163},{""stimulus"":""blank"",""time"":3026.399999976158},{""stimulus"":""https://ziweizhang0304.github.io/Stats_learning_trig/img/Stim/FN_022_g.png"",""time"":3062.100000023842},{""stimulus"":""blank"",""time"":3362.899999976158},{""stimulus"":""https://ziweizhang0304.github.io/Stats_learning_trig/img/Stim/FN_002_g.png"",""time"":3404.5},{""stimulus"":""blank"",""time"":3706},{""stimulus"":""https://ziweizhang0304.github.io/Stats_learning_trig/img/Stim/FN_023_g.png"",""time"":3741.100000023842},{""stimulus"":""blank"",""time"":4042.600000023842},{""stimulus"":""https://ziweizhang0304.github.io/Stats_learning_trig/img/Stim/FN_016_g.png"",""time"":4081.2999999523163},{""stimulus"":""blank"",""time"":4384.100000023842}]","[{""key_press"":32,""rt"":2468.8000000715256,""stimulus"":""https://ziweizhang0304.github.io/Stats_learning_trig/img/Stim/FN_024_g.png""}]","NaN","https://ziweizhang0304.github.io/Stats_learning_trig/img/Stim/FN_016_g.png","post_prac","","","","","","","","","","","","",""
"","html-keyboard-response","5","71939","0.0-3.0-0.0-2.0","4138.100000023842","","","<p>Your reaction time for this trial was NaN ms.</p><p>Remember that you should only press the SPACEBAR when you see the shape presented at the beginning of the trial. </b> </p><p>Press enter to move on.</p>","13","","","","","","","","","","","","","","","","","",""
"","image-keyboard-response","6","76950","0.0-3.0-1.0-0.0","5010.5","","","https://ziweizhang0304.github.io/Stats_learning_trig/img/Stim/FN_010_g.png","13","","","","","","","","","","","","","","","","","",""
"","animation","7","81375","0.0-3.0-1.0-1.0","","","","","","[{""stimulus"":""https://ziweizhang0304.github.io/Stats_learning_trig/img/Stim/FN_019_g.png"",""time"":342.2999999523163},{""stimulus"":""blank"",""time"":644.7999999523163},{""stimulus"":""https://ziweizhang0304.github.io/Stats_learning_trig/img/Stim/FN_005_g.png"",""time"":684.7000000476837},{""stimulus"":""blank"",""time"":990.1000000238419},{""stimulus"":""https://ziweizhang0304.github.io/Stats_learning_trig/img/Stim/FN_024_g.png"",""time"":1023},{""stimulus"":""blank"",""time"":1326.7999999523163},{""stimulus"":""https://ziweizhang0304.github.io/Stats_learning_trig/img/Stim/FN_013_g.png"",""time"":1361.3999999761581},{""stimulus"":""blank"",""time"":1663.5},{""stimulus"":""https://ziweizhang0304.github.io/Stats_learning_trig/img/Stim/FN_010_g.png"",""time"":1702.2000000476837},{""stimulus"":""blank"",""time"":2003.2000000476837},{""stimulus"":""https://ziweizhang0304.github.io/Stats_learning_trig/img/Stim/FN_017_g.png"",""time"":2043.1000000238419},{""stimulus"":""blank"",""time"":2348.399999976158},{""stimulus"":""https://ziweizhang0304.github.io/Stats_learning_trig/img/Stim/FN_018_g.png"",""time"":2385.600000023842},{""stimulus"":""blank"",""time"":2690.2999999523163},{""stimulus"":""https://ziweizhang0304.github.io/Stats_learning_trig/img/Stim/FN_026_g.png"",""time"":2722.899999976158},{""stimulus"":""blank"",""time"":3027.2000000476837},{""stimulus"":""https://ziweizhang0304.github.io/Stats_learning_trig/img/Stim/FN_002_g.png"",""time"":3062.7999999523163},{""stimulus"":""blank"",""time"":3364.399999976158},{""stimulus"":""https://ziweizhang0304.github.io/Stats_learning_trig/img/Stim/FN_023_g.png"",""time"":3402.2000000476837},{""stimulus"":""blank"",""time"":3704.399999976158},{""stimulus"":""https://ziweizhang0304.github.io/Stats_learning_trig/img/Stim/FN_011_g.png"",""time"":3741.7999999523163},{""stimulus"":""blank"",""time"":4043.5},{""stimulus"":""https://ziweizhang0304.github.io/Stats_learning_trig/img/Stim/FN_015_g.png"",""time"":4084.7000000476837},{""stimulus"":""blank"",""time"":4385.200000047684}]","[{""key_press"":32,""rt"":2089.100000023842,""stimulus"":""https://ziweizhang0304.github.io/Stats_learning_trig/img/Stim/FN_017_g.png""}]","386.89999997615814","https://ziweizhang0304.github.io/Stats_learning_trig/img/Stim/FN_010_g.png","post_prac","","","","","","","","","","","","",""
"","html-keyboard-response","8","85412","0.0-3.0-1.0-2.0","4035","","","<p>Your reaction time for this trial was 386.9 ms.</p><p>Remember that you should only press the SPACEBAR when you see the shape presented at the beginning of the trial. </b> </p><p>Press enter to move on.</p>","13","","","","","","","","","","","","","","","","","",""
"","image-keyboard-response","9","87879","0.0-3.0-2.0-0.0","2467","","","https://ziweizhang0304.github.io/Stats_learning_trig/img/Stim/FN_008_g.png","13","","","","","","","","","","","","","","","","","",""
"","animation","10","92301","0.0-3.0-2.0-1.0","","","","","","[{""stimulus"":""https://ziweizhang0304.github.io/Stats_learning_trig/img/Stim/FN_023_g.png"",""time"":346},{""stimulus"":""blank"",""time"":649.2999999523163},{""stimulus"":""https://ziweizhang0304.github.io/Stats_learning_trig/img/Stim/FN_011_g.png"",""time"":683.2999999523163},{""stimulus"":""blank"",""time"":986},{""stimulus"":""https://ziweizhang0304.github.io/Stats_learning_trig/img/Stim/FN_024_g.png"",""time"":1021.3999999761581},{""stimulus"":""blank"",""time"":1322.3999999761581},{""stimulus"":""https://ziweizhang0304.github.io/Stats_learning_trig/img/Stim/FN_013_g.png"",""time"":1363.7999999523163},{""stimulus"":""blank"",""time"":1664.8999999761581},{""stimulus"":""https://ziweizhang0304.github.io/Stats_learning_trig/img/Stim/FN_015_g.png"",""time"":1702.2000000476837},{""stimulus"":""blank"",""time"":2005.7000000476837},{""stimulus"":""https://ziweizhang0304.github.io/Stats_learning_trig/img/Stim/FN_016_g.png"",""time"":2045.6000000238419},{""stimulus"":""blank"",""time"":2350.2000000476837},{""stimulus"":""https://ziweizhang0304.github.io/Stats_learning_trig/img/Stim/FN_022_g.png"",""time"":2382.899999976158},{""stimulus"":""blank"",""time"":2686.399999976158},{""stimulus"":""https://ziweizhang0304.github.io/Stats_learning_trig/img/Stim/FN_008_g.png"",""time"":2721.899999976158},{""stimulus"":""blank"",""time"":3022.2999999523163},{""stimulus"":""https://ziweizhang0304.github.io/Stats_learning_trig/img/Stim/FN_026_g.png"",""time"":3064.600000023842},{""stimulus"":""blank"",""time"":3365.7000000476837},{""stimulus"":""https://ziweizhang0304.github.io/Stats_learning_trig/img/Stim/FN_002_g.png"",""time"":3401.100000023842},{""stimulus"":""blank"",""time"":3705.600000023842},{""stimulus"":""https://ziweizhang0304.github.io/Stats_learning_trig/img/Stim/FN_019_g.png"",""time"":3745.600000023842},{""stimulus"":""blank"",""time"":4050.5},{""stimulus"":""https://ziweizhang0304.github.io/Stats_learning_trig/img/Stim/FN_005_g.png"",""time"":4083.5},{""stimulus"":""blank"",""time"":4387.299999952316}]","[{""key_press"":32,""rt"":3118.7999999523163,""stimulus"":""https://ziweizhang0304.github.io/Stats_learning_trig/img/Stim/FN_026_g.png""}]","396.89999997615814","https://ziweizhang0304.github.io/Stats_learning_trig/img/Stim/FN_008_g.png","post_prac","","","","","","","","","","","","",""
"","html-keyboard-response","11","93803","0.0-3.0-2.0-2.0","1499.7999999523163","","","<p>Your reaction time for this trial was 396.9 ms.</p><p>Remember that you should only press the SPACEBAR when you see the shape presented at the beginning of the trial. </b> </p><p>Press enter to move on.</p>","13","","","","","","","","","","","","","","","","","",""
"","instructions","12","95256","0.0-4.0","1452.2999999523163","","[{""page_index"":0,""viewing_time"":1452.0999999046326}]","","","","","","","","","","","","","","","","","","","",""
"","image-keyboard-response","13","98799","0.0-5.0-0.0-0.0","3542.899999976158","","","https://ziweizhang0304.github.io/Stats_learning_trig/img/Stim/FN_017_g.png","13","","","","","","","","","","","","","","","","","",""
"","animation","14","103225","0.0-5.0-0.0-1.0","","","","","","[{""stimulus"":""https://ziweizhang0304.github.io/Stats_learning_trig/img/Stim/FN_023_g.png"",""time"":341.60000002384186},{""stimulus"":""blank"",""time"":642.1000000238419},{""stimulus"":""https://ziweizhang0304.github.io/Stats_learning_trig/img/Stim/FN_011_g.png"",""time"":685.1000000238419},{""stimulus"":""blank"",""time"":985.2999999523163},{""stimulus"":""https://ziweizhang0304.github.io/Stats_learning_trig/img/Stim/FN_026_g.png"",""time"":1024.1000000238419},{""stimulus"":""blank"",""time"":1327},{""stimulus"":""https://ziweizhang0304.github.io/Stats_learning_trig/img/Stim/FN_010_g.png"",""time"":1362.6000000238419},{""stimulus"":""blank"",""time"":1666.5},{""stimulus"":""https://ziweizhang0304.github.io/Stats_learning_trig/img/Stim/FN_017_g.png"",""time"":1701.7999999523163},{""stimulus"":""blank"",""time"":2003.7999999523163},{""stimulus"":""https://ziweizhang0304.github.io/Stats_learning_trig/img/Stim/FN_018_g.png"",""time"":2041.7999999523163},{""stimulus"":""blank"",""time"":2343.7000000476837},{""stimulus"":""https://ziweizhang0304.github.io/Stats_learning_trig/img/Stim/FN_002_g.png"",""time"":2384.600000023842},{""stimulus"":""blank"",""time"":2686.100000023842},{""stimulus"":""https://ziweizhang0304.github.io/Stats_learning_trig/img/Stim/FN_019_g.png"",""time"":2722.600000023842},{""stimulus"":""blank"",""time"":3024.7999999523163},{""stimulus"":""https://ziweizhang0304.github.io/Stats_learning_trig/img/Stim/FN_005_g.png"",""time"":3063.2000000476837},{""stimulus"":""blank"",""time"":3365.2999999523163},{""stimulus"":""https://ziweizhang0304.github.io/Stats_learning_trig/img/Stim/FN_024_g.png"",""time"":3400.600000023842},{""stimulus"":""blank"",""time"":3701.899999976158},{""stimulus"":""https://ziweizhang0304.github.io/Stats_learning_trig/img/Stim/FN_015_g.png"",""time"":3742.399999976158},{""stimulus"":""blank"",""time"":4042.899999976158},{""stimulus"":""https://ziweizhang0304.github.io/Stats_learning_trig/img/Stim/FN_013_g.png"",""time"":4085.600000023842},{""stimulus"":""blank"",""time"":4387}]","[{""key_press"":32,""rt"":2100.5,""stimulus"":""https://ziweizhang0304.github.io/Stats_learning_trig/img/Stim/FN_018_g.png""}]","398.7000000476837","https://ziweizhang0304.github.io/Stats_learning_trig/img/Stim/FN_017_g.png","post_TD","1","1701.7999999523163","2100.5","slow","5","2","61007233396dd596eb7c55b0","","","","","",""
"","image-keyboard-response","15","105078","0.0-5.0-1.0-0.0","1851.2999999523163","","","https://ziweizhang0304.github.io/Stats_learning_trig/img/Stim/FN_018_g.png","13","","","","","","","","","","","","","","","","","",""
"","animation","16","109499","0.0-5.0-1.0-1.0","","","","","","[{""stimulus"":""https://ziweizhang0304.github.io/Stats_learning_trig/img/Stim/FN_019_g.png"",""time"":343.5},{""stimulus"":""blank"",""time"":645.3999999761581},{""stimulus"":""https://ziweizhang0304.github.io/Stats_learning_trig/img/Stim/FN_026_g.png"",""time"":684.1000000238419},{""stimulus"":""blank"",""time"":987.6000000238419},{""stimulus"":""https://ziweizhang0304.github.io/Stats_learning_trig/img/Stim/FN_015_g.png"",""time"":1020.8999999761581},{""stimulus"":""blank"",""time"":1321.7999999523163},{""stimulus"":""https://ziweizhang0304.github.io/Stats_learning_trig/img/Stim/FN_011_g.png"",""time"":1365.5},{""stimulus"":""blank"",""time"":1666.5},{""stimulus"":""https://ziweizhang0304.github.io/Stats_learning_trig/img/Stim/FN_024_g.png"",""time"":1702.1000000238419},{""stimulus"":""blank"",""time"":2006.5},{""stimulus"":""https://ziweizhang0304.github.io/Stats_learning_trig/img/Stim/FN_010_g.png"",""time"":2044.6000000238419},{""stimulus"":""blank"",""time"":2346.100000023842},{""stimulus"":""https://ziweizhang0304.github.io/Stats_learning_trig/img/Stim/FN_017_g.png"",""time"":2380.899999976158},{""stimulus"":""blank"",""time"":2683.2999999523163},{""stimulus"":""https://ziweizhang0304.github.io/Stats_learning_trig/img/Stim/FN_018_g.png"",""time"":2721.5},{""stimulus"":""blank"",""time"":3022.399999976158},{""stimulus"":""https://ziweizhang0304.github.io/Stats_learning_trig/img/Stim/FN_002_g.png"",""time"":3063.2999999523163},{""stimulus"":""blank"",""time"":3363.899999976158},{""stimulus"":""https://ziweizhang0304.github.io/Stats_learning_trig/img/Stim/FN_005_g.png"",""time"":3403},{""stimulus"":""blank"",""time"":3706.399999976158},{""stimulus"":""https://ziweizhang0304.github.io/Stats_learning_trig/img/Stim/FN_023_g.png"",""time"":3740.7999999523163},{""stimulus"":""blank"",""time"":4046},{""stimulus"":""https://ziweizhang0304.github.io/Stats_learning_trig/img/Stim/FN_013_g.png"",""time"":4082.2000000476837},{""stimulus"":""blank"",""time"":4383.600000023842}]","[{""key_press"":32,""rt"":2789.600000023842,""stimulus"":""https://ziweizhang0304.github.io/Stats_learning_trig/img/Stim/FN_018_g.png""}]","68.10000002384186","https://ziweizhang0304.github.io/Stats_learning_trig/img/Stim/FN_018_g.png","post_TD","2","2721.5","2789.600000023842","slow","8","3","61007233396dd596eb7c55b0","","","","","",""
"","image-keyboard-response","17","114794","0.0-5.0-2.0-0.0","5292.700000047684","","","https://ziweizhang0304.github.io/Stats_learning_trig/img/Stim/FN_008_g.png","13","","","","","","","","","","","","","","","","","",""
"","animation","18","119218","0.0-5.0-2.0-1.0","","","","","","[{""stimulus"":""https://ziweizhang0304.github.io/Stats_learning_trig/img/Stim/FN_026_g.png"",""time"":345.09999990463257},{""stimulus"":""blank"",""time"":646.3999999761581},{""stimulus"":""https://ziweizhang0304.github.io/Stats_learning_trig/img/Stim/FN_015_g.png"",""time"":682.2999999523163},{""stimulus"":""blank"",""time"":983.1999999284744},{""stimulus"":""https://ziweizhang0304.github.io/Stats_learning_trig/img/Stim/FN_019_g.png"",""time"":1024.1999999284744},{""stimulus"":""blank"",""time"":1326.2999999523163},{""stimulus"":""https://ziweizhang0304.github.io/Stats_learning_trig/img/Stim/FN_016_g.png"",""time"":1361.5999999046326},{""stimulus"":""blank"",""time"":1662.5999999046326},{""stimulus"":""https://ziweizhang0304.github.io/Stats_learning_trig/img/Stim/FN_022_g.png"",""time"":1704.1999999284744},{""stimulus"":""blank"",""time"":2005.5999999046326},{""stimulus"":""https://ziweizhang0304.github.io/Stats_learning_trig/img/Stim/FN_008_g.png"",""time"":2043.5},{""stimulus"":""blank"",""time"":2348},{""stimulus"":""https://ziweizhang0304.github.io/Stats_learning_trig/img/Stim/FN_002_g.png"",""time"":2383.1999999284744},{""stimulus"":""blank"",""time"":2684.6999999284744},{""stimulus"":""https://ziweizhang0304.github.io/Stats_learning_trig/img/Stim/FN_005_g.png"",""time"":2724},{""stimulus"":""blank"",""time"":3027},{""stimulus"":""https://ziweizhang0304.github.io/Stats_learning_trig/img/Stim/FN_023_g.png"",""time"":3062.399999976158},{""stimulus"":""blank"",""time"":3363.2999999523163},{""stimulus"":""https://ziweizhang0304.github.io/Stats_learning_trig/img/Stim/FN_011_g.png"",""time"":3404.0999999046326},{""stimulus"":""blank"",""time"":3705.7999999523163},{""stimulus"":""https://ziweizhang0304.github.io/Stats_learning_trig/img/Stim/FN_024_g.png"",""time"":3741.5999999046326},{""stimulus"":""blank"",""time"":4046.5999999046326},{""stimulus"":""https://ziweizhang0304.github.io/Stats_learning_trig/img/Stim/FN_013_g.png"",""time"":4084.0999999046326},{""stimulus"":""blank"",""time"":4385.5}]","[{""key_press"":32,""rt"":2403.9000000953674,""stimulus"":""https://ziweizhang0304.github.io/Stats_learning_trig/img/Stim/FN_002_g.png""}]","360.40000009536743","https://ziweizhang0304.github.io/Stats_learning_trig/img/Stim/FN_008_g.png","post_TD","3","2043.5","2403.9000000953674","fast","6","3","61007233396dd596eb7c55b0","","","","","",""
"","image-keyboard-response","19","120584","0.0-5.0-3.0-0.0","1364.5","","","https://ziweizhang0304.github.io/Stats_learning_trig/img/Stim/FN_008_g.png","13","","","","","","","","","","","","","","","","","",""
"","animation","20","125005","0.0-5.0-3.0-1.0","","","","","","[{""stimulus"":""https://ziweizhang0304.github.io/Stats_learning_trig/img/Stim/FN_002_g.png"",""time"":343.2000000476837},{""stimulus"":""blank"",""time"":647.8000000715256},{""stimulus"":""https://ziweizhang0304.github.io/Stats_learning_trig/img/Stim/FN_023_g.png"",""time"":682.6000000238419},{""stimulus"":""blank"",""time"":987.1000000238419},{""stimulus"":""https://ziweizhang0304.github.io/Stats_learning_trig/img/Stim/FN_015_g.png"",""time"":1022.4000000953674},{""stimulus"":""blank"",""time"":1322.9000000953674},{""stimulus"":""https://ziweizhang0304.github.io/Stats_learning_trig/img/Stim/FN_005_g.png"",""time"":1361.4000000953674},{""stimulus"":""blank"",""time"":1661.9000000953674},{""stimulus"":""https://ziweizhang0304.github.io/Stats_learning_trig/img/Stim/FN_011_g.png"",""time"":1702.5},{""stimulus"":""blank"",""time"":2005.5},{""stimulus"":""https://ziweizhang0304.github.io/Stats_learning_trig/img/Stim/FN_024_g.png"",""time"":2044},{""stimulus"":""blank"",""time"":2345.4000000953674},{""stimulus"":""https://ziweizhang0304.github.io/Stats_learning_trig/img/Stim/FN_016_g.png"",""time"":2384.2000000476837},{""stimulus"":""blank"",""time"":2688},{""stimulus"":""https://ziweizhang0304.github.io/Stats_learning_trig/img/Stim/FN_022_g.png"",""time"":2722.2000000476837},{""stimulus"":""blank"",""time"":3024.600000023842},{""stimulus"":""https://ziweizhang0304.github.io/Stats_learning_trig/img/Stim/FN_008_g.png"",""time"":3061.600000023842},{""stimulus"":""blank"",""time"":3362},{""stimulus"":""https://ziweizhang0304.github.io/Stats_learning_trig/img/Stim/FN_026_g.png"",""time"":3402.4000000953674},{""stimulus"":""blank"",""time"":3705.9000000953674},{""stimulus"":""https://ziweizhang0304.github.io/Stats_learning_trig/img/Stim/FN_019_g.png"",""time"":3744.9000000953674},{""stimulus"":""blank"",""time"":4050},{""stimulus"":""https://ziweizhang0304.github.io/Stats_learning_trig/img/Stim/FN_013_g.png"",""time"":4082.5},{""stimulus"":""blank"",""time"":4383}]","[{""key_press"":32,""rt"":3436.7000000476837,""stimulus"":""https://ziweizhang0304.github.io/Stats_learning_trig/img/Stim/FN_026_g.png""}]","375.10000002384186","https://ziweizhang0304.github.io/Stats_learning_trig/img/Stim/FN_008_g.png","post_TD","4","3061.600000023842","3436.7000000476837","fast","9","3","61007233396dd596eb7c55b0","","","","","",""
"","image-keyboard-response","21","126148","0.0-5.0-4.0-0.0","1141","","","https://ziweizhang0304.github.io/Stats_learning_trig/img/Stim/FN_022_g.png","13","","","","","","","","","","","","","","","","","",""
"","animation","22","130574","0.0-5.0-4.0-1.0","","","","","","[{""stimulus"":""https://ziweizhang0304.github.io/Stats_learning_trig/img/Stim/FN_023_g.png"",""time"":346.10000002384186},{""stimulus"":""blank"",""time"":647.2999999523163},{""stimulus"":""https://ziweizhang0304.github.io/Stats_learning_trig/img/Stim/FN_011_g.png"",""time"":682.5},{""stimulus"":""blank"",""time"":984.6000000238419},{""stimulus"":""https://ziweizhang0304.github.io/Stats_learning_trig/img/Stim/FN_024_g.png"",""time"":1025.6999999284744},{""stimulus"":""blank"",""time"":1326.5},{""stimulus"":""https://ziweizhang0304.github.io/Stats_learning_trig/img/Stim/FN_013_g.png"",""time"":1361.6999999284744},{""stimulus"":""blank"",""time"":1663.2999999523163},{""stimulus"":""https://ziweizhang0304.github.io/Stats_learning_trig/img/Stim/FN_015_g.png"",""time"":1700.5},{""stimulus"":""blank"",""time"":2001.6999999284744},{""stimulus"":""https://ziweizhang0304.github.io/Stats_learning_trig/img/Stim/FN_016_g.png"",""time"":2042.5},{""stimulus"":""blank"",""time"":2346.600000023842},{""stimulus"":""https://ziweizhang0304.github.io/Stats_learning_trig/img/Stim/FN_022_g.png"",""time"":2383.399999976158},{""stimulus"":""blank"",""time"":2684.7999999523163},{""stimulus"":""https://ziweizhang0304.github.io/Stats_learning_trig/img/Stim/FN_008_g.png"",""time"":2725.6999999284744},{""stimulus"":""blank"",""time"":3027.2999999523163},{""stimulus"":""https://ziweizhang0304.github.io/Stats_learning_trig/img/Stim/FN_026_g.png"",""time"":3063.100000023842},{""stimulus"":""blank"",""time"":3363.2999999523163},{""stimulus"":""https://ziweizhang0304.github.io/Stats_learning_trig/img/Stim/FN_002_g.png"",""time"":3401.600000023842},{""stimulus"":""blank"",""time"":3702.1999999284744},{""stimulus"":""https://ziweizhang0304.github.io/Stats_learning_trig/img/Stim/FN_019_g.png"",""time"":3742},{""stimulus"":""blank"",""time"":4043.100000023842},{""stimulus"":""https://ziweizhang0304.github.io/Stats_learning_trig/img/Stim/FN_005_g.png"",""time"":4085.6999999284744},{""stimulus"":""blank"",""time"":4390.299999952316}]","[{""key_press"":32,""rt"":2745.5999999046326,""stimulus"":""https://ziweizhang0304.github.io/Stats_learning_trig/img/Stim/FN_008_g.png""}]","362.1999999284744","https://ziweizhang0304.github.io/Stats_learning_trig/img/Stim/FN_022_g.png","post_TD","5","2383.399999976158","2745.5999999046326","fast","7","2","61007233396dd596eb7c55b0","","","","","",""
"","image-keyboard-response","23","131546","0.0-5.0-5.0-0.0","970.7000000476837","","","https://ziweizhang0304.github.io/Stats_learning_trig/img/Stim/FN_010_g.png","13","","","","","","","","","","","","","","","","","",""
"","animation","24","135967","0.0-5.0-5.0-1.0","","","","","","[{""stimulus"":""https://ziweizhang0304.github.io/Stats_learning_trig/img/Stim/FN_019_g.png"",""time"":343.7000000476837},{""stimulus"":""blank"",""time"":647.8999999761581},{""stimulus"":""https://ziweizhang0304.github.io/Stats_learning_trig/img/Stim/FN_005_g.png"",""time"":683.2000000476837},{""stimulus"":""blank"",""time"":987.5},{""stimulus"":""https://ziweizhang0304.github.io/Stats_learning_trig/img/Stim/FN_024_g.png"",""time"":1022.5},{""stimulus"":""blank"",""time"":1326.2999999523163},{""stimulus"":""https://ziweizhang0304.github.io/Stats_learning_trig/img/Stim/FN_013_g.png"",""time"":1362.5},{""stimulus"":""blank"",""time"":1663.7999999523163},{""stimulus"":""https://ziweizhang0304.github.io/Stats_learning_trig/img/Stim/FN_010_g.png"",""time"":1700.7999999523163},{""stimulus"":""blank"",""time"":2001.5},{""stimulus"":""https://ziweizhang0304.github.io/Stats_learning_trig/img/Stim/FN_017_g.png"",""time"":2044.1000000238419},{""stimulus"":""blank"",""time"":2348.7999999523163},{""stimulus"":""https://ziweizhang0304.github.io/Stats_learning_trig/img/Stim/FN_018_g.png"",""time"":2384.2000000476837},{""stimulus"":""blank"",""time"":2687.399999976158},{""stimulus"":""https://ziweizhang0304.github.io/Stats_learning_trig/img/Stim/FN_026_g.png"",""time"":2723.2000000476837},{""stimulus"":""blank"",""time"":3028},{""stimulus"":""https://ziweizhang0304.github.io/Stats_learning_trig/img/Stim/FN_002_g.png"",""time"":3061},{""stimulus"":""blank"",""time"":3363.2999999523163},{""stimulus"":""https://ziweizhang0304.github.io/Stats_learning_trig/img/Stim/FN_023_g.png"",""time"":3401},{""stimulus"":""blank"",""time"":3701.2999999523163},{""stimulus"":""https://ziweizhang0304.github.io/Stats_learning_trig/img/Stim/FN_011_g.png"",""time"":3744},{""stimulus"":""blank"",""time"":4045.5},{""stimulus"":""https://ziweizhang0304.github.io/Stats_learning_trig/img/Stim/FN_015_g.png"",""time"":4085},{""stimulus"":""blank"",""time"":4386.399999976158}]","[{""key_press"":32,""rt"":2076.7999999523163,""stimulus"":""https://ziweizhang0304.github.io/Stats_learning_trig/img/Stim/FN_017_g.png""}]","376","https://ziweizhang0304.github.io/Stats_learning_trig/img/Stim/FN_010_g.png","post_TD","6","1700.7999999523163","2076.7999999523163","slow","5","1","61007233396dd596eb7c55b0","","","","","",""
"","image-keyboard-response","25","137462","0.0-5.0-6.0-0.0","1493.5","","","https://ziweizhang0304.github.io/Stats_learning_trig/img/Stim/FN_016_g.png","13","","","","","","","","","","","","","","","","","",""
"","animation","26","141886","0.0-5.0-6.0-1.0","","","","","","[{""stimulus"":""https://ziweizhang0304.github.io/Stats_learning_trig/img/Stim/FN_023_g.png"",""time"":342.7000000476837},{""stimulus"":""blank"",""time"":643.8000000715256},{""stimulus"":""https://ziweizhang0304.github.io/Stats_learning_trig/img/Stim/FN_011_g.png"",""time"":681.6000000238419},{""stimulus"":""blank"",""time"":982},{""stimulus"":""https://ziweizhang0304.github.io/Stats_learning_trig/img/Stim/FN_024_g.png"",""time"":1024.6000000238419},{""stimulus"":""blank"",""time"":1327.1000000238419},{""stimulus"":""https://ziweizhang0304.github.io/Stats_learning_trig/img/Stim/FN_013_g.png"",""time"":1361},{""stimulus"":""blank"",""time"":1662.7000000476837},{""stimulus"":""https://ziweizhang0304.github.io/Stats_learning_trig/img/Stim/FN_015_g.png"",""time"":1703.8999999761581},{""stimulus"":""blank"",""time"":2005.3000000715256},{""stimulus"":""https://ziweizhang0304.github.io/Stats_learning_trig/img/Stim/FN_016_g.png"",""time"":2042},{""stimulus"":""blank"",""time"":2343.7000000476837},{""stimulus"":""https://ziweizhang0304.github.io/Stats_learning_trig/img/Stim/FN_022_g.png"",""time"":2381.7000000476837},{""stimulus"":""blank"",""time"":2683.100000023842},{""stimulus"":""https://ziweizhang0304.github.io/Stats_learning_trig/img/Stim/FN_008_g.png"",""time"":2725.5},{""stimulus"":""blank"",""time"":3026.899999976158},{""stimulus"":""https://ziweizhang0304.github.io/Stats_learning_trig/img/Stim/FN_026_g.png"",""time"":3062.100000023842},{""stimulus"":""blank"",""time"":3363.600000023842},{""stimulus"":""https://ziweizhang0304.github.io/Stats_learning_trig/img/Stim/FN_002_g.png"",""time"":3404.600000023842},{""stimulus"":""blank"",""time"":3707.600000023842},{""stimulus"":""https://ziweizhang0304.github.io/Stats_learning_trig/img/Stim/FN_019_g.png"",""time"":3742.100000023842},{""stimulus"":""blank"",""time"":4043},{""stimulus"":""https://ziweizhang0304.github.io/Stats_learning_trig/img/Stim/FN_005_g.png"",""time"":4081.600000023842},{""stimulus"":""blank"",""time"":4382.5}]","[{""key_press"":32,""rt"":2434.100000023842,""stimulus"":""https://ziweizhang0304.github.io/Stats_learning_trig/img/Stim/FN_022_g.png""}]","392.10000002384186","https://ziweizhang0304.github.io/Stats_learning_trig/img/Stim/FN_016_g.png","post_TD","7","2042","2434.100000023842","fast","6","1","61007233396dd596eb7c55b0","","","","","",""
"","image-keyboard-response","27","143011","0.0-5.0-7.0-0.0","1123","","","https://ziweizhang0304.github.io/Stats_learning_trig/img/Stim/FN_016_g.png","13","","","","","","","","","","","","","","","","","",""
"","animation","28","147433","0.0-5.0-7.0-1.0","","","","","","[{""stimulus"":""https://ziweizhang0304.github.io/Stats_learning_trig/img/Stim/FN_002_g.png"",""time"":342.60000002384186},{""stimulus"":""blank"",""time"":644.7999999523163},{""stimulus"":""https://ziweizhang0304.github.io/Stats_learning_trig/img/Stim/FN_023_g.png"",""time"":683.1000000238419},{""stimulus"":""blank"",""time"":984.3999999761581},{""stimulus"":""https://ziweizhang0304.github.io/Stats_learning_trig/img/Stim/FN_015_g.png"",""time"":1025.3999999761581},{""stimulus"":""blank"",""time"":1328.2999999523163},{""stimulus"":""https://ziweizhang0304.github.io/Stats_learning_trig/img/Stim/FN_005_g.png"",""time"":1365.5},{""stimulus"":""blank"",""time"":1669.3999999761581},{""stimulus"":""https://ziweizhang0304.github.io/Stats_learning_trig/img/Stim/FN_011_g.png"",""time"":1702.1000000238419},{""stimulus"":""blank"",""time"":2005.3999999761581},{""stimulus"":""https://ziweizhang0304.github.io/Stats_learning_trig/img/Stim/FN_024_g.png"",""time"":2041.3999999761581},{""stimulus"":""blank"",""time"":2342.7999999523163},{""stimulus"":""https://ziweizhang0304.github.io/Stats_learning_trig/img/Stim/FN_016_g.png"",""time"":2384.1999999284744},{""stimulus"":""blank"",""time"":2686.7999999523163},{""stimulus"":""https://ziweizhang0304.github.io/Stats_learning_trig/img/Stim/FN_022_g.png"",""time"":2721.899999976158},{""stimulus"":""blank"",""time"":3024.899999976158},{""stimulus"":""https://ziweizhang0304.github.io/Stats_learning_trig/img/Stim/FN_008_g.png"",""time"":3062.600000023842},{""stimulus"":""blank"",""time"":3364.5},{""stimulus"":""https://ziweizhang0304.github.io/Stats_learning_trig/img/Stim/FN_026_g.png"",""time"":3402.100000023842},{""stimulus"":""blank"",""time"":3707},{""stimulus"":""https://ziweizhang0304.github.io/Stats_learning_trig/img/Stim/FN_019_g.png"",""time"":3741.7999999523163},{""stimulus"":""blank"",""time"":4043.5},{""stimulus"":""https://ziweizhang0304.github.io/Stats_learning_trig/img/Stim/FN_013_g.png"",""time"":4085},{""stimulus"":""blank"",""time"":4388.399999976158}]","[{""key_press"":32,""rt"":2767.0999999046326,""stimulus"":""https://ziweizhang0304.github.io/Stats_learning_trig/img/Stim/FN_022_g.png""}]","382.89999997615814","https://ziweizhang0304.github.io/Stats_learning_trig/img/Stim/FN_016_g.png","post_TD","8","2384.1999999284744","2767.0999999046326","fast","7","1","61007233396dd596eb7c55b0","","","","","",""
"","image-keyboard-response","29","148286","0.0-5.0-8.0-0.0","852.2000000476837","","","https://ziweizhang0304.github.io/Stats_learning_trig/img/Stim/FN_017_g.png","13","","","","","","","","","","","","","","","","","",""
"","animation","30","152709","0.0-5.0-8.0-1.0","","","","","","[{""stimulus"":""https://ziweizhang0304.github.io/Stats_learning_trig/img/Stim/FN_019_g.png"",""time"":345.39999997615814},{""stimulus"":""blank"",""time"":649.3999999761581},{""stimulus"":""https://ziweizhang0304.github.io/Stats_learning_trig/img/Stim/FN_026_g.png"",""time"":683},{""stimulus"":""blank"",""time"":986.0999999046326},{""stimulus"":""https://ziweizhang0304.github.io/Stats_learning_trig/img/Stim/FN_015_g.png"",""time"":1021.2999999523163},{""stimulus"":""blank"",""time"":1322.7999999523163},{""stimulus"":""https://ziweizhang0304.github.io/Stats_learning_trig/img/Stim/FN_011_g.png"",""time"":1360.8999999761581},{""stimulus"":""blank"",""time"":1661.6999999284744},{""stimulus"":""https://ziweizhang0304.github.io/Stats_learning_trig/img/Stim/FN_024_g.png"",""time"":1703.3999999761581},{""stimulus"":""blank"",""time"":2007.6999999284744},{""stimulus"":""https://ziweizhang0304.github.io/Stats_learning_trig/img/Stim/FN_010_g.png"",""time"":2043},{""stimulus"":""blank"",""time"":2346.5},{""stimulus"":""https://ziweizhang0304.github.io/Stats_learning_trig/img/Stim/FN_017_g.png"",""time"":2385.6999999284744},{""stimulus"":""blank"",""time"":2686.399999976158},{""stimulus"":""https://ziweizhang0304.github.io/Stats_learning_trig/img/Stim/FN_018_g.png"",""time"":2722},{""stimulus"":""blank"",""time"":3023.5999999046326},{""stimulus"":""https://ziweizhang0304.github.io/Stats_learning_trig/img/Stim/FN_002_g.png"",""time"":3061.1999999284744},{""stimulus"":""blank"",""time"":3362.2999999523163},{""stimulus"":""https://ziweizhang0304.github.io/Stats_learning_trig/img/Stim/FN_005_g.png"",""time"":3403.0999999046326},{""stimulus"":""blank"",""time"":3703.5},{""stimulus"":""https://ziweizhang0304.github.io/Stats_learning_trig/img/Stim/FN_023_g.png"",""time"":3743.7999999523163},{""stimulus"":""blank"",""time"":4046.899999976158},{""stimulus"":""https://ziweizhang0304.github.io/Stats_learning_trig/img/Stim/FN_013_g.png"",""time"":4080.6999999284744},{""stimulus"":""blank"",""time"":4386.099999904633}]","[{""key_press"":32,""rt"":2781.8000000715256,""stimulus"":""https://ziweizhang0304.github.io/Stats_learning_trig/img/Stim/FN_018_g.png""}]","396.10000014305115","https://ziweizhang0304.github.io/Stats_learning_trig/img/Stim/FN_017_g.png","post_TD","9","2385.6999999284744","2781.8000000715256","slow","7","2","61007233396dd596eb7c55b0","","","","","",""
"","image-keyboard-response","31","153537","0.0-5.0-9.0-0.0","826.3999999761581","","","https://ziweizhang0304.github.io/Stats_learning_trig/img/Stim/FN_018_g.png","13","","","","","","","","","","","","","","","","","",""
"","animation","32","157958","0.0-5.0-9.0-1.0","","","","","","[{""stimulus"":""https://ziweizhang0304.github.io/Stats_learning_trig/img/Stim/FN_026_g.png"",""time"":345.5},{""stimulus"":""blank"",""time"":646},{""stimulus"":""https://ziweizhang0304.github.io/Stats_learning_trig/img/Stim/FN_005_g.png"",""time"":683.6999999284744},{""stimulus"":""blank"",""time"":987.1999999284744},{""stimulus"":""https://ziweizhang0304.github.io/Stats_learning_trig/img/Stim/FN_002_g.png"",""time"":1021.6999999284744},{""stimulus"":""blank"",""time"":1321.8999999761581},{""stimulus"":""https://ziweizhang0304.github.io/Stats_learning_trig/img/Stim/FN_013_g.png"",""time"":1363.1999999284744},{""stimulus"":""blank"",""time"":1663.6000000238419},{""stimulus"":""https://ziweizhang0304.github.io/Stats_learning_trig/img/Stim/FN_024_g.png"",""time"":1703},{""stimulus"":""blank"",""time"":2005.1000000238419},{""stimulus"":""https://ziweizhang0304.github.io/Stats_learning_trig/img/Stim/FN_011_g.png"",""time"":2042.1000000238419},{""stimulus"":""blank"",""time"":2346},{""stimulus"":""https://ziweizhang0304.github.io/Stats_learning_trig/img/Stim/FN_010_g.png"",""time"":2385.899999976158},{""stimulus"":""blank"",""time"":2690.100000023842},{""stimulus"":""https://ziweizhang0304.github.io/Stats_learning_trig/img/Stim/FN_017_g.png"",""time"":2721.5},{""stimulus"":""blank"",""time"":3024.5},{""stimulus"":""https://ziweizhang0304.github.io/Stats_learning_trig/img/Stim/FN_018_g.png"",""time"":3062},{""stimulus"":""blank"",""time"":3362.600000023842},{""stimulus"":""https://ziweizhang0304.github.io/Stats_learning_trig/img/Stim/FN_019_g.png"",""time"":3404.5},{""stimulus"":""blank"",""time"":3705.899999976158},{""stimulus"":""https://ziweizhang0304.github.io/Stats_learning_trig/img/Stim/FN_023_g.png"",""time"":3741.100000023842},{""stimulus"":""blank"",""time"":4045.899999976158},{""stimulus"":""https://ziweizhang0304.github.io/Stats_learning_trig/img/Stim/FN_015_g.png"",""time"":4083.6999999284744},{""stimulus"":""blank"",""time"":4385.399999976158}]","[{""key_press"":32,""rt"":3091.2000000476837,""stimulus"":""https://ziweizhang0304.github.io/Stats_learning_trig/img/Stim/FN_018_g.png""}]","29.200000047683716","https://ziweizhang0304.github.io/Stats_learning_trig/img/Stim/FN_018_g.png","post_TD","10","3062","3091.2000000476837","slow","9","3","61007233396dd596eb7c55b0","","","","","",""
"","image-keyboard-response","33","158953","0.0-5.0-10.0-0.0","992.8000000715256","","","https://ziweizhang0304.github.io/Stats_learning_trig/img/Stim/FN_017_g.png","13","","","","","","","","","","","","","","","","","",""
"","animation","34","163375","0.0-5.0-10.0-1.0","","","","","","[{""stimulus"":""https://ziweizhang0304.github.io/Stats_learning_trig/img/Stim/FN_019_g.png"",""time"":345.39999997615814},{""stimulus"":""blank"",""time"":646.3999999761581},{""stimulus"":""https://ziweizhang0304.github.io/Stats_learning_trig/img/Stim/FN_005_g.png"",""time"":681.8999999761581},{""stimulus"":""blank"",""time"":985.3999999761581},{""stimulus"":""https://ziweizhang0304.github.io/Stats_learning_trig/img/Stim/FN_024_g.png"",""time"":1024.3999999761581},{""stimulus"":""blank"",""time"":1329.6999999284744},{""stimulus"":""https://ziweizhang0304.github.io/Stats_learning_trig/img/Stim/FN_013_g.png"",""time"":1362.3999999761581},{""stimulus"":""blank"",""time"":1665.5},{""stimulus"":""https://ziweizhang0304.github.io/Stats_learning_trig/img/Stim/FN_010_g.png"",""time"":1702.5999999046326},{""stimulus"":""blank"",""time"":2005},{""stimulus"":""https://ziweizhang0304.github.io/Stats_learning_trig/img/Stim/FN_017_g.png"",""time"":2044.3999999761581},{""stimulus"":""blank"",""time"":2346.2999999523163},{""stimulus"":""https://ziweizhang0304.github.io/Stats_learning_trig/img/Stim/FN_018_g.png"",""time"":2382.7999999523163},{""stimulus"":""blank"",""time"":2685.7999999523163},{""stimulus"":""https://ziweizhang0304.github.io/Stats_learning_trig/img/Stim/FN_026_g.png"",""time"":2725.1999999284744},{""stimulus"":""blank"",""time"":3029.1999999284744},{""stimulus"":""https://ziweizhang0304.github.io/Stats_learning_trig/img/Stim/FN_002_g.png"",""time"":3063.6999999284744},{""stimulus"":""blank"",""time"":3367},{""stimulus"":""https://ziweizhang0304.github.io/Stats_learning_trig/img/Stim/FN_023_g.png"",""time"":3402.6999999284744},{""stimulus"":""blank"",""time"":3703},{""stimulus"":""https://ziweizhang0304.github.io/Stats_learning_trig/img/Stim/FN_011_g.png"",""time"":3741.0999999046326},{""stimulus"":""blank"",""time"":4045},{""stimulus"":""https://ziweizhang0304.github.io/Stats_learning_trig/img/Stim/FN_015_g.png"",""time"":4083.6999999284744},{""stimulus"":""blank"",""time"":4385.099999904633}]","[{""key_press"":32,""rt"":2539.9000000953674,""stimulus"":""https://ziweizhang0304.github.io/Stats_learning_trig/img/Stim/FN_018_g.png""}]","495.5000001192093","https://ziweizhang0304.github.io/Stats_learning_trig/img/Stim/FN_017_g.png","post_TD","11","2044.3999999761581","2539.9000000953674","slow","6","2","61007233396dd596eb7c55b0","","","","","",""
"","image-keyboard-response","35","164123","0.0-5.0-11.0-0.0","746.9000000953674","","","https://ziweizhang0304.github.io/Stats_learning_trig/img/Stim/FN_017_g.png","13","","","","","","","","","","","","","","","","","",""
"","animation","36","168544","0.0-5.0-11.0-1.0","","","","","","[{""stimulus"":""https://ziweizhang0304.github.io/Stats_learning_trig/img/Stim/FN_026_g.png"",""time"":342.89999997615814},{""stimulus"":""blank"",""time"":646.5},{""stimulus"":""https://ziweizhang0304.github.io/Stats_learning_trig/img/Stim/FN_005_g.png"",""time"":681.5999999046326},{""stimulus"":""blank"",""time"":981.8999999761581},{""stimulus"":""https://ziweizhang0304.github.io/Stats_learning_trig/img/Stim/FN_002_g.png"",""time"":1020.5999999046326},{""stimulus"":""blank"",""time"":1321.6999999284744},{""stimulus"":""https://ziweizhang0304.github.io/Stats_learning_trig/img/Stim/FN_013_g.png"",""time"":1365.6999999284744},{""stimulus"":""blank"",""time"":1670.0999999046326},{""stimulus"":""https://ziweizhang0304.github.io/Stats_learning_trig/img/Stim/FN_024_g.png"",""time"":1701.5999999046326},{""stimulus"":""blank"",""time"":2006.6999999284744},{""stimulus"":""https://ziweizhang0304.github.io/Stats_learning_trig/img/Stim/FN_011_g.png"",""time"":2042},{""stimulus"":""blank"",""time"":2342.7999999523163},{""stimulus"":""https://ziweizhang0304.github.io/Stats_learning_trig/img/Stim/FN_010_g.png"",""time"":2382.2999999523163},{""stimulus"":""blank"",""time"":2684.399999976158},{""stimulus"":""https://ziweizhang0304.github.io/Stats_learning_trig/img/Stim/FN_017_g.png"",""time"":2721},{""stimulus"":""blank"",""time"":3022.399999976158},{""stimulus"":""https://ziweizhang0304.github.io/Stats_learning_trig/img/Stim/FN_018_g.png"",""time"":3065.0999999046326},{""stimulus"":""blank"",""time"":3365.399999976158},{""stimulus"":""https://ziweizhang0304.github.io/Stats_learning_trig/img/Stim/FN_019_g.png"",""time"":3404.0999999046326},{""stimulus"":""blank"",""time"":3708.899999976158},{""stimulus"":""https://ziweizhang0304.github.io/Stats_learning_trig/img/Stim/FN_023_g.png"",""time"":3742.5999999046326},{""stimulus"":""blank"",""time"":4044.2999999523163},{""stimulus"":""https://ziweizhang0304.github.io/Stats_learning_trig/img/Stim/FN_015_g.png"",""time"":4082.399999976158},{""stimulus"":""blank"",""time"":4384.599999904633}]","[{""key_press"":32,""rt"":3088.399999976158,""stimulus"":""https://ziweizhang0304.github.io/Stats_learning_trig/img/Stim/FN_018_g.png""}]","367.39999997615814","https://ziweizhang0304.github.io/Stats_learning_trig/img/Stim/FN_017_g.png","post_TD","12","2721","3088.399999976158","slow","8","2","61007233396dd596eb7c55b0","","","","","",""
"","image-keyboard-response","37","169481","0.0-5.0-12.0-0.0","935.1000000238419","","","https://ziweizhang0304.github.io/Stats_learning_trig/img/Stim/FN_010_g.png","13","","","","","","","","","","","","","","","","","",""
"","animation","38","173903","0.0-5.0-12.0-1.0","","","","","","[{""stimulus"":""https://ziweizhang0304.github.io/Stats_learning_trig/img/Stim/FN_023_g.png"",""time"":341.39999997615814},{""stimulus"":""blank"",""time"":642.5999999046326},{""stimulus"":""https://ziweizhang0304.github.io/Stats_learning_trig/img/Stim/FN_011_g.png"",""time"":683.5999999046326},{""stimulus"":""blank"",""time"":985.0999999046326},{""stimulus"":""https://ziweizhang0304.github.io/Stats_learning_trig/img/Stim/FN_026_g.png"",""time"":1021.5999999046326},{""stimulus"":""blank"",""time"":1321.8999999761581},{""stimulus"":""https://ziweizhang0304.github.io/Stats_learning_trig/img/Stim/FN_010_g.png"",""time"":1362.8999999761581},{""stimulus"":""blank"",""time"":1664.2999999523163},{""stimulus"":""https://ziweizhang0304.github.io/Stats_learning_trig/img/Stim/FN_017_g.png"",""time"":1705.3999999761581},{""stimulus"":""blank"",""time"":2007.5},{""stimulus"":""https://ziweizhang0304.github.io/Stats_learning_trig/img/Stim/FN_018_g.png"",""time"":2046},{""stimulus"":""blank"",""time"":2349.6999999284744},{""stimulus"":""https://ziweizhang0304.github.io/Stats_learning_trig/img/Stim/FN_002_g.png"",""time"":2381.899999976158},{""stimulus"":""blank"",""time"":2685.2999999523163},{""stimulus"":""https://ziweizhang0304.github.io/Stats_learning_trig/img/Stim/FN_019_g.png"",""time"":2721.1999999284744},{""stimulus"":""blank"",""time"":3022.1999999284744},{""stimulus"":""https://ziweizhang0304.github.io/Stats_learning_trig/img/Stim/FN_005_g.png"",""time"":3061.5999999046326},{""stimulus"":""blank"",""time"":3362.6999999284744},{""stimulus"":""https://ziweizhang0304.github.io/Stats_learning_trig/img/Stim/FN_024_g.png"",""time"":3403},{""stimulus"":""blank"",""time"":3706.7999999523163},{""stimulus"":""https://ziweizhang0304.github.io/Stats_learning_trig/img/Stim/FN_015_g.png"",""time"":3743},{""stimulus"":""blank"",""time"":4044.2999999523163},{""stimulus"":""https://ziweizhang0304.github.io/Stats_learning_trig/img/Stim/FN_013_g.png"",""time"":4084.5},{""stimulus"":""blank"",""time"":4388.799999952316}]","[{""key_press"":32,""rt"":1803.4000000953674,""stimulus"":""https://ziweizhang0304.github.io/Stats_learning_trig/img/Stim/FN_017_g.png""}]","440.5000001192093","https://ziweizhang0304.github.io/Stats_learning_trig/img/Stim/FN_010_g.png","post_TD","13","1362.8999999761581","1803.4000000953674","slow","4","1","61007233396dd596eb7c55b0","","","","","",""
"","image-keyboard-response","39","175567","0.0-5.0-13.0-0.0","1662.3000000715256","","","https://ziweizhang0304.github.io/Stats_learning_trig/img/Stim/FN_016_g.png","13","","","","","","","","","","","","","","","","","",""
"","animation","40","179988","0.0-5.0-13.0-1.0","","","","","","[{""stimulus"":""https://ziweizhang0304.github.io/Stats_learning_trig/img/Stim/FN_026_g.png"",""time"":341.10000002384186},{""stimulus"":""blank"",""time"":643.9000000953674},{""stimulus"":""https://ziweizhang0304.github.io/Stats_learning_trig/img/Stim/FN_015_g.png"",""time"":681.4000000953674},{""stimulus"":""blank"",""time"":982.5},{""stimulus"":""https://ziweizhang0304.github.io/Stats_learning_trig/img/Stim/FN_019_g.png"",""time"":1024.2000000476837},{""stimulus"":""blank"",""time"":1327.7000000476837},{""stimulus"":""https://ziweizhang0304.github.io/Stats_learning_trig/img/Stim/FN_016_g.png"",""time"":1360.8000000715256},{""stimulus"":""blank"",""time"":1664.9000000953674},{""stimulus"":""https://ziweizhang0304.github.io/Stats_learning_trig/img/Stim/FN_022_g.png"",""time"":1703.4000000953674},{""stimulus"":""blank"",""time"":2004.5},{""stimulus"":""https://ziweizhang0304.github.io/Stats_learning_trig/img/Stim/FN_008_g.png"",""time"":2041.8000000715256},{""stimulus"":""blank"",""time"":2344.8000000715256},{""stimulus"":""https://ziweizhang0304.github.io/Stats_learning_trig/img/Stim/FN_002_g.png"",""time"":2381.3000000715256},{""stimulus"":""blank"",""time"":2681.8000000715256},{""stimulus"":""https://ziweizhang0304.github.io/Stats_learning_trig/img/Stim/FN_005_g.png"",""time"":2724.9000000953674},{""stimulus"":""blank"",""time"":3026.5},{""stimulus"":""https://ziweizhang0304.github.io/Stats_learning_trig/img/Stim/FN_023_g.png"",""time"":3065.2000000476837},{""stimulus"":""blank"",""time"":3369},{""stimulus"":""https://ziweizhang0304.github.io/Stats_learning_trig/img/Stim/FN_011_g.png"",""time"":3404.2000000476837},{""stimulus"":""blank"",""time"":3705.7000000476837},{""stimulus"":""https://ziweizhang0304.github.io/Stats_learning_trig/img/Stim/FN_024_g.png"",""time"":3740.8000000715256},{""stimulus"":""blank"",""time"":4042.3000000715256},{""stimulus"":""https://ziweizhang0304.github.io/Stats_learning_trig/img/Stim/FN_013_g.png"",""time"":4081.2000000476837},{""stimulus"":""blank"",""time"":4382.100000023842}]","[{""key_press"":32,""rt"":1787,""stimulus"":""https://ziweizhang0304.github.io/Stats_learning_trig/img/Stim/FN_022_g.png""}]","426.1999999284744","https://ziweizhang0304.github.io/Stats_learning_trig/img/Stim/FN_016_g.png","post_TD","14","1360.8000000715256","1787","fast","4","1","61007233396dd596eb7c55b0","","","","","",""
"","image-keyboard-response","41","181230","0.0-5.0-14.0-0.0","1240.1000000238419","","","https://ziweizhang0304.github.io/Stats_learning_trig/img/Stim/FN_022_g.png","13","","","","","","","","","","","","","","","","","",""
"","animation","42","185653","0.0-5.0-14.0-1.0","","","","","","[{""stimulus"":""https://ziweizhang0304.github.io/Stats_learning_trig/img/Stim/FN_026_g.png"",""time"":342.39999997615814},{""stimulus"":""blank"",""time"":645.1000000238419},{""stimulus"":""https://ziweizhang0304.github.io/Stats_learning_trig/img/Stim/FN_015_g.png"",""time"":683.3999999761581},{""stimulus"":""blank"",""time"":987.3999999761581},{""stimulus"":""https://ziweizhang0304.github.io/Stats_learning_trig/img/Stim/FN_019_g.png"",""time"":1021},{""stimulus"":""blank"",""time"":1321.8999999761581},{""stimulus"":""https://ziweizhang0304.github.io/Stats_learning_trig/img/Stim/FN_016_g.png"",""time"":1362.8999999761581},{""stimulus"":""blank"",""time"":1667.8000000715256},{""stimulus"":""https://ziweizhang0304.github.io/Stats_learning_trig/img/Stim/FN_022_g.png"",""time"":1705.3999999761581},{""stimulus"":""blank"",""time"":2007},{""stimulus"":""https://ziweizhang0304.github.io/Stats_learning_trig/img/Stim/FN_008_g.png"",""time"":2041.3000000715256},{""stimulus"":""blank"",""time"":2343.5},{""stimulus"":""https://ziweizhang0304.github.io/Stats_learning_trig/img/Stim/FN_002_g.png"",""time"":2382},{""stimulus"":""blank"",""time"":2683.600000023842},{""stimulus"":""https://ziweizhang0304.github.io/Stats_learning_trig/img/Stim/FN_005_g.png"",""time"":2721.3000000715256},{""stimulus"":""blank"",""time"":3022.7000000476837},{""stimulus"":""https://ziweizhang0304.github.io/Stats_learning_trig/img/Stim/FN_023_g.png"",""time"":3063.899999976158},{""stimulus"":""blank"",""time"":3369.100000023842},{""stimulus"":""https://ziweizhang0304.github.io/Stats_learning_trig/img/Stim/FN_011_g.png"",""time"":3405.8000000715256},{""stimulus"":""blank"",""time"":3707.399999976158},{""stimulus"":""https://ziweizhang0304.github.io/Stats_learning_trig/img/Stim/FN_024_g.png"",""time"":3742.8000000715256},{""stimulus"":""blank"",""time"":4044.399999976158},{""stimulus"":""https://ziweizhang0304.github.io/Stats_learning_trig/img/Stim/FN_013_g.png"",""time"":4082.600000023842},{""stimulus"":""blank"",""time"":4384.300000071526}]","[{""key_press"":32,""rt"":2053.2000000476837,""stimulus"":""https://ziweizhang0304.github.io/Stats_learning_trig/img/Stim/FN_008_g.png""}]","347.8000000715256","https://ziweizhang0304.github.io/Stats_learning_trig/img/Stim/FN_022_g.png","post_TD","15","1705.3999999761581","2053.2000000476837","fast","5","2","61007233396dd596eb7c55b0","","","","","",""
"","image-keyboard-response","43","187714","0.0-5.0-15.0-0.0","2060.2999999523163","","","https://ziweizhang0304.github.io/Stats_learning_trig/img/Stim/FN_008_g.png","13","","","","","","","","","","","","","","","","","",""
"","animation","44","192138","0.0-5.0-15.0-1.0","","","","","","[{""stimulus"":""https://ziweizhang0304.github.io/Stats_learning_trig/img/Stim/FN_023_g.png"",""time"":341.7000000476837},{""stimulus"":""blank"",""time"":642.9000000953674},{""stimulus"":""https://ziweizhang0304.github.io/Stats_learning_trig/img/Stim/FN_019_g.png"",""time"":684},{""stimulus"":""blank"",""time"":984.5},{""stimulus"":""https://ziweizhang0304.github.io/Stats_learning_trig/img/Stim/FN_005_g.png"",""time"":1023.2000000476837},{""stimulus"":""blank"",""time"":1328},{""stimulus"":""https://ziweizhang0304.github.io/Stats_learning_trig/img/Stim/FN_002_g.png"",""time"":1363.3000000715256},{""stimulus"":""blank"",""time"":1666.9000000953674},{""stimulus"":""https://ziweizhang0304.github.io/Stats_learning_trig/img/Stim/FN_016_g.png"",""time"":1705.7000000476837},{""stimulus"":""blank"",""time"":2006.6000000238419},{""stimulus"":""https://ziweizhang0304.github.io/Stats_learning_trig/img/Stim/FN_022_g.png"",""time"":2042.5},{""stimulus"":""blank"",""time"":2343.8000000715256},{""stimulus"":""https://ziweizhang0304.github.io/Stats_learning_trig/img/Stim/FN_008_g.png"",""time"":2384.2000000476837},{""stimulus"":""blank"",""time"":2684.7000000476837},{""stimulus"":""https://ziweizhang0304.github.io/Stats_learning_trig/img/Stim/FN_026_g.png"",""time"":2723.8000000715256},{""stimulus"":""blank"",""time"":3028.8000000715256},{""stimulus"":""https://ziweizhang0304.github.io/Stats_learning_trig/img/Stim/FN_011_g.png"",""time"":3064},{""stimulus"":""blank"",""time"":3365.7000000476837},{""stimulus"":""https://ziweizhang0304.github.io/Stats_learning_trig/img/Stim/FN_024_g.png"",""time"":3400.9000000953674},{""stimulus"":""blank"",""time"":3702.2000000476837},{""stimulus"":""https://ziweizhang0304.github.io/Stats_learning_trig/img/Stim/FN_015_g.png"",""time"":3742.5},{""stimulus"":""blank"",""time"":4044.7000000476837},{""stimulus"":""https://ziweizhang0304.github.io/Stats_learning_trig/img/Stim/FN_013_g.png"",""time"":4083.9000000953674},{""stimulus"":""blank"",""time"":4384.400000095367}]","[{""key_press"":32,""rt"":2067.8000000715256,""stimulus"":""https://ziweizhang0304.github.io/Stats_learning_trig/img/Stim/FN_022_g.png""},{""key_press"":32,""rt"":2782.8000000715256,""stimulus"":""https://ziweizhang0304.github.io/Stats_learning_trig/img/Stim/FN_026_g.png""}]","398.60000002384186","https://ziweizhang0304.github.io/Stats_learning_trig/img/Stim/FN_008_g.png","post_TD","16","2384.2000000476837","2782.8000000715256","fast","7","3","61007233396dd596eb7c55b0","","","","","",""
"","image-keyboard-response","45","193576","0.0-5.0-16.0-0.0","1436.3999999761581","","","https://ziweizhang0304.github.io/Stats_learning_trig/img/Stim/FN_018_g.png","13","","","","","","","","","","","","","","","","","",""
"","animation","46","197998","0.0-5.0-16.0-1.0","","","","","","[{""stimulus"":""https://ziweizhang0304.github.io/Stats_learning_trig/img/Stim/FN_019_g.png"",""time"":344.39999997615814},{""stimulus"":""blank"",""time"":646.2999999523163},{""stimulus"":""https://ziweizhang0304.github.io/Stats_learning_trig/img/Stim/FN_005_g.png"",""time"":682.1999999284744},{""stimulus"":""blank"",""time"":984.6999999284744},{""stimulus"":""https://ziweizhang0304.github.io/Stats_learning_trig/img/Stim/FN_024_g.png"",""time"":1022.1000000238419},{""stimulus"":""blank"",""time"":1323},{""stimulus"":""https://ziweizhang0304.github.io/Stats_learning_trig/img/Stim/FN_013_g.png"",""time"":1364.5},{""stimulus"":""blank"",""time"":1666},{""stimulus"":""https://ziweizhang0304.github.io/Stats_learning_trig/img/Stim/FN_010_g.png"",""time"":1701.1000000238419},{""stimulus"":""blank"",""time"":2004.8999999761581},{""stimulus"":""https://ziweizhang0304.github.io/Stats_learning_trig/img/Stim/FN_017_g.png"",""time"":2044.8999999761581},{""stimulus"":""blank"",""time"":2347},{""stimulus"":""https://ziweizhang0304.github.io/Stats_learning_trig/img/Stim/FN_018_g.png"",""time"":2383.6999999284744},{""stimulus"":""blank"",""time"":2687.1999999284744},{""stimulus"":""https://ziweizhang0304.github.io/Stats_learning_trig/img/Stim/FN_026_g.png"",""time"":2722.5},{""stimulus"":""blank"",""time"":3023.100000023842},{""stimulus"":""https://ziweizhang0304.github.io/Stats_learning_trig/img/Stim/FN_002_g.png"",""time"":3065.1999999284744},{""stimulus"":""blank"",""time"":3366.600000023842},{""stimulus"":""https://ziweizhang0304.github.io/Stats_learning_trig/img/Stim/FN_023_g.png"",""time"":3401.2999999523163},{""stimulus"":""blank"",""time"":3704.7999999523163},{""stimulus"":""https://ziweizhang0304.github.io/Stats_learning_trig/img/Stim/FN_011_g.png"",""time"":3744.5},{""stimulus"":""blank"",""time"":4045.899999976158},{""stimulus"":""https://ziweizhang0304.github.io/Stats_learning_trig/img/Stim/FN_015_g.png"",""time"":4081.2999999523163},{""stimulus"":""blank"",""time"":4382.699999928474}]","[{""key_press"":32,""rt"":2767.9000000953674,""stimulus"":""https://ziweizhang0304.github.io/Stats_learning_trig/img/Stim/FN_026_g.png""}]","384.200000166893","https://ziweizhang0304.github.io/Stats_learning_trig/img/Stim/FN_018_g.png","post_TD","17","2383.6999999284744","2767.9000000953674","slow","7","3","61007233396dd596eb7c55b0","","","","","",""
"","image-keyboard-response","47","199320","0.0-5.0-17.0-0.0","1320.1000000238419","","","https://ziweizhang0304.github.io/Stats_learning_trig/img/Stim/FN_022_g.png","13","","","","","","","","","","","","","","","","","",""
"","animation","48","203741","0.0-5.0-17.0-1.0","","","","","","[{""stimulus"":""https://ziweizhang0304.github.io/Stats_learning_trig/img/Stim/FN_002_g.png"",""time"":343.3000000715256},{""stimulus"":""blank"",""time"":647.3000000715256},{""stimulus"":""https://ziweizhang0304.github.io/Stats_learning_trig/img/Stim/FN_023_g.png"",""time"":681.1000000238419},{""stimulus"":""blank"",""time"":982.3999999761581},{""stimulus"":""https://ziweizhang0304.github.io/Stats_learning_trig/img/Stim/FN_015_g.png"",""time"":1020.5},{""stimulus"":""blank"",""time"":1320.7000000476837},{""stimulus"":""https://ziweizhang0304.github.io/Stats_learning_trig/img/Stim/FN_005_g.png"",""time"":1361},{""stimulus"":""blank"",""time"":1663.2000000476837},{""stimulus"":""https://ziweizhang0304.github.io/Stats_learning_trig/img/Stim/FN_011_g.png"",""time"":1704.3999999761581},{""stimulus"":""blank"",""time"":2005.7000000476837},{""stimulus"":""https://ziweizhang0304.github.io/Stats_learning_trig/img/Stim/FN_024_g.png"",""time"":2041.6000000238419},{""stimulus"":""blank"",""time"":2345.899999976158},{""stimulus"":""https://ziweizhang0304.github.io/Stats_learning_trig/img/Stim/FN_016_g.png"",""time"":2381.100000023842},{""stimulus"":""blank"",""time"":2682},{""stimulus"":""https://ziweizhang0304.github.io/Stats_learning_trig/img/Stim/FN_022_g.png"",""time"":2720.899999976158},{""stimulus"":""blank"",""time"":3023.8000000715256},{""stimulus"":""https://ziweizhang0304.github.io/Stats_learning_trig/img/Stim/FN_008_g.png"",""time"":3062.600000023842},{""stimulus"":""blank"",""time"":3367.100000023842},{""stimulus"":""https://ziweizhang0304.github.io/Stats_learning_trig/img/Stim/FN_026_g.png"",""time"":3404.5},{""stimulus"":""blank"",""time"":3706.600000023842},{""stimulus"":""https://ziweizhang0304.github.io/Stats_learning_trig/img/Stim/FN_019_g.png"",""time"":3741.8000000715256},{""stimulus"":""blank"",""time"":4043.100000023842},{""stimulus"":""https://ziweizhang0304.github.io/Stats_learning_trig/img/Stim/FN_013_g.png"",""time"":4081.5},{""stimulus"":""blank"",""time"":4382.899999976158}]","[{""key_press"":32,""rt"":3137.600000023842,""stimulus"":""https://ziweizhang0304.github.io/Stats_learning_trig/img/Stim/FN_008_g.png""}]","416.7000000476837","https://ziweizhang0304.github.io/Stats_learning_trig/img/Stim/FN_022_g.png","post_TD","18","2720.899999976158","3137.600000023842","fast","8","2","61007233396dd596eb7c55b0","","","","","",""
"","image-keyboard-response","49","204614","0.0-5.0-18.0-0.0","870.7999999523163","","","https://ziweizhang0304.github.io/Stats_learning_trig/img/Stim/FN_008_g.png","13","","","","","","","","","","","","","","","","","",""
"","animation","50","209037","0.0-5.0-18.0-1.0","","","","","","[{""stimulus"":""https://ziweizhang0304.github.io/Stats_learning_trig/img/Stim/FN_023_g.png"",""time"":341.2999999523163},{""stimulus"":""blank"",""time"":642},{""stimulus"":""https://ziweizhang0304.github.io/Stats_learning_trig/img/Stim/FN_011_g.png"",""time"":683.1000000238419},{""stimulus"":""blank"",""time"":984.3999999761581},{""stimulus"":""https://ziweizhang0304.github.io/Stats_learning_trig/img/Stim/FN_024_g.png"",""time"":1023.2999999523163},{""stimulus"":""blank"",""time"":1327},{""stimulus"":""https://ziweizhang0304.github.io/Stats_learning_trig/img/Stim/FN_013_g.png"",""time"":1365.5},{""stimulus"":""blank"",""time"":1669.5},{""stimulus"":""https://ziweizhang0304.github.io/Stats_learning_trig/img/Stim/FN_015_g.png"",""time"":1700.8999999761581},{""stimulus"":""blank"",""time"":2005.7999999523163},{""stimulus"":""https://ziweizhang0304.github.io/Stats_learning_trig/img/Stim/FN_016_g.png"",""time"":2041.5},{""stimulus"":""blank"",""time"":2342.899999976158},{""stimulus"":""https://ziweizhang0304.github.io/Stats_learning_trig/img/Stim/FN_022_g.png"",""time"":2384},{""stimulus"":""blank"",""time"":2685.2999999523163},{""stimulus"":""https://ziweizhang0304.github.io/Stats_learning_trig/img/Stim/FN_008_g.png"",""time"":2723.7999999523163},{""stimulus"":""blank"",""time"":3028},{""stimulus"":""https://ziweizhang0304.github.io/Stats_learning_trig/img/Stim/FN_026_g.png"",""time"":3063.2000000476837},{""stimulus"":""blank"",""time"":3367.100000023842},{""stimulus"":""https://ziweizhang0304.github.io/Stats_learning_trig/img/Stim/FN_002_g.png"",""time"":3402.399999976158},{""stimulus"":""blank"",""time"":3706.600000023842},{""stimulus"":""https://ziweizhang0304.github.io/Stats_learning_trig/img/Stim/FN_019_g.png"",""time"":3742.399999976158},{""stimulus"":""blank"",""time"":4043.399999976158},{""stimulus"":""https://ziweizhang0304.github.io/Stats_learning_trig/img/Stim/FN_005_g.png"",""time"":4084.2999999523163},{""stimulus"":""blank"",""time"":4384.899999976158}]","[{""key_press"":32,""rt"":3093.399999976158,""stimulus"":""https://ziweizhang0304.github.io/Stats_learning_trig/img/Stim/FN_026_g.png""}]","369.60000002384186","https://ziweizhang0304.github.io/Stats_learning_trig/img/Stim/FN_008_g.png","post_TD","19","2723.7999999523163","3093.399999976158","fast","8","3","61007233396dd596eb7c55b0","","","","","",""
"","image-keyboard-response","51","210022","0.0-5.0-19.0-0.0","982.8000000715256","","","https://ziweizhang0304.github.io/Stats_learning_trig/img/Stim/FN_010_g.png","13","","","","","","","","","","","","","","","","","",""
"","animation","52","214442","0.0-5.0-19.0-1.0","","","","","","[{""stimulus"":""https://ziweizhang0304.github.io/Stats_learning_trig/img/Stim/FN_026_g.png"",""time"":342.6999999284744},{""stimulus"":""blank"",""time"":644},{""stimulus"":""https://ziweizhang0304.github.io/Stats_learning_trig/img/Stim/FN_005_g.png"",""time"":682.2999999523163},{""stimulus"":""blank"",""time"":984.5},{""stimulus"":""https://ziweizhang0304.github.io/Stats_learning_trig/img/Stim/FN_002_g.png"",""time"":1021.1999999284744},{""stimulus"":""blank"",""time"":1322.6999999284744},{""stimulus"":""https://ziweizhang0304.github.io/Stats_learning_trig/img/Stim/FN_013_g.png"",""time"":1364.7999999523163},{""stimulus"":""blank"",""time"":1665.1999999284744},{""stimulus"":""https://ziweizhang0304.github.io/Stats_learning_trig/img/Stim/FN_024_g.png"",""time"":1702.2999999523163},{""stimulus"":""blank"",""time"":2005.1999999284744},{""stimulus"":""https://ziweizhang0304.github.io/Stats_learning_trig/img/Stim/FN_011_g.png"",""time"":2043.6999999284744},{""stimulus"":""blank"",""time"":2348.2999999523163},{""stimulus"":""https://ziweizhang0304.github.io/Stats_learning_trig/img/Stim/FN_010_g.png"",""time"":2382.399999976158},{""stimulus"":""blank"",""time"":2682.7999999523163},{""stimulus"":""https://ziweizhang0304.github.io/Stats_learning_trig/img/Stim/FN_017_g.png"",""time"":2720.600000023842},{""stimulus"":""blank"",""time"":3021.600000023842},{""stimulus"":""https://ziweizhang0304.github.io/Stats_learning_trig/img/Stim/FN_018_g.png"",""time"":3065.5},{""stimulus"":""blank"",""time"":3366.7999999523163},{""stimulus"":""https://ziweizhang0304.github.io/Stats_learning_trig/img/Stim/FN_019_g.png"",""time"":3401.6999999284744},{""stimulus"":""blank"",""time"":3703.5},{""stimulus"":""https://ziweizhang0304.github.io/Stats_learning_trig/img/Stim/FN_023_g.png"",""time"":3744.5},{""stimulus"":""blank"",""time"":4048.5},{""stimulus"":""https://ziweizhang0304.github.io/Stats_learning_trig/img/Stim/FN_015_g.png"",""time"":4081.1999999284744},{""stimulus"":""blank"",""time"":4382.100000023842}]","[{""key_press"":32,""rt"":2792.7999999523163,""stimulus"":""https://ziweizhang0304.github.io/Stats_learning_trig/img/Stim/FN_017_g.png""}]","410.39999997615814","https://ziweizhang0304.github.io/Stats_learning_trig/img/Stim/FN_010_g.png","post_TD","20","2382.399999976158","2792.7999999523163","slow","7","1","61007233396dd596eb7c55b0","","","","","",""
"","image-keyboard-response","53","215344","0.0-5.0-20.0-0.0","900.3000000715256","","","https://ziweizhang0304.github.io/Stats_learning_trig/img/Stim/FN_018_g.png","13","","","","","","","","","","","","","","","","","",""
"","animation","54","219768","0.0-5.0-20.0-1.0","","","","","","[{""stimulus"":""https://ziweizhang0304.github.io/Stats_learning_trig/img/Stim/FN_023_g.png"",""time"":342.7000000476837},{""stimulus"":""blank"",""time"":644.8000000715256},{""stimulus"":""https://ziweizhang0304.github.io/Stats_learning_trig/img/Stim/FN_011_g.png"",""time"":684.6000000238419},{""stimulus"":""blank"",""time"":987.1000000238419},{""stimulus"":""https://ziweizhang0304.github.io/Stats_learning_trig/img/Stim/FN_026_g.png"",""time"":1022.4000000953674},{""stimulus"":""blank"",""time"":1325.4000000953674},{""stimulus"":""https://ziweizhang0304.github.io/Stats_learning_trig/img/Stim/FN_010_g.png"",""time"":1360.7000000476837},{""stimulus"":""blank"",""time"":1662.6000000238419},{""stimulus"":""https://ziweizhang0304.github.io/Stats_learning_trig/img/Stim/FN_017_g.png"",""time"":1701.7000000476837},{""stimulus"":""blank"",""time"":2002.3000000715256},{""stimulus"":""https://ziweizhang0304.github.io/Stats_learning_trig/img/Stim/FN_018_g.png"",""time"":2044.1000000238419},{""stimulus"":""blank"",""time"":2345.600000023842},{""stimulus"":""https://ziweizhang0304.github.io/Stats_learning_trig/img/Stim/FN_002_g.png"",""time"":2382.8000000715256},{""stimulus"":""blank"",""time"":2688},{""stimulus"":""https://ziweizhang0304.github.io/Stats_learning_trig/img/Stim/FN_019_g.png"",""time"":2723.3000000715256},{""stimulus"":""blank"",""time"":3024.7000000476837},{""stimulus"":""https://ziweizhang0304.github.io/Stats_learning_trig/img/Stim/FN_005_g.png"",""time"":3063},{""stimulus"":""blank"",""time"":3364.4000000953674},{""stimulus"":""https://ziweizhang0304.github.io/Stats_learning_trig/img/Stim/FN_024_g.png"",""time"":3400.4000000953674},{""stimulus"":""blank"",""time"":3700.7000000476837},{""stimulus"":""https://ziweizhang0304.github.io/Stats_learning_trig/img/Stim/FN_015_g.png"",""time"":3745},{""stimulus"":""blank"",""time"":4048.3000000715256},{""stimulus"":""https://ziweizhang0304.github.io/Stats_learning_trig/img/Stim/FN_013_g.png"",""time"":4081.7000000476837},{""stimulus"":""blank"",""time"":4385.700000047684}]","[{""key_press"":32,""rt"":2417.100000023842,""stimulus"":""https://ziweizhang0304.github.io/Stats_learning_trig/img/Stim/FN_002_g.png""}]","373","https://ziweizhang0304.github.io/Stats_learning_trig/img/Stim/FN_018_g.png","post_TD","21","2044.1000000238419","2417.100000023842","slow","6","3","61007233396dd596eb7c55b0","","","","","",""
"","image-keyboard-response","55","220755","0.0-5.0-21.0-0.0","985.0999999046326","","","https://ziweizhang0304.github.io/Stats_learning_trig/img/Stim/FN_016_g.png","13","","","","","","","","","","","","","","","","","",""
"","animation","56","225179","0.0-5.0-21.0-1.0","","","","","","[{""stimulus"":""https://ziweizhang0304.github.io/Stats_learning_trig/img/Stim/FN_023_g.png"",""time"":342.5},{""stimulus"":""blank"",""time"":644.3999999761581},{""stimulus"":""https://ziweizhang0304.github.io/Stats_learning_trig/img/Stim/FN_019_g.png"",""time"":685.3999999761581},{""stimulus"":""blank"",""time"":986.8000000715256},{""stimulus"":""https://ziweizhang0304.github.io/Stats_learning_trig/img/Stim/FN_005_g.png"",""time"":1021},{""stimulus"":""blank"",""time"":1324.8999999761581},{""stimulus"":""https://ziweizhang0304.github.io/Stats_learning_trig/img/Stim/FN_002_g.png"",""time"":1364.5},{""stimulus"":""blank"",""time"":1666},{""stimulus"":""https://ziweizhang0304.github.io/Stats_learning_trig/img/Stim/FN_016_g.png"",""time"":1701.2000000476837},{""stimulus"":""blank"",""time"":2002.7000000476837},{""stimulus"":""https://ziweizhang0304.github.io/Stats_learning_trig/img/Stim/FN_022_g.png"",""time"":2043.7000000476837},{""stimulus"":""blank"",""time"":2344.7000000476837},{""stimulus"":""https://ziweizhang0304.github.io/Stats_learning_trig/img/Stim/FN_008_g.png"",""time"":2383.7000000476837},{""stimulus"":""blank"",""time"":2685.7000000476837},{""stimulus"":""https://ziweizhang0304.github.io/Stats_learning_trig/img/Stim/FN_026_g.png"",""time"":2722.8000000715256},{""stimulus"":""blank"",""time"":3024.2000000476837},{""stimulus"":""https://ziweizhang0304.github.io/Stats_learning_trig/img/Stim/FN_011_g.png"",""time"":3065},{""stimulus"":""blank"",""time"":3366.8000000715256},{""stimulus"":""https://ziweizhang0304.github.io/Stats_learning_trig/img/Stim/FN_024_g.png"",""time"":3402.2000000476837},{""stimulus"":""blank"",""time"":3703.100000023842},{""stimulus"":""https://ziweizhang0304.github.io/Stats_learning_trig/img/Stim/FN_015_g.png"",""time"":3742.3000000715256},{""stimulus"":""blank"",""time"":4042.7000000476837},{""stimulus"":""https://ziweizhang0304.github.io/Stats_learning_trig/img/Stim/FN_013_g.png"",""time"":4082.2000000476837},{""stimulus"":""blank"",""time"":4384.5}]","[{""key_press"":32,""rt"":2171.100000023842,""stimulus"":""https://ziweizhang0304.github.io/Stats_learning_trig/img/Stim/FN_022_g.png""}]","469.89999997615814","https://ziweizhang0304.github.io/Stats_learning_trig/img/Stim/FN_016_g.png","post_TD","22","1701.2000000476837","2171.100000023842","fast","5","1","61007233396dd596eb7c55b0","","","","","",""
"","image-keyboard-response","57","226359","0.0-5.0-22.0-0.0","1178.3999999761581","","","https://ziweizhang0304.github.io/Stats_learning_trig/img/Stim/FN_022_g.png","13","","","","","","","","","","","","","","","","","",""
"","animation","58","230780","0.0-5.0-22.0-1.0","","","","","","[{""stimulus"":""https://ziweizhang0304.github.io/Stats_learning_trig/img/Stim/FN_023_g.png"",""time"":340.89999997615814},{""stimulus"":""blank"",""time"":641.8000000715256},{""stimulus"":""https://ziweizhang0304.github.io/Stats_learning_trig/img/Stim/FN_019_g.png"",""time"":683.3000000715256},{""stimulus"":""blank"",""time"":984.7000000476837},{""stimulus"":""https://ziweizhang0304.github.io/Stats_learning_trig/img/Stim/FN_005_g.png"",""time"":1025.3000000715256},{""stimulus"":""blank"",""time"":1327.1000000238419},{""stimulus"":""https://ziweizhang0304.github.io/Stats_learning_trig/img/Stim/FN_002_g.png"",""time"":1361.8000000715256},{""stimulus"":""blank"",""time"":1663.1000000238419},{""stimulus"":""https://ziweizhang0304.github.io/Stats_learning_trig/img/Stim/FN_016_g.png"",""time"":1704.2000000476837},{""stimulus"":""blank"",""time"":2008.2000000476837},{""stimulus"":""https://ziweizhang0304.github.io/Stats_learning_trig/img/Stim/FN_022_g.png"",""time"":2041.5},{""stimulus"":""blank"",""time"":2343.100000023842},{""stimulus"":""https://ziweizhang0304.github.io/Stats_learning_trig/img/Stim/FN_008_g.png"",""time"":2384.100000023842},{""stimulus"":""blank"",""time"":2685.3000000715256},{""stimulus"":""https://ziweizhang0304.github.io/Stats_learning_trig/img/Stim/FN_026_g.png"",""time"":2720.7000000476837},{""stimulus"":""blank"",""time"":3022.2000000476837},{""stimulus"":""https://ziweizhang0304.github.io/Stats_learning_trig/img/Stim/FN_011_g.png"",""time"":3063.3000000715256},{""stimulus"":""blank"",""time"":3364.7000000476837},{""stimulus"":""https://ziweizhang0304.github.io/Stats_learning_trig/img/Stim/FN_024_g.png"",""time"":3403.5},{""stimulus"":""blank"",""time"":3707.2000000476837},{""stimulus"":""https://ziweizhang0304.github.io/Stats_learning_trig/img/Stim/FN_015_g.png"",""time"":3741.8000000715256},{""stimulus"":""blank"",""time"":4042.5},{""stimulus"":""https://ziweizhang0304.github.io/Stats_learning_trig/img/Stim/FN_013_g.png"",""time"":4084.899999976158},{""stimulus"":""blank"",""time"":4386.300000071526}]","[{""key_press"":32,""rt"":2416.8000000715256,""stimulus"":""https://ziweizhang0304.github.io/Stats_learning_trig/img/Stim/FN_008_g.png""}]","375.3000000715256","https://ziweizhang0304.github.io/Stats_learning_trig/img/Stim/FN_022_g.png","post_TD","23","2041.5","2416.8000000715256","fast","6","2","61007233396dd596eb7c55b0","","","","","",""
"","image-keyboard-response","59","232764","0.0-5.0-23.0-0.0","1981.7999999523163","","","https://ziweizhang0304.github.io/Stats_learning_trig/img/Stim/FN_010_g.png","13","","","","","","","","","","","","","","","","","",""
"","animation","60","237189","0.0-5.0-23.0-1.0","","","","","","[{""stimulus"":""https://ziweizhang0304.github.io/Stats_learning_trig/img/Stim/FN_019_g.png"",""time"":341.5},{""stimulus"":""blank"",""time"":643.6000000238419},{""stimulus"":""https://ziweizhang0304.github.io/Stats_learning_trig/img/Stim/FN_026_g.png"",""time"":680.6999999284744},{""stimulus"":""blank"",""time"":981.5},{""stimulus"":""https://ziweizhang0304.github.io/Stats_learning_trig/img/Stim/FN_015_g.png"",""time"":1023.8999999761581},{""stimulus"":""blank"",""time"":1325.3999999761581},{""stimulus"":""https://ziweizhang0304.github.io/Stats_learning_trig/img/Stim/FN_011_g.png"",""time"":1360.6999999284744},{""stimulus"":""blank"",""time"":1665.1000000238419},{""stimulus"":""https://ziweizhang0304.github.io/Stats_learning_trig/img/Stim/FN_024_g.png"",""time"":1703.1000000238419},{""stimulus"":""blank"",""time"":2005.3999999761581},{""stimulus"":""https://ziweizhang0304.github.io/Stats_learning_trig/img/Stim/FN_010_g.png"",""time"":2041.3999999761581},{""stimulus"":""blank"",""time"":2343},{""stimulus"":""https://ziweizhang0304.github.io/Stats_learning_trig/img/Stim/FN_017_g.png"",""time"":2381.899999976158},{""stimulus"":""blank"",""time"":2682.2999999523163},{""stimulus"":""https://ziweizhang0304.github.io/Stats_learning_trig/img/Stim/FN_018_g.png"",""time"":2724.7999999523163},{""stimulus"":""blank"",""time"":3025.399999976158},{""stimulus"":""https://ziweizhang0304.github.io/Stats_learning_trig/img/Stim/FN_002_g.png"",""time"":3063.1999999284744},{""stimulus"":""blank"",""time"":3365.5},{""stimulus"":""https://ziweizhang0304.github.io/Stats_learning_trig/img/Stim/FN_005_g.png"",""time"":3404},{""stimulus"":""blank"",""time"":3705.7999999523163},{""stimulus"":""https://ziweizhang0304.github.io/Stats_learning_trig/img/Stim/FN_023_g.png"",""time"":3742.399999976158},{""stimulus"":""blank"",""time"":4045.2999999523163},{""stimulus"":""https://ziweizhang0304.github.io/Stats_learning_trig/img/Stim/FN_013_g.png"",""time"":4081.2999999523163},{""stimulus"":""blank"",""time"":4381.399999976158}]","[{""key_press"":32,""rt"":2439.1999999284744,""stimulus"":""https://ziweizhang0304.github.io/Stats_learning_trig/img/Stim/FN_017_g.png""}]","397.7999999523163","https://ziweizhang0304.github.io/Stats_learning_trig/img/Stim/FN_010_g.png","post_TD","24","2041.3999999761581","2439.1999999284744","slow","6","1","61007233396dd596eb7c55b0","0a34c","","","","",""
"","survey-text","61","267324","0.0-6.0","30125","","","","","","","","","","","","","","","","","","{""Q0"":""i tried to keep the image in my head and paid attention to the differences between similar looking shapes""}","","","",""
"","survey-text","62","295001","0.0-7.0","27674.399999976158","","","","","","","","","","","","","","","","","","{""[object Object]"":""there were some that looked like pans with handles, and i got those confused a couple times i think""}","","","",""
"","instructions","63","308189","0.0-8.0","13187.100000023842","","[{""page_index"":0,""viewing_time"":13186.700000047684}]","","","","","","","","","","","","","","","","","","","",""
"","free-sort","64","329593","0.0-9.0","21403.300000071526","","","","","","","","","post_drag","","","","fast","","","","","","[{""src"":""https://ziweizhang0304.github.io/Stats_learning_trig/img/Stim/FN_008_g.png"",""x"":475,""y"":0},{""src"":""https://ziweizhang0304.github.io/Stats_learning_trig/img/Stim/FN_016_g.png"",""x"":-225,""y"":50},{""src"":""https://ziweizhang0304.github.io/Stats_learning_trig/img/Stim/FN_022_g.png"",""x"":475,""y"":50}]","[{""src"":""https://ziweizhang0304.github.io/Stats_learning_trig/img/Stim/FN_008_g.png"",""x"":26,""y"":18},{""src"":""https://ziweizhang0304.github.io/Stats_learning_trig/img/Stim/FN_022_g.png"",""x"":91,""y"":35},{""src"":""https://ziweizhang0304.github.io/Stats_learning_trig/img/Stim/FN_016_g.png"",""x"":203,""y"":14}]","[{""src"":""https://ziweizhang0304.github.io/Stats_learning_trig/img/Stim/FN_008_g.png"",""x"":26,""y"":18},{""src"":""https://ziweizhang0304.github.io/Stats_learning_trig/img/Stim/FN_016_g.png"",""x"":203,""y"":14},{""src"":""https://ziweizhang0304.github.io/Stats_learning_trig/img/Stim/FN_022_g.png"",""x"":91,""y"":35}]",""
"","free-sort","65","343109","0.0-10.0","13514.399999976158","","","","","","","","","post_drag","","","","slow","","","","","","[{""src"":""https://ziweizhang0304.github.io/Stats_learning_trig/img/Stim/FN_017_g.png"",""x"":475,""y"":0},{""src"":""https://ziweizhang0304.github.io/Stats_learning_trig/img/Stim/FN_010_g.png"",""x"":-225,""y"":50},{""src"":""https://ziweizhang0304.github.io/Stats_learning_trig/img/Stim/FN_018_g.png"",""x"":475,""y"":50}]","[{""src"":""https://ziweizhang0304.github.io/Stats_learning_trig/img/Stim/FN_017_g.png"",""x"":32,""y"":15},{""src"":""https://ziweizhang0304.github.io/Stats_learning_trig/img/Stim/FN_010_g.png"",""x"":113,""y"":25},{""src"":""https://ziweizhang0304.github.io/Stats_learning_trig/img/Stim/FN_018_g.png"",""x"":214,""y"":24}]","[{""src"":""https://ziweizhang0304.github.io/Stats_learning_trig/img/Stim/FN_017_g.png"",""x"":32,""y"":15},{""src"":""https://ziweizhang0304.github.io/Stats_learning_trig/img/Stim/FN_010_g.png"",""x"":113,""y"":25},{""src"":""https://ziweizhang0304.github.io/Stats_learning_trig/img/Stim/FN_018_g.png"",""x"":214,""y"":24}]",""
"","survey-multi-choice","66","355937","0.0-11.0","12824.899999976158","","","","","","","","","","","","","","","","61007233396dd596eb7c55b0","","{""awareness"":""No"",""attention_check"":""Press SPACEBAR to a target""}","","","","[0,1]"
