"success","trial_type","trial_index","time_elapsed","internal_node_id","rt","url","view_history","stimulus","key_press","animation_sequence","response","TD_rt","TD_target","test_part","TD_trial_number","onset","offset","attention_state","TD_target_position","TD_within_triplet_counter","participant","yoke_participant","responses","init_locations","moves","final_locations","question_order"
"true","fullscreen","0","2120","0.0-0.0","","","","","","","","","","","","","","","","","","","","","","",""
"","external-html","1","6313","0.0-1.0","4110.9000000059605","https://ziweizhang0304.github.io/Stats_learning_trig/content/consent.html","","","","","","","","","","","","","","","","","","","","",""
"","instructions","2","24607","0.0-2.0","18293.70000000298","","[{""page_index"":0,""viewing_time"":1493.7000000029802},{""page_index"":1,""viewing_time"":7556.79999999702},{""page_index"":2,""viewing_time"":7944.89999999851},{""page_index"":3,""viewing_time"":1298}]","","","","","","","","","","","","","","","","","","","",""
"","image-keyboard-response","3","29054","0.0-3.0-0.0-0.0","4445.79999999702","","","https://ziweizhang0304.github.io/Stats_learning_trig/img/Stim/FN_012_g.png","13","","","","","","","","","","","","","","","","","",""
"","animation","4","33479","0.0-3.0-0.0-1.0","","","","","","[{""stimulus"":""https://ziweizhang0304.github.io/Stats_learning_trig/img/Stim/FN_017_g.png"",""time"":361.79999999701977},{""stimulus"":""blank"",""time"":668.5999999940395},{""stimulus"":""https://ziweizhang0304.github.io/Stats_learning_trig/img/Stim/FN_009_g.png"",""time"":681.5999999940395},{""stimulus"":""blank"",""time"":982.8999999985099},{""stimulus"":""https://ziweizhang0304.github.io/Stats_learning_trig/img/Stim/FN_010_g.png"",""time"":1029.5},{""stimulus"":""blank"",""time"":1342.3999999985099},{""stimulus"":""https://ziweizhang0304.github.io/Stats_learning_trig/img/Stim/FN_012_g.png"",""time"":1374.5},{""stimulus"":""blank"",""time"":1690.3999999985099},{""stimulus"":""https://ziweizhang0304.github.io/Stats_learning_trig/img/Stim/FN_006_g.png"",""time"":1706.5},{""stimulus"":""blank"",""time"":2007.7999999970198},{""stimulus"":""https://ziweizhang0304.github.io/Stats_learning_trig/img/Stim/FN_020_g.png"",""time"":2041.2999999970198},{""stimulus"":""blank"",""time"":2352.5999999940395},{""stimulus"":""https://ziweizhang0304.github.io/Stats_learning_trig/img/Stim/FN_008_g.png"",""time"":2384.7999999970198},{""stimulus"":""blank"",""time"":2697.0999999940395},{""stimulus"":""https://ziweizhang0304.github.io/Stats_learning_trig/img/Stim/FN_016_g.png"",""time"":2728.7999999970198},{""stimulus"":""blank"",""time"":3042.5},{""stimulus"":""https://ziweizhang0304.github.io/Stats_learning_trig/img/Stim/FN_025_g.png"",""time"":3061.5},{""stimulus"":""blank"",""time"":3373.6999999955297},{""stimulus"":""https://ziweizhang0304.github.io/Stats_learning_trig/img/Stim/FN_007_g.png"",""time"":3401},{""stimulus"":""blank"",""time"":3715.6999999955297},{""stimulus"":""https://ziweizhang0304.github.io/Stats_learning_trig/img/Stim/FN_005_g.png"",""time"":3741.2999999970198},{""stimulus"":""blank"",""time"":4044.2999999970198},{""stimulus"":""https://ziweizhang0304.github.io/Stats_learning_trig/img/Stim/FN_002_g.png"",""time"":4081.6999999955297},{""stimulus"":""blank"",""time"":4392.29999999702}]","[{""key_press"":32,""rt"":1692.2999999970198,""stimulus"":""blank""}]","317.79999999701977","https://ziweizhang0304.github.io/Stats_learning_trig/img/Stim/FN_012_g.png","post_prac","","","","","","","","","","","","",""
"","html-keyboard-response","5","38751","0.0-3.0-0.0-2.0","5270.79999999702","","","<p>Your reaction time for this trial was 317.8 ms.</p><p>Remember that you should only press the SPACEBAR when you see the shape presented at the beginning of the trial. </b> </p><p>Press enter to move on.</p>","13","","","","","","","","","","","","","","","","","",""
"","image-keyboard-response","6","43077","0.0-3.0-1.0-0.0","4325.39999999851","","","https://ziweizhang0304.github.io/Stats_learning_trig/img/Stim/FN_013_g.png","13","","","","","","","","","","","","","","","","","",""
"","animation","7","47499","0.0-3.0-1.0-1.0","","","","","","[{""stimulus"":""https://ziweizhang0304.github.io/Stats_learning_trig/img/Stim/FN_009_g.png"",""time"":341.79999999701977},{""stimulus"":""blank"",""time"":658},{""stimulus"":""https://ziweizhang0304.github.io/Stats_learning_trig/img/Stim/FN_025_g.png"",""time"":690.1999999955297},{""stimulus"":""blank"",""time"":1001.1999999955297},{""stimulus"":""https://ziweizhang0304.github.io/Stats_learning_trig/img/Stim/FN_007_g.png"",""time"":1032.3999999985099},{""stimulus"":""blank"",""time"":1343.6000000014901},{""stimulus"":""https://ziweizhang0304.github.io/Stats_learning_trig/img/Stim/FN_002_g.png"",""time"":1361},{""stimulus"":""blank"",""time"":1673.6000000014901},{""stimulus"":""https://ziweizhang0304.github.io/Stats_learning_trig/img/Stim/FN_011_g.png"",""time"":1700.8999999985099},{""stimulus"":""blank"",""time"":2015.5},{""stimulus"":""https://ziweizhang0304.github.io/Stats_learning_trig/img/Stim/FN_018_g.png"",""time"":2047.1999999955297},{""stimulus"":""blank"",""time"":2359.7999999970198},{""stimulus"":""https://ziweizhang0304.github.io/Stats_learning_trig/img/Stim/FN_013_g.png"",""time"":2391.10000000149},{""stimulus"":""blank"",""time"":2700.2999999970198},{""stimulus"":""https://ziweizhang0304.github.io/Stats_learning_trig/img/Stim/FN_020_g.png"",""time"":2720.5},{""stimulus"":""blank"",""time"":3031},{""stimulus"":""https://ziweizhang0304.github.io/Stats_learning_trig/img/Stim/FN_016_g.png"",""time"":3063},{""stimulus"":""blank"",""time"":3379.10000000149},{""stimulus"":""https://ziweizhang0304.github.io/Stats_learning_trig/img/Stim/FN_010_g.png"",""time"":3410.1999999955297},{""stimulus"":""blank"",""time"":3725.60000000149},{""stimulus"":""https://ziweizhang0304.github.io/Stats_learning_trig/img/Stim/FN_006_g.png"",""time"":3741.6999999955297},{""stimulus"":""blank"",""time"":4055.7999999970198},{""stimulus"":""https://ziweizhang0304.github.io/Stats_learning_trig/img/Stim/FN_017_g.png"",""time"":4087.89999999851},{""stimulus"":""blank"",""time"":4401.39999999851}]","[{""key_press"":32,""rt"":2341.10000000149,""stimulus"":""https://ziweizhang0304.github.io/Stats_learning_trig/img/Stim/FN_018_g.png""},{""key_press"":32,""rt"":2942.1999999955297,""stimulus"":""https://ziweizhang0304.github.io/Stats_learning_trig/img/Stim/FN_020_g.png""}]","551.0999999940395","https://ziweizhang0304.github.io/Stats_learning_trig/img/Stim/FN_013_g.png","post_prac","","","","","","","","","","","","",""
"","html-keyboard-response","8","49832","0.0-3.0-1.0-2.0","2332.1999999955297","","","<p>Your reaction time for this trial was 551.1 ms.</p><p>Remember that you should only press the SPACEBAR when you see the shape presented at the beginning of the trial. </b> </p><p>Press enter to move on.</p>","13","","","","","","","","","","","","","","","","","",""
"","image-keyboard-response","9","52851","0.0-3.0-2.0-0.0","3018.5","","","https://ziweizhang0304.github.io/Stats_learning_trig/img/Stim/FN_013_g.png","13","","","","","","","","","","","","","","","","","",""
"","animation","10","57272","0.0-3.0-2.0-1.0","","","","","","[{""stimulus"":""https://ziweizhang0304.github.io/Stats_learning_trig/img/Stim/FN_006_g.png"",""time"":344.6000000014901},{""stimulus"":""blank"",""time"":645.2000000029802},{""stimulus"":""https://ziweizhang0304.github.io/Stats_learning_trig/img/Stim/FN_020_g.png"",""time"":692.6000000014901},{""stimulus"":""blank"",""time"":1005.8999999985099},{""stimulus"":""https://ziweizhang0304.github.io/Stats_learning_trig/img/Stim/FN_007_g.png"",""time"":1021.3000000044703},{""stimulus"":""blank"",""time"":1335.2000000029802},{""stimulus"":""https://ziweizhang0304.github.io/Stats_learning_trig/img/Stim/FN_010_g.png"",""time"":1365.3999999985099},{""stimulus"":""blank"",""time"":1675.3000000044703},{""stimulus"":""https://ziweizhang0304.github.io/Stats_learning_trig/img/Stim/FN_017_g.png"",""time"":1706.7000000029802},{""stimulus"":""blank"",""time"":2017.5},{""stimulus"":""https://ziweizhang0304.github.io/Stats_learning_trig/img/Stim/FN_009_g.png"",""time"":2049.5},{""stimulus"":""blank"",""time"":2351.39999999851},{""stimulus"":""https://ziweizhang0304.github.io/Stats_learning_trig/img/Stim/FN_011_g.png"",""time"":2381.5},{""stimulus"":""blank"",""time"":2697.2000000029802},{""stimulus"":""https://ziweizhang0304.github.io/Stats_learning_trig/img/Stim/FN_018_g.png"",""time"":2720.8000000044703},{""stimulus"":""blank"",""time"":3025.60000000149},{""stimulus"":""https://ziweizhang0304.github.io/Stats_learning_trig/img/Stim/FN_013_g.png"",""time"":3072.8000000044703},{""stimulus"":""blank"",""time"":3384.8000000044703},{""stimulus"":""https://ziweizhang0304.github.io/Stats_learning_trig/img/Stim/FN_016_g.png"",""time"":3401},{""stimulus"":""blank"",""time"":3702.10000000149},{""stimulus"":""https://ziweizhang0304.github.io/Stats_learning_trig/img/Stim/FN_002_g.png"",""time"":3740.39999999851},{""stimulus"":""blank"",""time"":4048.39999999851},{""stimulus"":""https://ziweizhang0304.github.io/Stats_learning_trig/img/Stim/FN_025_g.png"",""time"":4096},{""stimulus"":""blank"",""time"":4410.80000000447}]","[{""key_press"":32,""rt"":3039.39999999851,""stimulus"":""blank""},{""key_press"":32,""rt"":3470.2999999970198,""stimulus"":""https://ziweizhang0304.github.io/Stats_learning_trig/img/Stim/FN_016_g.png""}]","397.4999999925494","https://ziweizhang0304.github.io/Stats_learning_trig/img/Stim/FN_013_g.png","post_prac","","","","","","","","","","","","",""
"","html-keyboard-response","11","58252","0.0-3.0-2.0-2.0","979","","","<p>Your reaction time for this trial was 397.5 ms.</p><p>Remember that you should only press the SPACEBAR when you see the shape presented at the beginning of the trial. </b> </p><p>Press enter to move on.</p>","13","","","","","","","","","","","","","","","","","",""
"","instructions","12","59816","0.0-4.0","1563.5","","[{""page_index"":0,""viewing_time"":1563.3999999985099}]","","","","","","","","","","","","","","","","","","","",""
"","image-keyboard-response","13","63669","0.0-5.0-0.0-0.0","3852.60000000149","","","https://ziweizhang0304.github.io/Stats_learning_trig/img/Stim/FN_018_g.png","13","","","","","","","","","","","","","","","","","",""
"","animation","14","68090","0.0-5.0-0.0-1.0","","","","","","[{""stimulus"":""https://ziweizhang0304.github.io/Stats_learning_trig/img/Stim/FN_006_g.png"",""time"":344},{""stimulus"":""blank"",""time"":657.5},{""stimulus"":""https://ziweizhang0304.github.io/Stats_learning_trig/img/Stim/FN_020_g.png"",""time"":681.6000000014901},{""stimulus"":""blank"",""time"":989.4000000059605},{""stimulus"":""https://ziweizhang0304.github.io/Stats_learning_trig/img/Stim/FN_007_g.png"",""time"":1021.7000000029802},{""stimulus"":""blank"",""time"":1334.4000000059605},{""stimulus"":""https://ziweizhang0304.github.io/Stats_learning_trig/img/Stim/FN_010_g.png"",""time"":1361.6000000014901},{""stimulus"":""blank"",""time"":1667.2000000029802},{""stimulus"":""https://ziweizhang0304.github.io/Stats_learning_trig/img/Stim/FN_017_g.png"",""time"":1714.2000000029802},{""stimulus"":""blank"",""time"":2029.8000000044703},{""stimulus"":""https://ziweizhang0304.github.io/Stats_learning_trig/img/Stim/FN_009_g.png"",""time"":2042},{""stimulus"":""blank"",""time"":2346.60000000149},{""stimulus"":""https://ziweizhang0304.github.io/Stats_learning_trig/img/Stim/FN_011_g.png"",""time"":2394.7000000029802},{""stimulus"":""blank"",""time"":2706.3000000044703},{""stimulus"":""https://ziweizhang0304.github.io/Stats_learning_trig/img/Stim/FN_018_g.png"",""time"":2721.4000000059605},{""stimulus"":""blank"",""time"":3035.10000000149},{""stimulus"":""https://ziweizhang0304.github.io/Stats_learning_trig/img/Stim/FN_013_g.png"",""time"":3067.5},{""stimulus"":""blank"",""time"":3378.2000000029802},{""stimulus"":""https://ziweizhang0304.github.io/Stats_learning_trig/img/Stim/FN_016_g.png"",""time"":3408.60000000149},{""stimulus"":""blank"",""time"":3718.10000000149},{""stimulus"":""https://ziweizhang0304.github.io/Stats_learning_trig/img/Stim/FN_002_g.png"",""time"":3750.3000000044703},{""stimulus"":""blank"",""time"":4064.2000000029802},{""stimulus"":""https://ziweizhang0304.github.io/Stats_learning_trig/img/Stim/FN_025_g.png"",""time"":4081.3000000044703},{""stimulus"":""blank"",""time"":4394.5}]","[{""key_press"":32,""rt"":3055.60000000149,""stimulus"":""blank""}]","334.19999999552965","https://ziweizhang0304.github.io/Stats_learning_trig/img/Stim/FN_018_g.png","post_TD","1","2721.4000000059605","3055.60000000149","slow","8","2","5f0e9896f5e4e11e12c8f5ac","","","","","",""
"","image-keyboard-response","15","70358","0.0-5.0-1.0-0.0","2266.6999999955297","","","https://ziweizhang0304.github.io/Stats_learning_trig/img/Stim/FN_012_g.png","13","","","","","","","","","","","","","","","","","",""
"","animation","16","74779","0.0-5.0-1.0-1.0","","","","","","[{""stimulus"":""https://ziweizhang0304.github.io/Stats_learning_trig/img/Stim/FN_016_g.png"",""time"":353.59999999403954},{""stimulus"":""blank"",""time"":662.2999999970198},{""stimulus"":""https://ziweizhang0304.github.io/Stats_learning_trig/img/Stim/FN_006_g.png"",""time"":680.5},{""stimulus"":""blank"",""time"":994.5999999940395},{""stimulus"":""https://ziweizhang0304.github.io/Stats_learning_trig/img/Stim/FN_020_g.png"",""time"":1020.7999999970198},{""stimulus"":""blank"",""time"":1324.0999999940395},{""stimulus"":""https://ziweizhang0304.github.io/Stats_learning_trig/img/Stim/FN_008_g.png"",""time"":1372.3999999985099},{""stimulus"":""blank"",""time"":1688.2999999970198},{""stimulus"":""https://ziweizhang0304.github.io/Stats_learning_trig/img/Stim/FN_012_g.png"",""time"":1700.2999999970198},{""stimulus"":""blank"",""time"":2015.5},{""stimulus"":""https://ziweizhang0304.github.io/Stats_learning_trig/img/Stim/FN_005_g.png"",""time"":2047.7999999970198},{""stimulus"":""blank"",""time"":2360.1999999955297},{""stimulus"":""https://ziweizhang0304.github.io/Stats_learning_trig/img/Stim/FN_007_g.png"",""time"":2381.39999999851},{""stimulus"":""blank"",""time"":2691.6999999955297},{""stimulus"":""https://ziweizhang0304.github.io/Stats_learning_trig/img/Stim/FN_002_g.png"",""time"":2720.2999999970198},{""stimulus"":""blank"",""time"":3024},{""stimulus"":""https://ziweizhang0304.github.io/Stats_learning_trig/img/Stim/FN_010_g.png"",""time"":3070.5},{""stimulus"":""blank"",""time"":3385.5999999940395},{""stimulus"":""https://ziweizhang0304.github.io/Stats_learning_trig/img/Stim/FN_025_g.png"",""time"":3401.5},{""stimulus"":""blank"",""time"":3716.7999999970198},{""stimulus"":""https://ziweizhang0304.github.io/Stats_learning_trig/img/Stim/FN_009_g.png"",""time"":3741.7999999970198},{""stimulus"":""blank"",""time"":4049.1999999955297},{""stimulus"":""https://ziweizhang0304.github.io/Stats_learning_trig/img/Stim/FN_017_g.png"",""time"":4081.5999999940395},{""stimulus"":""blank"",""time"":4396.29999999702}]","[{""key_press"":32,""rt"":2039.5999999940395,""stimulus"":""blank""}]","339.29999999701977","https://ziweizhang0304.github.io/Stats_learning_trig/img/Stim/FN_012_g.png","post_TD","2","1700.2999999970198","2039.5999999940395","fast","5","2","5f0e9896f5e4e11e12c8f5ac","","","","","",""
"","image-keyboard-response","17","77050","0.0-5.0-2.0-0.0","2270.60000000149","","","https://ziweizhang0304.github.io/Stats_learning_trig/img/Stim/FN_011_g.png","13","","","","","","","","","","","","","","","","","",""
"","animation","18","81480","0.0-5.0-2.0-1.0","","","","","","[{""stimulus"":""https://ziweizhang0304.github.io/Stats_learning_trig/img/Stim/FN_025_g.png"",""time"":351},{""stimulus"":""blank"",""time"":666.8999999985099},{""stimulus"":""https://ziweizhang0304.github.io/Stats_learning_trig/img/Stim/FN_006_g.png"",""time"":682.3999999985099},{""stimulus"":""blank"",""time"":994.5},{""stimulus"":""https://ziweizhang0304.github.io/Stats_learning_trig/img/Stim/FN_007_g.png"",""time"":1026.6000000014901},{""stimulus"":""blank"",""time"":1340.5},{""stimulus"":""https://ziweizhang0304.github.io/Stats_learning_trig/img/Stim/FN_016_g.png"",""time"":1372.6000000014901},{""stimulus"":""blank"",""time"":1688.3000000044703},{""stimulus"":""https://ziweizhang0304.github.io/Stats_learning_trig/img/Stim/FN_002_g.png"",""time"":1704.3999999985099},{""stimulus"":""blank"",""time"":2018.8000000044703},{""stimulus"":""https://ziweizhang0304.github.io/Stats_learning_trig/img/Stim/FN_011_g.png"",""time"":2050.10000000149},{""stimulus"":""blank"",""time"":2364.5},{""stimulus"":""https://ziweizhang0304.github.io/Stats_learning_trig/img/Stim/FN_018_g.png"",""time"":2395},{""stimulus"":""blank"",""time"":2710.60000000149},{""stimulus"":""https://ziweizhang0304.github.io/Stats_learning_trig/img/Stim/FN_013_g.png"",""time"":2720.7000000029802},{""stimulus"":""blank"",""time"":3025.7000000029802},{""stimulus"":""https://ziweizhang0304.github.io/Stats_learning_trig/img/Stim/FN_020_g.png"",""time"":3073.2000000029802},{""stimulus"":""blank"",""time"":3389.3000000044703},{""stimulus"":""https://ziweizhang0304.github.io/Stats_learning_trig/img/Stim/FN_010_g.png"",""time"":3401.39999999851},{""stimulus"":""blank"",""time"":3706},{""stimulus"":""https://ziweizhang0304.github.io/Stats_learning_trig/img/Stim/FN_009_g.png"",""time"":3753.3000000044703},{""stimulus"":""blank"",""time"":4054.10000000149},{""stimulus"":""https://ziweizhang0304.github.io/Stats_learning_trig/img/Stim/FN_017_g.png"",""time"":4081.10000000149},{""stimulus"":""blank"",""time"":4383.30000000447}]","[{""key_press"":32,""rt"":2327.39999999851,""stimulus"":""https://ziweizhang0304.github.io/Stats_learning_trig/img/Stim/FN_011_g.png""}]","277.29999999701977","https://ziweizhang0304.github.io/Stats_learning_trig/img/Stim/FN_011_g.png","post_TD","3","2050.10000000149","2327.39999999851","slow","6","1","5f0e9896f5e4e11e12c8f5ac","","","","","",""
"","image-keyboard-response","19","83244","0.0-5.0-3.0-0.0","1763.3000000044703","","","https://ziweizhang0304.github.io/Stats_learning_trig/img/Stim/FN_008_g.png","13","","","","","","","","","","","","","","","","","",""
"","animation","20","87678","0.0-5.0-3.0-1.0","","","","","","[{""stimulus"":""https://ziweizhang0304.github.io/Stats_learning_trig/img/Stim/FN_017_g.png"",""time"":346.8999999985099},{""stimulus"":""blank"",""time"":660.5999999940395},{""stimulus"":""https://ziweizhang0304.github.io/Stats_learning_trig/img/Stim/FN_009_g.png"",""time"":680.7999999970198},{""stimulus"":""blank"",""time"":987.1999999955297},{""stimulus"":""https://ziweizhang0304.github.io/Stats_learning_trig/img/Stim/FN_007_g.png"",""time"":1034.5999999940395},{""stimulus"":""blank"",""time"":1343.3999999985099},{""stimulus"":""https://ziweizhang0304.github.io/Stats_learning_trig/img/Stim/FN_025_g.png"",""time"":1375.8999999985099},{""stimulus"":""blank"",""time"":1685.5999999940395},{""stimulus"":""https://ziweizhang0304.github.io/Stats_learning_trig/img/Stim/FN_008_g.png"",""time"":1715.7999999970198},{""stimulus"":""blank"",""time"":2028.7999999970198},{""stimulus"":""https://ziweizhang0304.github.io/Stats_learning_trig/img/Stim/FN_012_g.png"",""time"":2040.8999999985099},{""stimulus"":""blank"",""time"":2343.1999999955297},{""stimulus"":""https://ziweizhang0304.github.io/Stats_learning_trig/img/Stim/FN_005_g.png"",""time"":2390.39999999851},{""stimulus"":""blank"",""time"":2706.5},{""stimulus"":""https://ziweizhang0304.github.io/Stats_learning_trig/img/Stim/FN_020_g.png"",""time"":2721.5},{""stimulus"":""blank"",""time"":3036.5999999940395},{""stimulus"":""https://ziweizhang0304.github.io/Stats_learning_trig/img/Stim/FN_016_g.png"",""time"":3068.7999999970198},{""stimulus"":""blank"",""time"":3383.1999999955297},{""stimulus"":""https://ziweizhang0304.github.io/Stats_learning_trig/img/Stim/FN_002_g.png"",""time"":3400.2999999970198},{""stimulus"":""blank"",""time"":3713.7999999970198},{""stimulus"":""https://ziweizhang0304.github.io/Stats_learning_trig/img/Stim/FN_010_g.png"",""time"":3741.6999999955297},{""stimulus"":""blank"",""time"":4056.6999999955297},{""stimulus"":""https://ziweizhang0304.github.io/Stats_learning_trig/img/Stim/FN_006_g.png"",""time"":4081.7999999970198},{""stimulus"":""blank"",""time"":4387.0999999940395}]","[{""key_press"":32,""rt"":2080.39999999851,""stimulus"":""https://ziweizhang0304.github.io/Stats_learning_trig/img/Stim/FN_012_g.png""}]","364.6000000014901","https://ziweizhang0304.github.io/Stats_learning_trig/img/Stim/FN_008_g.png","post_TD","4","1715.7999999970198","2080.39999999851","fast","5","1","5f0e9896f5e4e11e12c8f5ac","","","","","",""
"","image-keyboard-response","21","89293","0.0-5.0-4.0-0.0","1614.3999999985099","","","https://ziweizhang0304.github.io/Stats_learning_trig/img/Stim/FN_013_g.png","13","","","","","","","","","","","","","","","","","",""
"","animation","22","93724","0.0-5.0-4.0-1.0","","","","","","[{""stimulus"":""https://ziweizhang0304.github.io/Stats_learning_trig/img/Stim/FN_009_g.png"",""time"":349.40000000596046},{""stimulus"":""blank"",""time"":662.6000000014901},{""stimulus"":""https://ziweizhang0304.github.io/Stats_learning_trig/img/Stim/FN_025_g.png"",""time"":693.6000000014901},{""stimulus"":""blank"",""time"":1005.3000000044703},{""stimulus"":""https://ziweizhang0304.github.io/Stats_learning_trig/img/Stim/FN_007_g.png"",""time"":1020.9000000059605},{""stimulus"":""blank"",""time"":1331.1000000014901},{""stimulus"":""https://ziweizhang0304.github.io/Stats_learning_trig/img/Stim/FN_002_g.png"",""time"":1361.3000000044703},{""stimulus"":""blank"",""time"":1663.2000000029802},{""stimulus"":""https://ziweizhang0304.github.io/Stats_learning_trig/img/Stim/FN_011_g.png"",""time"":1711.4000000059605},{""stimulus"":""blank"",""time"":2024.8000000044703},{""stimulus"":""https://ziweizhang0304.github.io/Stats_learning_trig/img/Stim/FN_018_g.png"",""time"":2040.4000000059605},{""stimulus"":""blank"",""time"":2353.4000000059605},{""stimulus"":""https://ziweizhang0304.github.io/Stats_learning_trig/img/Stim/FN_013_g.png"",""time"":2383.7000000029802},{""stimulus"":""blank"",""time"":2693.60000000149},{""stimulus"":""https://ziweizhang0304.github.io/Stats_learning_trig/img/Stim/FN_020_g.png"",""time"":2724.9000000059605},{""stimulus"":""blank"",""time"":3037.4000000059605},{""stimulus"":""https://ziweizhang0304.github.io/Stats_learning_trig/img/Stim/FN_016_g.png"",""time"":3061.60000000149},{""stimulus"":""blank"",""time"":3365.2000000029802},{""stimulus"":""https://ziweizhang0304.github.io/Stats_learning_trig/img/Stim/FN_010_g.png"",""time"":3400.60000000149},{""stimulus"":""blank"",""time"":3713.10000000149},{""stimulus"":""https://ziweizhang0304.github.io/Stats_learning_trig/img/Stim/FN_006_g.png"",""time"":3741.10000000149},{""stimulus"":""blank"",""time"":4056.60000000149},{""stimulus"":""https://ziweizhang0304.github.io/Stats_learning_trig/img/Stim/FN_017_g.png"",""time"":4081.10000000149},{""stimulus"":""blank"",""time"":4385.20000000298}]","[{""key_press"":32,""rt"":2650.5,""stimulus"":""https://ziweizhang0304.github.io/Stats_learning_trig/img/Stim/FN_013_g.png""}]","266.79999999701977","https://ziweizhang0304.github.io/Stats_learning_trig/img/Stim/FN_013_g.png","post_TD","5","2383.7000000029802","2650.5","slow","7","3","5f0e9896f5e4e11e12c8f5ac","","","","","",""
"","image-keyboard-response","23","95144","0.0-5.0-5.0-0.0","1418.6999999955297","","","https://ziweizhang0304.github.io/Stats_learning_trig/img/Stim/FN_013_g.png","13","","","","","","","","","","","","","","","","","",""
"","animation","24","99571","0.0-5.0-5.0-1.0","","","","","","[{""stimulus"":""https://ziweizhang0304.github.io/Stats_learning_trig/img/Stim/FN_009_g.png"",""time"":350.70000000298023},{""stimulus"":""blank"",""time"":665.3999999985099},{""stimulus"":""https://ziweizhang0304.github.io/Stats_learning_trig/img/Stim/FN_017_g.png"",""time"":680.6000000014901},{""stimulus"":""blank"",""time"":980.8999999985099},{""stimulus"":""https://ziweizhang0304.github.io/Stats_learning_trig/img/Stim/FN_020_g.png"",""time"":1029},{""stimulus"":""blank"",""time"":1342.7999999970198},{""stimulus"":""https://ziweizhang0304.github.io/Stats_learning_trig/img/Stim/FN_011_g.png"",""time"":1373.8999999985099},{""stimulus"":""blank"",""time"":1689.3999999985099},{""stimulus"":""https://ziweizhang0304.github.io/Stats_learning_trig/img/Stim/FN_018_g.png"",""time"":1701.5},{""stimulus"":""blank"",""time"":2016.8999999985099},{""stimulus"":""https://ziweizhang0304.github.io/Stats_learning_trig/img/Stim/FN_013_g.png"",""time"":2049},{""stimulus"":""blank"",""time"":2362.7999999970198},{""stimulus"":""https://ziweizhang0304.github.io/Stats_learning_trig/img/Stim/FN_016_g.png"",""time"":2395},{""stimulus"":""blank"",""time"":2708},{""stimulus"":""https://ziweizhang0304.github.io/Stats_learning_trig/img/Stim/FN_007_g.png"",""time"":2722},{""stimulus"":""blank"",""time"":3024.39999999851},{""stimulus"":""https://ziweizhang0304.github.io/Stats_learning_trig/img/Stim/FN_002_g.png"",""time"":3070.60000000149},{""stimulus"":""blank"",""time"":3381.89999999851},{""stimulus"":""https://ziweizhang0304.github.io/Stats_learning_trig/img/Stim/FN_010_g.png"",""time"":3414},{""stimulus"":""blank"",""time"":3724.7000000029802},{""stimulus"":""https://ziweizhang0304.github.io/Stats_learning_trig/img/Stim/FN_025_g.png"",""time"":3741.2999999970198},{""stimulus"":""blank"",""time"":4051},{""stimulus"":""https://ziweizhang0304.github.io/Stats_learning_trig/img/Stim/FN_006_g.png"",""time"":4081.7999999970198},{""stimulus"":""blank"",""time"":4395.39999999851}]","[{""key_press"":32,""rt"":2295.6999999955297,""stimulus"":""https://ziweizhang0304.github.io/Stats_learning_trig/img/Stim/FN_013_g.png""}]","246.69999999552965","https://ziweizhang0304.github.io/Stats_learning_trig/img/Stim/FN_013_g.png","post_TD","6","2049","2295.6999999955297","slow","6","3","5f0e9896f5e4e11e12c8f5ac","","","","","",""
"","image-keyboard-response","25","101018","0.0-5.0-6.0-0.0","1445.7000000029802","","","https://ziweizhang0304.github.io/Stats_learning_trig/img/Stim/FN_008_g.png","13","","","","","","","","","","","","","","","","","",""
"","animation","26","105439","0.0-5.0-6.0-1.0","","","","","","[{""stimulus"":""https://ziweizhang0304.github.io/Stats_learning_trig/img/Stim/FN_007_g.png"",""time"":354.29999999701977},{""stimulus"":""blank"",""time"":668.2000000029802},{""stimulus"":""https://ziweizhang0304.github.io/Stats_learning_trig/img/Stim/FN_006_g.png"",""time"":681.2999999970198},{""stimulus"":""blank"",""time"":984.5},{""stimulus"":""https://ziweizhang0304.github.io/Stats_learning_trig/img/Stim/FN_017_g.png"",""time"":1020.7999999970198},{""stimulus"":""blank"",""time"":1331.5},{""stimulus"":""https://ziweizhang0304.github.io/Stats_learning_trig/img/Stim/FN_010_g.png"",""time"":1363.7999999970198},{""stimulus"":""blank"",""time"":1678.7999999970198},{""stimulus"":""https://ziweizhang0304.github.io/Stats_learning_trig/img/Stim/FN_016_g.png"",""time"":1701.2000000029802},{""stimulus"":""blank"",""time"":2010},{""stimulus"":""https://ziweizhang0304.github.io/Stats_learning_trig/img/Stim/FN_020_g.png"",""time"":2042.1000000014901},{""stimulus"":""blank"",""time"":2357.2999999970198},{""stimulus"":""https://ziweizhang0304.github.io/Stats_learning_trig/img/Stim/FN_008_g.png"",""time"":2388.60000000149},{""stimulus"":""blank"",""time"":2689},{""stimulus"":""https://ziweizhang0304.github.io/Stats_learning_trig/img/Stim/FN_012_g.png"",""time"":2720.5},{""stimulus"":""blank"",""time"":3031.7999999970198},{""stimulus"":""https://ziweizhang0304.github.io/Stats_learning_trig/img/Stim/FN_005_g.png"",""time"":3062.10000000149},{""stimulus"":""blank"",""time"":3364},{""stimulus"":""https://ziweizhang0304.github.io/Stats_learning_trig/img/Stim/FN_002_g.png"",""time"":3412.10000000149},{""stimulus"":""blank"",""time"":3723.39999999851},{""stimulus"":""https://ziweizhang0304.github.io/Stats_learning_trig/img/Stim/FN_025_g.png"",""time"":3754.60000000149},{""stimulus"":""blank"",""time"":4069},{""stimulus"":""https://ziweizhang0304.github.io/Stats_learning_trig/img/Stim/FN_009_g.png"",""time"":4080.2999999970198},{""stimulus"":""blank"",""time"":4384.5}]","[{""key_press"":32,""rt"":2705.39999999851,""stimulus"":""blank""}]","316.79999999701977","https://ziweizhang0304.github.io/Stats_learning_trig/img/Stim/FN_008_g.png","post_TD","7","2388.60000000149","2705.39999999851","fast","7","1","5f0e9896f5e4e11e12c8f5ac","","","","","",""
"","image-keyboard-response","27","106256","0.0-5.0-7.0-0.0","816.1000000014901","","","https://ziweizhang0304.github.io/Stats_learning_trig/img/Stim/FN_008_g.png","13","","","","","","","","","","","","","","","","","",""
"","animation","28","110687","0.0-5.0-7.0-1.0","","","","","","[{""stimulus"":""https://ziweizhang0304.github.io/Stats_learning_trig/img/Stim/FN_016_g.png"",""time"":350.6000000014901},{""stimulus"":""blank"",""time"":664.1000000014901},{""stimulus"":""https://ziweizhang0304.github.io/Stats_learning_trig/img/Stim/FN_006_g.png"",""time"":681},{""stimulus"":""blank"",""time"":993.4000000059605},{""stimulus"":""https://ziweizhang0304.github.io/Stats_learning_trig/img/Stim/FN_020_g.png"",""time"":1025.6000000014901},{""stimulus"":""blank"",""time"":1340.9000000059605},{""stimulus"":""https://ziweizhang0304.github.io/Stats_learning_trig/img/Stim/FN_008_g.png"",""time"":1372.4000000059605},{""stimulus"":""blank"",""time"":1687.6000000014901},{""stimulus"":""https://ziweizhang0304.github.io/Stats_learning_trig/img/Stim/FN_012_g.png"",""time"":1703.9000000059605},{""stimulus"":""blank"",""time"":2015.5},{""stimulus"":""https://ziweizhang0304.github.io/Stats_learning_trig/img/Stim/FN_005_g.png"",""time"":2040.9000000059605},{""stimulus"":""blank"",""time"":2347.5},{""stimulus"":""https://ziweizhang0304.github.io/Stats_learning_trig/img/Stim/FN_007_g.png"",""time"":2380.8000000044703},{""stimulus"":""blank"",""time"":2695.5},{""stimulus"":""https://ziweizhang0304.github.io/Stats_learning_trig/img/Stim/FN_002_g.png"",""time"":2720.8000000044703},{""stimulus"":""blank"",""time"":3025.10000000149},{""stimulus"":""https://ziweizhang0304.github.io/Stats_learning_trig/img/Stim/FN_010_g.png"",""time"":3072.4000000059605},{""stimulus"":""blank"",""time"":3383.5},{""stimulus"":""https://ziweizhang0304.github.io/Stats_learning_trig/img/Stim/FN_025_g.png"",""time"":3413.8000000044703},{""stimulus"":""blank"",""time"":3725.60000000149},{""stimulus"":""https://ziweizhang0304.github.io/Stats_learning_trig/img/Stim/FN_009_g.png"",""time"":3741},{""stimulus"":""blank"",""time"":4056.3000000044703},{""stimulus"":""https://ziweizhang0304.github.io/Stats_learning_trig/img/Stim/FN_017_g.png"",""time"":4080.9000000059605},{""stimulus"":""blank"",""time"":4383.10000000149}]","[{""key_press"":32,""rt"":1818.1000000014901,""stimulus"":""https://ziweizhang0304.github.io/Stats_learning_trig/img/Stim/FN_012_g.png""}]","445.69999999552965","https://ziweizhang0304.github.io/Stats_learning_trig/img/Stim/FN_008_g.png","post_TD","8","1372.4000000059605","1818.1000000014901","fast","4","1","5f0e9896f5e4e11e12c8f5ac","","","","","",""
"","image-keyboard-response","29","111355","0.0-5.0-8.0-0.0","666.5","","","https://ziweizhang0304.github.io/Stats_learning_trig/img/Stim/FN_012_g.png","13","","","","","","","","","","","","","","","","","",""
"","animation","30","115791","0.0-5.0-8.0-1.0","","","","","","[{""stimulus"":""https://ziweizhang0304.github.io/Stats_learning_trig/img/Stim/FN_007_g.png"",""time"":346.79999999701977},{""stimulus"":""blank"",""time"":659.1999999955297},{""stimulus"":""https://ziweizhang0304.github.io/Stats_learning_trig/img/Stim/FN_006_g.png"",""time"":690.3999999985099},{""stimulus"":""blank"",""time"":1004.6000000014901},{""stimulus"":""https://ziweizhang0304.github.io/Stats_learning_trig/img/Stim/FN_017_g.png"",""time"":1020.7999999970198},{""stimulus"":""blank"",""time"":1333.8999999985099},{""stimulus"":""https://ziweizhang0304.github.io/Stats_learning_trig/img/Stim/FN_010_g.png"",""time"":1364.6000000014901},{""stimulus"":""blank"",""time"":1675.1999999955297},{""stimulus"":""https://ziweizhang0304.github.io/Stats_learning_trig/img/Stim/FN_016_g.png"",""time"":1706.6000000014901},{""stimulus"":""blank"",""time"":2020.6000000014901},{""stimulus"":""https://ziweizhang0304.github.io/Stats_learning_trig/img/Stim/FN_020_g.png"",""time"":2041},{""stimulus"":""blank"",""time"":2348.60000000149},{""stimulus"":""https://ziweizhang0304.github.io/Stats_learning_trig/img/Stim/FN_008_g.png"",""time"":2381.10000000149},{""stimulus"":""blank"",""time"":2696.6999999955297},{""stimulus"":""https://ziweizhang0304.github.io/Stats_learning_trig/img/Stim/FN_012_g.png"",""time"":2725.89999999851},{""stimulus"":""blank"",""time"":3027.2999999970198},{""stimulus"":""https://ziweizhang0304.github.io/Stats_learning_trig/img/Stim/FN_005_g.png"",""time"":3074.5},{""stimulus"":""blank"",""time"":3387.60000000149},{""stimulus"":""https://ziweizhang0304.github.io/Stats_learning_trig/img/Stim/FN_002_g.png"",""time"":3400.7999999970198},{""stimulus"":""blank"",""time"":3702.10000000149},{""stimulus"":""https://ziweizhang0304.github.io/Stats_learning_trig/img/Stim/FN_025_g.png"",""time"":3740.2999999970198},{""stimulus"":""blank"",""time"":4042.5},{""stimulus"":""https://ziweizhang0304.github.io/Stats_learning_trig/img/Stim/FN_009_g.png"",""time"":4081.2999999970198},{""stimulus"":""blank"",""time"":4388.69999999553}]","[{""key_press"":32,""rt"":2635.6999999955297,""stimulus"":""https://ziweizhang0304.github.io/Stats_learning_trig/img/Stim/FN_008_g.png""},{""key_press"":32,""rt"":3109.60000000149,""stimulus"":""https://ziweizhang0304.github.io/Stats_learning_trig/img/Stim/FN_005_g.png""}]","383.70000000298023","https://ziweizhang0304.github.io/Stats_learning_trig/img/Stim/FN_012_g.png","post_TD","9","2725.89999999851","3109.60000000149","fast","8","2","5f0e9896f5e4e11e12c8f5ac","","","","","",""
"","image-keyboard-response","31","116678","0.0-5.0-9.0-0.0","886.3999999985099","","","https://ziweizhang0304.github.io/Stats_learning_trig/img/Stim/FN_011_g.png","13","","","","","","","","","","","","","","","","","",""
"","animation","32","121105","0.0-5.0-9.0-1.0","","","","","","[{""stimulus"":""https://ziweizhang0304.github.io/Stats_learning_trig/img/Stim/FN_009_g.png"",""time"":353.5},{""stimulus"":""blank"",""time"":669.2999999970198},{""stimulus"":""https://ziweizhang0304.github.io/Stats_learning_trig/img/Stim/FN_017_g.png"",""time"":681.5},{""stimulus"":""blank"",""time"":983.8999999985099},{""stimulus"":""https://ziweizhang0304.github.io/Stats_learning_trig/img/Stim/FN_020_g.png"",""time"":1021.7999999970198},{""stimulus"":""blank"",""time"":1332.2999999970198},{""stimulus"":""https://ziweizhang0304.github.io/Stats_learning_trig/img/Stim/FN_011_g.png"",""time"":1360.7000000029802},{""stimulus"":""blank"",""time"":1664.6000000014901},{""stimulus"":""https://ziweizhang0304.github.io/Stats_learning_trig/img/Stim/FN_018_g.png"",""time"":1712.2000000029802},{""stimulus"":""blank"",""time"":2023.7999999970198},{""stimulus"":""https://ziweizhang0304.github.io/Stats_learning_trig/img/Stim/FN_013_g.png"",""time"":2041.8999999985099},{""stimulus"":""blank"",""time"":2350.2000000029802},{""stimulus"":""https://ziweizhang0304.github.io/Stats_learning_trig/img/Stim/FN_016_g.png"",""time"":2381.5},{""stimulus"":""blank"",""time"":2695.2999999970198},{""stimulus"":""https://ziweizhang0304.github.io/Stats_learning_trig/img/Stim/FN_007_g.png"",""time"":2727},{""stimulus"":""blank"",""time"":3041},{""stimulus"":""https://ziweizhang0304.github.io/Stats_learning_trig/img/Stim/FN_002_g.png"",""time"":3073.10000000149},{""stimulus"":""blank"",""time"":3387.39999999851},{""stimulus"":""https://ziweizhang0304.github.io/Stats_learning_trig/img/Stim/FN_010_g.png"",""time"":3401.7999999970198},{""stimulus"":""blank"",""time"":3713.7999999970198},{""stimulus"":""https://ziweizhang0304.github.io/Stats_learning_trig/img/Stim/FN_025_g.png"",""time"":3746},{""stimulus"":""blank"",""time"":4056},{""stimulus"":""https://ziweizhang0304.github.io/Stats_learning_trig/img/Stim/FN_006_g.png"",""time"":4086.60000000149},{""stimulus"":""blank"",""time"":4395.79999999702}]","[{""key_press"":32,""rt"":1688.7999999970198,""stimulus"":""blank""}]","328.09999999403954","https://ziweizhang0304.github.io/Stats_learning_trig/img/Stim/FN_011_g.png","post_TD","10","1360.7000000029802","1688.7999999970198","slow","4","1","5f0e9896f5e4e11e12c8f5ac","","","","","",""
"","image-keyboard-response","33","121769","0.0-5.0-10.0-0.0","663.0999999940395","","","https://ziweizhang0304.github.io/Stats_learning_trig/img/Stim/FN_011_g.png","13","","","","","","","","","","","","","","","","","",""
"","animation","34","126202","0.0-5.0-10.0-1.0","","","","","","[{""stimulus"":""https://ziweizhang0304.github.io/Stats_learning_trig/img/Stim/FN_009_g.png"",""time"":356},{""stimulus"":""blank"",""time"":658},{""stimulus"":""https://ziweizhang0304.github.io/Stats_learning_trig/img/Stim/FN_025_g.png"",""time"":681.1000000014901},{""stimulus"":""blank"",""time"":983.2999999970198},{""stimulus"":""https://ziweizhang0304.github.io/Stats_learning_trig/img/Stim/FN_007_g.png"",""time"":1031.3999999985099},{""stimulus"":""blank"",""time"":1345.7999999970198},{""stimulus"":""https://ziweizhang0304.github.io/Stats_learning_trig/img/Stim/FN_002_g.png"",""time"":1362.1000000014901},{""stimulus"":""blank"",""time"":1676.5},{""stimulus"":""https://ziweizhang0304.github.io/Stats_learning_trig/img/Stim/FN_011_g.png"",""time"":1708},{""stimulus"":""blank"",""time"":2023.3999999985099},{""stimulus"":""https://ziweizhang0304.github.io/Stats_learning_trig/img/Stim/FN_018_g.png"",""time"":2054.7999999970198},{""stimulus"":""blank"",""time"":2364.89999999851},{""stimulus"":""https://ziweizhang0304.github.io/Stats_learning_trig/img/Stim/FN_013_g.png"",""time"":2381.10000000149},{""stimulus"":""blank"",""time"":2694.39999999851},{""stimulus"":""https://ziweizhang0304.github.io/Stats_learning_trig/img/Stim/FN_020_g.png"",""time"":2721.60000000149},{""stimulus"":""blank"",""time"":3023.5},{""stimulus"":""https://ziweizhang0304.github.io/Stats_learning_trig/img/Stim/FN_016_g.png"",""time"":3071.7999999970198},{""stimulus"":""blank"",""time"":3373.39999999851},{""stimulus"":""https://ziweizhang0304.github.io/Stats_learning_trig/img/Stim/FN_010_g.png"",""time"":3405.5},{""stimulus"":""blank"",""time"":3721.7999999970198},{""stimulus"":""https://ziweizhang0304.github.io/Stats_learning_trig/img/Stim/FN_006_g.png"",""time"":3753},{""stimulus"":""blank"",""time"":4068.1999999955297},{""stimulus"":""https://ziweizhang0304.github.io/Stats_learning_trig/img/Stim/FN_017_g.png"",""time"":4083.60000000149},{""stimulus"":""blank"",""time"":4384.69999999553}]","[{""key_press"":32,""rt"":2104.5999999940395,""stimulus"":""https://ziweizhang0304.github.io/Stats_learning_trig/img/Stim/FN_018_g.png""}]","396.59999999403954","https://ziweizhang0304.github.io/Stats_learning_trig/img/Stim/FN_011_g.png","post_TD","11","1708","2104.5999999940395","slow","5","1","5f0e9896f5e4e11e12c8f5ac","","","","","",""
"","image-keyboard-response","35","126791","0.0-5.0-11.0-0.0","588","","","https://ziweizhang0304.github.io/Stats_learning_trig/img/Stim/FN_011_g.png","13","","","","","","","","","","","","","","","","","",""
"","animation","36","131227","0.0-5.0-11.0-1.0","","","","","","[{""stimulus"":""https://ziweizhang0304.github.io/Stats_learning_trig/img/Stim/FN_006_g.png"",""time"":353.8999999985099},{""stimulus"":""blank"",""time"":667.8000000044703},{""stimulus"":""https://ziweizhang0304.github.io/Stats_learning_trig/img/Stim/FN_020_g.png"",""time"":684.1000000014901},{""stimulus"":""blank"",""time"":997.7000000029802},{""stimulus"":""https://ziweizhang0304.github.io/Stats_learning_trig/img/Stim/FN_007_g.png"",""time"":1030.2000000029802},{""stimulus"":""blank"",""time"":1345.1000000014901},{""stimulus"":""https://ziweizhang0304.github.io/Stats_learning_trig/img/Stim/FN_010_g.png"",""time"":1360.5},{""stimulus"":""blank"",""time"":1672.8000000044703},{""stimulus"":""https://ziweizhang0304.github.io/Stats_learning_trig/img/Stim/FN_017_g.png"",""time"":1705.1000000014901},{""stimulus"":""blank"",""time"":2018.3999999985099},{""stimulus"":""https://ziweizhang0304.github.io/Stats_learning_trig/img/Stim/FN_009_g.png"",""time"":2041.6000000014901},{""stimulus"":""blank"",""time"":2349},{""stimulus"":""https://ziweizhang0304.github.io/Stats_learning_trig/img/Stim/FN_011_g.png"",""time"":2395.5},{""stimulus"":""blank"",""time"":2707.8000000044703},{""stimulus"":""https://ziweizhang0304.github.io/Stats_learning_trig/img/Stim/FN_018_g.png"",""time"":2724.10000000149},{""stimulus"":""blank"",""time"":3038.8000000044703},{""stimulus"":""https://ziweizhang0304.github.io/Stats_learning_trig/img/Stim/FN_013_g.png"",""time"":3061.10000000149},{""stimulus"":""blank"",""time"":3367.7000000029802},{""stimulus"":""https://ziweizhang0304.github.io/Stats_learning_trig/img/Stim/FN_016_g.png"",""time"":3413.10000000149},{""stimulus"":""blank"",""time"":3726.60000000149},{""stimulus"":""https://ziweizhang0304.github.io/Stats_learning_trig/img/Stim/FN_002_g.png"",""time"":3741.7000000029802},{""stimulus"":""blank"",""time"":4056.7000000029802},{""stimulus"":""https://ziweizhang0304.github.io/Stats_learning_trig/img/Stim/FN_025_g.png"",""time"":4081.2000000029802},{""stimulus"":""blank"",""time"":4388}]","[{""key_press"":32,""rt"":2655.5,""stimulus"":""https://ziweizhang0304.github.io/Stats_learning_trig/img/Stim/FN_011_g.png""}]","260","https://ziweizhang0304.github.io/Stats_learning_trig/img/Stim/FN_011_g.png","post_TD","12","2395.5","2655.5","slow","7","1","5f0e9896f5e4e11e12c8f5ac","","","","","",""
"","image-keyboard-response","37","131866","0.0-5.0-12.0-0.0","638.5","","","https://ziweizhang0304.github.io/Stats_learning_trig/img/Stim/FN_018_g.png","13","","","","","","","","","","","","","","","","","",""
"","animation","38","136289","0.0-5.0-12.0-1.0","","","","","","[{""stimulus"":""https://ziweizhang0304.github.io/Stats_learning_trig/img/Stim/FN_025_g.png"",""time"":348.3999999985099},{""stimulus"":""blank"",""time"":663},{""stimulus"":""https://ziweizhang0304.github.io/Stats_learning_trig/img/Stim/FN_006_g.png"",""time"":681.2999999970198},{""stimulus"":""blank"",""time"":991.2999999970198},{""stimulus"":""https://ziweizhang0304.github.io/Stats_learning_trig/img/Stim/FN_007_g.png"",""time"":1020.7999999970198},{""stimulus"":""blank"",""time"":1332.1000000014901},{""stimulus"":""https://ziweizhang0304.github.io/Stats_learning_trig/img/Stim/FN_016_g.png"",""time"":1361.5},{""stimulus"":""blank"",""time"":1662.2999999970198},{""stimulus"":""https://ziweizhang0304.github.io/Stats_learning_trig/img/Stim/FN_002_g.png"",""time"":1710.6000000014901},{""stimulus"":""blank"",""time"":2021.2000000029802},{""stimulus"":""https://ziweizhang0304.github.io/Stats_learning_trig/img/Stim/FN_011_g.png"",""time"":2053.7000000029802},{""stimulus"":""blank"",""time"":2369.5},{""stimulus"":""https://ziweizhang0304.github.io/Stats_learning_trig/img/Stim/FN_018_g.png"",""time"":2381.5},{""stimulus"":""blank"",""time"":2686.7999999970198},{""stimulus"":""https://ziweizhang0304.github.io/Stats_learning_trig/img/Stim/FN_013_g.png"",""time"":2734.2999999970198},{""stimulus"":""blank"",""time"":3049.2000000029802},{""stimulus"":""https://ziweizhang0304.github.io/Stats_learning_trig/img/Stim/FN_020_g.png"",""time"":3061.39999999851},{""stimulus"":""blank"",""time"":3374.7000000029802},{""stimulus"":""https://ziweizhang0304.github.io/Stats_learning_trig/img/Stim/FN_010_g.png"",""time"":3406.10000000149},{""stimulus"":""blank"",""time"":3718.10000000149},{""stimulus"":""https://ziweizhang0304.github.io/Stats_learning_trig/img/Stim/FN_009_g.png"",""time"":3749.7000000029802},{""stimulus"":""blank"",""time"":4062.89999999851},{""stimulus"":""https://ziweizhang0304.github.io/Stats_learning_trig/img/Stim/FN_017_g.png"",""time"":4082},{""stimulus"":""blank"",""time"":4390.20000000298}]","[{""key_press"":32,""rt"":2712.10000000149,""stimulus"":""blank""}]","330.6000000014901","https://ziweizhang0304.github.io/Stats_learning_trig/img/Stim/FN_018_g.png","post_TD","13","2381.5","2712.10000000149","slow","7","2","5f0e9896f5e4e11e12c8f5ac","","","","","",""
"","image-keyboard-response","39","137095","0.0-5.0-13.0-0.0","804.8999999985099","","","https://ziweizhang0304.github.io/Stats_learning_trig/img/Stim/FN_005_g.png","13","","","","","","","","","","","","","","","","","",""
"","animation","40","141516","0.0-5.0-13.0-1.0","","","","","","[{""stimulus"":""https://ziweizhang0304.github.io/Stats_learning_trig/img/Stim/FN_017_g.png"",""time"":356},{""stimulus"":""blank"",""time"":669.3999999985099},{""stimulus"":""https://ziweizhang0304.github.io/Stats_learning_trig/img/Stim/FN_009_g.png"",""time"":681.6000000014901},{""stimulus"":""blank"",""time"":996.2999999970198},{""stimulus"":""https://ziweizhang0304.github.io/Stats_learning_trig/img/Stim/FN_007_g.png"",""time"":1028.5},{""stimulus"":""blank"",""time"":1342.7000000029802},{""stimulus"":""https://ziweizhang0304.github.io/Stats_learning_trig/img/Stim/FN_025_g.png"",""time"":1360.7999999970198},{""stimulus"":""blank"",""time"":1674.5},{""stimulus"":""https://ziweizhang0304.github.io/Stats_learning_trig/img/Stim/FN_008_g.png"",""time"":1701.7000000029802},{""stimulus"":""blank"",""time"":2006.8999999985099},{""stimulus"":""https://ziweizhang0304.github.io/Stats_learning_trig/img/Stim/FN_012_g.png"",""time"":2041.8999999985099},{""stimulus"":""blank"",""time"":2350.2000000029802},{""stimulus"":""https://ziweizhang0304.github.io/Stats_learning_trig/img/Stim/FN_005_g.png"",""time"":2380.60000000149},{""stimulus"":""blank"",""time"":2693.7999999970198},{""stimulus"":""https://ziweizhang0304.github.io/Stats_learning_trig/img/Stim/FN_020_g.png"",""time"":2725},{""stimulus"":""blank"",""time"":3038.89999999851},{""stimulus"":""https://ziweizhang0304.github.io/Stats_learning_trig/img/Stim/FN_016_g.png"",""time"":3071},{""stimulus"":""blank"",""time"":3386.7999999970198},{""stimulus"":""https://ziweizhang0304.github.io/Stats_learning_trig/img/Stim/FN_002_g.png"",""time"":3401.89999999851},{""stimulus"":""blank"",""time"":3715.7000000029802},{""stimulus"":""https://ziweizhang0304.github.io/Stats_learning_trig/img/Stim/FN_010_g.png"",""time"":3741},{""stimulus"":""blank"",""time"":4046.89999999851},{""stimulus"":""https://ziweizhang0304.github.io/Stats_learning_trig/img/Stim/FN_006_g.png"",""time"":4094.10000000149},{""stimulus"":""blank"",""time"":4409.5}]","[{""key_press"":32,""rt"":2693.5,""stimulus"":""https://ziweizhang0304.github.io/Stats_learning_trig/img/Stim/FN_005_g.png""}]","312.8999999985099","https://ziweizhang0304.github.io/Stats_learning_trig/img/Stim/FN_005_g.png","post_TD","14","2380.60000000149","2693.5","fast","7","3","5f0e9896f5e4e11e12c8f5ac","","","","","",""
"","image-keyboard-response","41","142219","0.0-5.0-14.0-0.0","701.6999999955297","","","https://ziweizhang0304.github.io/Stats_learning_trig/img/Stim/FN_008_g.png","13","","","","","","","","","","","","","","","","","",""
"","animation","42","146639","0.0-5.0-14.0-1.0","","","","","","[{""stimulus"":""https://ziweizhang0304.github.io/Stats_learning_trig/img/Stim/FN_016_g.png"",""time"":344.8999999985099},{""stimulus"":""blank"",""time"":657.5},{""stimulus"":""https://ziweizhang0304.github.io/Stats_learning_trig/img/Stim/FN_025_g.png"",""time"":680.6999999955297},{""stimulus"":""blank"",""time"":987.2999999970198},{""stimulus"":""https://ziweizhang0304.github.io/Stats_learning_trig/img/Stim/FN_002_g.png"",""time"":1021.6000000014901},{""stimulus"":""blank"",""time"":1335.7999999970198},{""stimulus"":""https://ziweizhang0304.github.io/Stats_learning_trig/img/Stim/FN_006_g.png"",""time"":1361},{""stimulus"":""blank"",""time"":1664.6000000014901},{""stimulus"":""https://ziweizhang0304.github.io/Stats_learning_trig/img/Stim/FN_007_g.png"",""time"":1712.8999999985099},{""stimulus"":""blank"",""time"":2022.3999999985099},{""stimulus"":""https://ziweizhang0304.github.io/Stats_learning_trig/img/Stim/FN_008_g.png"",""time"":2054},{""stimulus"":""blank"",""time"":2367.6999999955297},{""stimulus"":""https://ziweizhang0304.github.io/Stats_learning_trig/img/Stim/FN_012_g.png"",""time"":2380.6999999955297},{""stimulus"":""blank"",""time"":2694.10000000149},{""stimulus"":""https://ziweizhang0304.github.io/Stats_learning_trig/img/Stim/FN_005_g.png"",""time"":2724.6999999955297},{""stimulus"":""blank"",""time"":3038},{""stimulus"":""https://ziweizhang0304.github.io/Stats_learning_trig/img/Stim/FN_020_g.png"",""time"":3069.5},{""stimulus"":""blank"",""time"":3380.2999999970198},{""stimulus"":""https://ziweizhang0304.github.io/Stats_learning_trig/img/Stim/FN_010_g.png"",""time"":3400.5},{""stimulus"":""blank"",""time"":3709.1999999955297},{""stimulus"":""https://ziweizhang0304.github.io/Stats_learning_trig/img/Stim/FN_009_g.png"",""time"":3755.6999999955297},{""stimulus"":""blank"",""time"":4068.2999999970198},{""stimulus"":""https://ziweizhang0304.github.io/Stats_learning_trig/img/Stim/FN_017_g.png"",""time"":4081.39999999851},{""stimulus"":""blank"",""time"":4384.19999999553}]","[{""key_press"":32,""rt"":2336.5,""stimulus"":""https://ziweizhang0304.github.io/Stats_learning_trig/img/Stim/FN_008_g.png""}]","282.5","https://ziweizhang0304.github.io/Stats_learning_trig/img/Stim/FN_008_g.png","post_TD","15","2054","2336.5","fast","6","1","5f0e9896f5e4e11e12c8f5ac","","","","","",""
"","image-keyboard-response","43","147648","0.0-5.0-15.0-0.0","1008.2000000029802","","","https://ziweizhang0304.github.io/Stats_learning_trig/img/Stim/FN_013_g.png","13","","","","","","","","","","","","","","","","","",""
"","animation","44","152080","0.0-5.0-15.0-1.0","","","","","","[{""stimulus"":""https://ziweizhang0304.github.io/Stats_learning_trig/img/Stim/FN_025_g.png"",""time"":354},{""stimulus"":""blank"",""time"":669.2000000029802},{""stimulus"":""https://ziweizhang0304.github.io/Stats_learning_trig/img/Stim/FN_006_g.png"",""time"":681.2000000029802},{""stimulus"":""blank"",""time"":985.2000000029802},{""stimulus"":""https://ziweizhang0304.github.io/Stats_learning_trig/img/Stim/FN_007_g.png"",""time"":1032.5},{""stimulus"":""blank"",""time"":1346.2000000029802},{""stimulus"":""https://ziweizhang0304.github.io/Stats_learning_trig/img/Stim/FN_016_g.png"",""time"":1362.3000000044703},{""stimulus"":""blank"",""time"":1672.2000000029802},{""stimulus"":""https://ziweizhang0304.github.io/Stats_learning_trig/img/Stim/FN_002_g.png"",""time"":1700.7000000029802},{""stimulus"":""blank"",""time"":2015.6000000014901},{""stimulus"":""https://ziweizhang0304.github.io/Stats_learning_trig/img/Stim/FN_011_g.png"",""time"":2040.8999999985099},{""stimulus"":""blank"",""time"":2344.10000000149},{""stimulus"":""https://ziweizhang0304.github.io/Stats_learning_trig/img/Stim/FN_018_g.png"",""time"":2392.39999999851},{""stimulus"":""blank"",""time"":2705.39999999851},{""stimulus"":""https://ziweizhang0304.github.io/Stats_learning_trig/img/Stim/FN_013_g.png"",""time"":2721.7000000029802},{""stimulus"":""blank"",""time"":3024.39999999851},{""stimulus"":""https://ziweizhang0304.github.io/Stats_learning_trig/img/Stim/FN_020_g.png"",""time"":3065.2000000029802},{""stimulus"":""blank"",""time"":3380.2000000029802},{""stimulus"":""https://ziweizhang0304.github.io/Stats_learning_trig/img/Stim/FN_010_g.png"",""time"":3400.89999999851},{""stimulus"":""blank"",""time"":3711.5},{""stimulus"":""https://ziweizhang0304.github.io/Stats_learning_trig/img/Stim/FN_009_g.png"",""time"":3741},{""stimulus"":""blank"",""time"":4054.60000000149},{""stimulus"":""https://ziweizhang0304.github.io/Stats_learning_trig/img/Stim/FN_017_g.png"",""time"":4080.7000000029802},{""stimulus"":""blank"",""time"":4383.80000000447}]","[{""key_press"":32,""rt"":3024.10000000149,""stimulus"":""https://ziweizhang0304.github.io/Stats_learning_trig/img/Stim/FN_013_g.png""}]","302.3999999985099","https://ziweizhang0304.github.io/Stats_learning_trig/img/Stim/FN_013_g.png","post_TD","16","2721.7000000029802","3024.10000000149","slow","8","3","5f0e9896f5e4e11e12c8f5ac","","","","","",""
"","image-keyboard-response","45","152668","0.0-5.0-16.0-0.0","587.1000000014901","","","https://ziweizhang0304.github.io/Stats_learning_trig/img/Stim/FN_005_g.png","13","","","","","","","","","","","","","","","","","",""
"","animation","46","157089","0.0-5.0-16.0-1.0","","","","","","[{""stimulus"":""https://ziweizhang0304.github.io/Stats_learning_trig/img/Stim/FN_016_g.png"",""time"":340.8999999985099},{""stimulus"":""blank"",""time"":641.6000000014901},{""stimulus"":""https://ziweizhang0304.github.io/Stats_learning_trig/img/Stim/FN_006_g.png"",""time"":689.3999999985099},{""stimulus"":""blank"",""time"":1002.3999999985099},{""stimulus"":""https://ziweizhang0304.github.io/Stats_learning_trig/img/Stim/FN_020_g.png"",""time"":1033.2999999970198},{""stimulus"":""blank"",""time"":1344.6000000014901},{""stimulus"":""https://ziweizhang0304.github.io/Stats_learning_trig/img/Stim/FN_008_g.png"",""time"":1361.6999999955297},{""stimulus"":""blank"",""time"":1672.5},{""stimulus"":""https://ziweizhang0304.github.io/Stats_learning_trig/img/Stim/FN_012_g.png"",""time"":1704.1999999955297},{""stimulus"":""blank"",""time"":2018},{""stimulus"":""https://ziweizhang0304.github.io/Stats_learning_trig/img/Stim/FN_005_g.png"",""time"":2049.39999999851},{""stimulus"":""blank"",""time"":2364},{""stimulus"":""https://ziweizhang0304.github.io/Stats_learning_trig/img/Stim/FN_007_g.png"",""time"":2396.10000000149},{""stimulus"":""blank"",""time"":2709.10000000149},{""stimulus"":""https://ziweizhang0304.github.io/Stats_learning_trig/img/Stim/FN_002_g.png"",""time"":2725.2999999970198},{""stimulus"":""blank"",""time"":3026.6999999955297},{""stimulus"":""https://ziweizhang0304.github.io/Stats_learning_trig/img/Stim/FN_010_g.png"",""time"":3073.7999999970198},{""stimulus"":""blank"",""time"":3388.2999999970198},{""stimulus"":""https://ziweizhang0304.github.io/Stats_learning_trig/img/Stim/FN_025_g.png"",""time"":3400.39999999851},{""stimulus"":""blank"",""time"":3716.5},{""stimulus"":""https://ziweizhang0304.github.io/Stats_learning_trig/img/Stim/FN_009_g.png"",""time"":3747.7999999970198},{""stimulus"":""blank"",""time"":4058.39999999851},{""stimulus"":""https://ziweizhang0304.github.io/Stats_learning_trig/img/Stim/FN_017_g.png"",""time"":4080.89999999851},{""stimulus"":""blank"",""time"":4387.29999999702}]","[{""key_press"":32,""rt"":2365.7999999970198,""stimulus"":""blank""}]","316.3999999985099","https://ziweizhang0304.github.io/Stats_learning_trig/img/Stim/FN_005_g.png","post_TD","17","2049.39999999851","2365.7999999970198","fast","6","3","5f0e9896f5e4e11e12c8f5ac","","","","","",""
"","image-keyboard-response","47","157592","0.0-5.0-17.0-0.0","501.80000000447035","","","https://ziweizhang0304.github.io/Stats_learning_trig/img/Stim/FN_005_g.png","13","","","","","","","","","","","","","","","","","",""
"","animation","48","162025","0.0-5.0-17.0-1.0","","","","","","[{""stimulus"":""https://ziweizhang0304.github.io/Stats_learning_trig/img/Stim/FN_007_g.png"",""time"":343.20000000298023},{""stimulus"":""blank"",""time"":657.1000000014901},{""stimulus"":""https://ziweizhang0304.github.io/Stats_learning_trig/img/Stim/FN_006_g.png"",""time"":680.7000000029802},{""stimulus"":""blank"",""time"":987.6000000014901},{""stimulus"":""https://ziweizhang0304.github.io/Stats_learning_trig/img/Stim/FN_017_g.png"",""time"":1034.3000000044703},{""stimulus"":""blank"",""time"":1346.2000000029802},{""stimulus"":""https://ziweizhang0304.github.io/Stats_learning_trig/img/Stim/FN_010_g.png"",""time"":1360.6000000014901},{""stimulus"":""blank"",""time"":1673.3000000044703},{""stimulus"":""https://ziweizhang0304.github.io/Stats_learning_trig/img/Stim/FN_016_g.png"",""time"":1701.1000000014901},{""stimulus"":""blank"",""time"":2016.1000000014901},{""stimulus"":""https://ziweizhang0304.github.io/Stats_learning_trig/img/Stim/FN_020_g.png"",""time"":2047.3000000044703},{""stimulus"":""blank"",""time"":2362},{""stimulus"":""https://ziweizhang0304.github.io/Stats_learning_trig/img/Stim/FN_008_g.png"",""time"":2381.2000000029802},{""stimulus"":""blank"",""time"":2692.39999999851},{""stimulus"":""https://ziweizhang0304.github.io/Stats_learning_trig/img/Stim/FN_012_g.png"",""time"":2723.7000000029802},{""stimulus"":""blank"",""time"":3039.10000000149},{""stimulus"":""https://ziweizhang0304.github.io/Stats_learning_trig/img/Stim/FN_005_g.png"",""time"":3071.3000000044703},{""stimulus"":""blank"",""time"":3371.39999999851},{""stimulus"":""https://ziweizhang0304.github.io/Stats_learning_trig/img/Stim/FN_002_g.png"",""time"":3400.8000000044703},{""stimulus"":""blank"",""time"":3703.5},{""stimulus"":""https://ziweizhang0304.github.io/Stats_learning_trig/img/Stim/FN_025_g.png"",""time"":3750.8000000044703},{""stimulus"":""blank"",""time"":4061.10000000149},{""stimulus"":""https://ziweizhang0304.github.io/Stats_learning_trig/img/Stim/FN_009_g.png"",""time"":4081.2000000029802},{""stimulus"":""blank"",""time"":4387.20000000298}]","[{""key_press"":32,""rt"":3412.60000000149,""stimulus"":""https://ziweizhang0304.github.io/Stats_learning_trig/img/Stim/FN_002_g.png""}]","341.29999999701977","https://ziweizhang0304.github.io/Stats_learning_trig/img/Stim/FN_005_g.png","post_TD","18","3071.3000000044703","3412.60000000149","fast","9","3","5f0e9896f5e4e11e12c8f5ac","","","","","",""
"","image-keyboard-response","49","162512","0.0-5.0-18.0-0.0","485.3999999985099","","","https://ziweizhang0304.github.io/Stats_learning_trig/img/Stim/FN_018_g.png","13","","","","","","","","","","","","","","","","","",""
"","animation","50","166933","0.0-5.0-18.0-1.0","","","","","","[{""stimulus"":""https://ziweizhang0304.github.io/Stats_learning_trig/img/Stim/FN_009_g.png"",""time"":343.29999999701977},{""stimulus"":""blank"",""time"":653.7999999970198},{""stimulus"":""https://ziweizhang0304.github.io/Stats_learning_trig/img/Stim/FN_017_g.png"",""time"":686},{""stimulus"":""blank"",""time"":997.1999999955297},{""stimulus"":""https://ziweizhang0304.github.io/Stats_learning_trig/img/Stim/FN_020_g.png"",""time"":1028},{""stimulus"":""blank"",""time"":1339.8999999985099},{""stimulus"":""https://ziweizhang0304.github.io/Stats_learning_trig/img/Stim/FN_011_g.png"",""time"":1370.6999999955297},{""stimulus"":""blank"",""time"":1685.7999999970198},{""stimulus"":""https://ziweizhang0304.github.io/Stats_learning_trig/img/Stim/FN_018_g.png"",""time"":1700.8999999985099},{""stimulus"":""blank"",""time"":2015.1999999955297},{""stimulus"":""https://ziweizhang0304.github.io/Stats_learning_trig/img/Stim/FN_013_g.png"",""time"":2040.6000000014901},{""stimulus"":""blank"",""time"":2347.60000000149},{""stimulus"":""https://ziweizhang0304.github.io/Stats_learning_trig/img/Stim/FN_016_g.png"",""time"":2395},{""stimulus"":""blank"",""time"":2696.7999999970198},{""stimulus"":""https://ziweizhang0304.github.io/Stats_learning_trig/img/Stim/FN_007_g.png"",""time"":2728.89999999851},{""stimulus"":""blank"",""time"":3042.60000000149},{""stimulus"":""https://ziweizhang0304.github.io/Stats_learning_trig/img/Stim/FN_002_g.png"",""time"":3073},{""stimulus"":""blank"",""time"":3385.5},{""stimulus"":""https://ziweizhang0304.github.io/Stats_learning_trig/img/Stim/FN_010_g.png"",""time"":3400.89999999851},{""stimulus"":""blank"",""time"":3712.5},{""stimulus"":""https://ziweizhang0304.github.io/Stats_learning_trig/img/Stim/FN_025_g.png"",""time"":3741.5},{""stimulus"":""blank"",""time"":4055.60000000149},{""stimulus"":""https://ziweizhang0304.github.io/Stats_learning_trig/img/Stim/FN_006_g.png"",""time"":4081.10000000149},{""stimulus"":""blank"",""time"":4386.39999999851}]","[{""key_press"":32,""rt"":2053.7999999970198,""stimulus"":""https://ziweizhang0304.github.io/Stats_learning_trig/img/Stim/FN_013_g.png""}]","352.8999999985099","https://ziweizhang0304.github.io/Stats_learning_trig/img/Stim/FN_018_g.png","post_TD","19","1700.8999999985099","2053.7999999970198","slow","5","2","5f0e9896f5e4e11e12c8f5ac","","","","","",""
"","image-keyboard-response","51","167417","0.0-5.0-19.0-0.0","483.1000000014901","","","https://ziweizhang0304.github.io/Stats_learning_trig/img/Stim/FN_005_g.png","13","","","","","","","","","","","","","","","","","",""
"","animation","52","171843","0.0-5.0-19.0-1.0","","","","","","[{""stimulus"":""https://ziweizhang0304.github.io/Stats_learning_trig/img/Stim/FN_016_g.png"",""time"":341.1000000014901},{""stimulus"":""blank"",""time"":652.8999999985099},{""stimulus"":""https://ziweizhang0304.github.io/Stats_learning_trig/img/Stim/FN_025_g.png"",""time"":681.2000000029802},{""stimulus"":""blank"",""time"":982},{""stimulus"":""https://ziweizhang0304.github.io/Stats_learning_trig/img/Stim/FN_002_g.png"",""time"":1021.5},{""stimulus"":""blank"",""time"":1327.7999999970198},{""stimulus"":""https://ziweizhang0304.github.io/Stats_learning_trig/img/Stim/FN_006_g.png"",""time"":1375.6000000014901},{""stimulus"":""blank"",""time"":1687.8999999985099},{""stimulus"":""https://ziweizhang0304.github.io/Stats_learning_trig/img/Stim/FN_007_g.png"",""time"":1701},{""stimulus"":""blank"",""time"":2002.8999999985099},{""stimulus"":""https://ziweizhang0304.github.io/Stats_learning_trig/img/Stim/FN_008_g.png"",""time"":2050},{""stimulus"":""blank"",""time"":2365.60000000149},{""stimulus"":""https://ziweizhang0304.github.io/Stats_learning_trig/img/Stim/FN_012_g.png"",""time"":2382},{""stimulus"":""blank"",""time"":2693.39999999851},{""stimulus"":""https://ziweizhang0304.github.io/Stats_learning_trig/img/Stim/FN_005_g.png"",""time"":2725.7000000029802},{""stimulus"":""blank"",""time"":3026.7999999970198},{""stimulus"":""https://ziweizhang0304.github.io/Stats_learning_trig/img/Stim/FN_020_g.png"",""time"":3073.5},{""stimulus"":""blank"",""time"":3386.2999999970198},{""stimulus"":""https://ziweizhang0304.github.io/Stats_learning_trig/img/Stim/FN_010_g.png"",""time"":3401.60000000149},{""stimulus"":""blank"",""time"":3702},{""stimulus"":""https://ziweizhang0304.github.io/Stats_learning_trig/img/Stim/FN_009_g.png"",""time"":3749.2000000029802},{""stimulus"":""blank"",""time"":4061.5},{""stimulus"":""https://ziweizhang0304.github.io/Stats_learning_trig/img/Stim/FN_017_g.png"",""time"":4080.7999999970198},{""stimulus"":""blank"",""time"":4393.89999999851}]","[{""key_press"":32,""rt"":3042.7000000029802,""stimulus"":""blank""}]","317","https://ziweizhang0304.github.io/Stats_learning_trig/img/Stim/FN_005_g.png","post_TD","20","2725.7000000029802","3042.7000000029802","fast","8","3","5f0e9896f5e4e11e12c8f5ac","","","","","",""
"","image-keyboard-response","53","172299","0.0-5.0-20.0-0.0","455","","","https://ziweizhang0304.github.io/Stats_learning_trig/img/Stim/FN_012_g.png","13","","","","","","","","","","","","","","","","","",""
"","animation","54","176735","0.0-5.0-20.0-1.0","","","","","","[{""stimulus"":""https://ziweizhang0304.github.io/Stats_learning_trig/img/Stim/FN_017_g.png"",""time"":344.09999999403954},{""stimulus"":""blank"",""time"":645.7999999970198},{""stimulus"":""https://ziweizhang0304.github.io/Stats_learning_trig/img/Stim/FN_009_g.png"",""time"":693.1999999955297},{""stimulus"":""blank"",""time"":1007},{""stimulus"":""https://ziweizhang0304.github.io/Stats_learning_trig/img/Stim/FN_007_g.png"",""time"":1021.0999999940395},{""stimulus"":""blank"",""time"":1323.7999999970198},{""stimulus"":""https://ziweizhang0304.github.io/Stats_learning_trig/img/Stim/FN_025_g.png"",""time"":1371.1999999955297},{""stimulus"":""blank"",""time"":1686.2999999970198},{""stimulus"":""https://ziweizhang0304.github.io/Stats_learning_trig/img/Stim/FN_008_g.png"",""time"":1700.5999999940395},{""stimulus"":""blank"",""time"":2014.8999999985099},{""stimulus"":""https://ziweizhang0304.github.io/Stats_learning_trig/img/Stim/FN_012_g.png"",""time"":2041.0999999940395},{""stimulus"":""blank"",""time"":2348.6999999955297},{""stimulus"":""https://ziweizhang0304.github.io/Stats_learning_trig/img/Stim/FN_005_g.png"",""time"":2380.89999999851},{""stimulus"":""blank"",""time"":2693.6999999955297},{""stimulus"":""https://ziweizhang0304.github.io/Stats_learning_trig/img/Stim/FN_020_g.png"",""time"":2724.2999999970198},{""stimulus"":""blank"",""time"":3037.0999999940395},{""stimulus"":""https://ziweizhang0304.github.io/Stats_learning_trig/img/Stim/FN_016_g.png"",""time"":3068.5},{""stimulus"":""blank"",""time"":3382.5999999940395},{""stimulus"":""https://ziweizhang0304.github.io/Stats_learning_trig/img/Stim/FN_002_g.png"",""time"":3414},{""stimulus"":""blank"",""time"":3714.0999999940395},{""stimulus"":""https://ziweizhang0304.github.io/Stats_learning_trig/img/Stim/FN_010_g.png"",""time"":3744.89999999851},{""stimulus"":""blank"",""time"":4059.6999999955297},{""stimulus"":""https://ziweizhang0304.github.io/Stats_learning_trig/img/Stim/FN_006_g.png"",""time"":4081.0999999940395},{""stimulus"":""blank"",""time"":4388.69999999553}]","[{""key_press"":32,""rt"":2360.0999999940395,""stimulus"":""blank""}]","319","https://ziweizhang0304.github.io/Stats_learning_trig/img/Stim/FN_012_g.png","post_TD","21","2041.0999999940395","2360.0999999940395","fast","6","2","5f0e9896f5e4e11e12c8f5ac","","","","","",""
"","image-keyboard-response","55","177208","0.0-5.0-21.0-0.0","471.30000000447035","","","https://ziweizhang0304.github.io/Stats_learning_trig/img/Stim/FN_018_g.png","13","","","","","","","","","","","","","","","","","",""
"","animation","56","181630","0.0-5.0-21.0-1.0","","","","","","[{""stimulus"":""https://ziweizhang0304.github.io/Stats_learning_trig/img/Stim/FN_009_g.png"",""time"":355.5},{""stimulus"":""blank"",""time"":669.8999999985099},{""stimulus"":""https://ziweizhang0304.github.io/Stats_learning_trig/img/Stim/FN_025_g.png"",""time"":681.2000000029802},{""stimulus"":""blank"",""time"":985.7000000029802},{""stimulus"":""https://ziweizhang0304.github.io/Stats_learning_trig/img/Stim/FN_007_g.png"",""time"":1032.5},{""stimulus"":""blank"",""time"":1345.5},{""stimulus"":""https://ziweizhang0304.github.io/Stats_learning_trig/img/Stim/FN_002_g.png"",""time"":1360.6000000014901},{""stimulus"":""blank"",""time"":1662},{""stimulus"":""https://ziweizhang0304.github.io/Stats_learning_trig/img/Stim/FN_011_g.png"",""time"":1708},{""stimulus"":""blank"",""time"":2023.7999999970198},{""stimulus"":""https://ziweizhang0304.github.io/Stats_learning_trig/img/Stim/FN_018_g.png"",""time"":2041},{""stimulus"":""blank"",""time"":2357.10000000149},{""stimulus"":""https://ziweizhang0304.github.io/Stats_learning_trig/img/Stim/FN_013_g.png"",""time"":2388.89999999851},{""stimulus"":""blank"",""time"":2701.10000000149},{""stimulus"":""https://ziweizhang0304.github.io/Stats_learning_trig/img/Stim/FN_020_g.png"",""time"":2720.60000000149},{""stimulus"":""blank"",""time"":3032.39999999851},{""stimulus"":""https://ziweizhang0304.github.io/Stats_learning_trig/img/Stim/FN_016_g.png"",""time"":3063.5},{""stimulus"":""blank"",""time"":3377.2999999970198},{""stimulus"":""https://ziweizhang0304.github.io/Stats_learning_trig/img/Stim/FN_010_g.png"",""time"":3408.39999999851},{""stimulus"":""blank"",""time"":3719.2999999970198},{""stimulus"":""https://ziweizhang0304.github.io/Stats_learning_trig/img/Stim/FN_006_g.png"",""time"":3740.5},{""stimulus"":""blank"",""time"":4048.2999999970198},{""stimulus"":""https://ziweizhang0304.github.io/Stats_learning_trig/img/Stim/FN_017_g.png"",""time"":4094.10000000149},{""stimulus"":""blank"",""time"":4408}]","[{""key_press"":32,""rt"":2361.60000000149,""stimulus"":""blank""}]","320.6000000014901","https://ziweizhang0304.github.io/Stats_learning_trig/img/Stim/FN_018_g.png","post_TD","22","2041","2361.60000000149","slow","6","2","5f0e9896f5e4e11e12c8f5ac","","","","","",""
"","image-keyboard-response","57","182129","0.0-5.0-22.0-0.0","498.80000000447035","","","https://ziweizhang0304.github.io/Stats_learning_trig/img/Stim/FN_013_g.png","13","","","","","","","","","","","","","","","","","",""
"","animation","58","186551","0.0-5.0-22.0-1.0","","","","","","[{""stimulus"":""https://ziweizhang0304.github.io/Stats_learning_trig/img/Stim/FN_006_g.png"",""time"":346.1000000014901},{""stimulus"":""blank"",""time"":658.2999999970198},{""stimulus"":""https://ziweizhang0304.github.io/Stats_learning_trig/img/Stim/FN_020_g.png"",""time"":689.6999999955297},{""stimulus"":""blank"",""time"":1000.1999999955297},{""stimulus"":""https://ziweizhang0304.github.io/Stats_learning_trig/img/Stim/FN_007_g.png"",""time"":1020.5},{""stimulus"":""blank"",""time"":1326.6999999955297},{""stimulus"":""https://ziweizhang0304.github.io/Stats_learning_trig/img/Stim/FN_010_g.png"",""time"":1373.6999999955297},{""stimulus"":""blank"",""time"":1687.7999999970198},{""stimulus"":""https://ziweizhang0304.github.io/Stats_learning_trig/img/Stim/FN_017_g.png"",""time"":1702},{""stimulus"":""blank"",""time"":2017.2999999970198},{""stimulus"":""https://ziweizhang0304.github.io/Stats_learning_trig/img/Stim/FN_009_g.png"",""time"":2040.5},{""stimulus"":""blank"",""time"":2348.2999999970198},{""stimulus"":""https://ziweizhang0304.github.io/Stats_learning_trig/img/Stim/FN_011_g.png"",""time"":2380.39999999851},{""stimulus"":""blank"",""time"":2693.7999999970198},{""stimulus"":""https://ziweizhang0304.github.io/Stats_learning_trig/img/Stim/FN_018_g.png"",""time"":2721},{""stimulus"":""blank"",""time"":3036.60000000149},{""stimulus"":""https://ziweizhang0304.github.io/Stats_learning_trig/img/Stim/FN_013_g.png"",""time"":3060.7999999970198},{""stimulus"":""blank"",""time"":3364.60000000149},{""stimulus"":""https://ziweizhang0304.github.io/Stats_learning_trig/img/Stim/FN_016_g.png"",""time"":3410.5},{""stimulus"":""blank"",""time"":3722.60000000149},{""stimulus"":""https://ziweizhang0304.github.io/Stats_learning_trig/img/Stim/FN_002_g.png"",""time"":3741.6999999955297},{""stimulus"":""blank"",""time"":4052.39999999851},{""stimulus"":""https://ziweizhang0304.github.io/Stats_learning_trig/img/Stim/FN_025_g.png"",""time"":4083.39999999851},{""stimulus"":""blank"",""time"":4393.60000000149}]","[{""key_press"":32,""rt"":2993.2999999970198,""stimulus"":""https://ziweizhang0304.github.io/Stats_learning_trig/img/Stim/FN_018_g.png""},{""key_press"":32,""rt"":3377.5,""stimulus"":""blank""}]","316.70000000298023","https://ziweizhang0304.github.io/Stats_learning_trig/img/Stim/FN_013_g.png","post_TD","23","3060.7999999970198","3377.5","slow","9","3","5f0e9896f5e4e11e12c8f5ac","","","","","",""
"","image-keyboard-response","59","187116","0.0-5.0-23.0-0.0","563.7999999970198","","","https://ziweizhang0304.github.io/Stats_learning_trig/img/Stim/FN_012_g.png","13","","","","","","","","","","","","","","","","","",""
"","animation","60","191552","0.0-5.0-23.0-1.0","","","","","","[{""stimulus"":""https://ziweizhang0304.github.io/Stats_learning_trig/img/Stim/FN_016_g.png"",""time"":350},{""stimulus"":""blank"",""time"":660.8000000044703},{""stimulus"":""https://ziweizhang0304.github.io/Stats_learning_trig/img/Stim/FN_025_g.png"",""time"":681.1000000014901},{""stimulus"":""blank"",""time"":988.7000000029802},{""stimulus"":""https://ziweizhang0304.github.io/Stats_learning_trig/img/Stim/FN_002_g.png"",""time"":1021.3000000044703},{""stimulus"":""blank"",""time"":1332.8999999985099},{""stimulus"":""https://ziweizhang0304.github.io/Stats_learning_trig/img/Stim/FN_006_g.png"",""time"":1361.8999999985099},{""stimulus"":""blank"",""time"":1676.5},{""stimulus"":""https://ziweizhang0304.github.io/Stats_learning_trig/img/Stim/FN_007_g.png"",""time"":1708.6000000014901},{""stimulus"":""blank"",""time"":2023.6000000014901},{""stimulus"":""https://ziweizhang0304.github.io/Stats_learning_trig/img/Stim/FN_008_g.png"",""time"":2055.2000000029802},{""stimulus"":""blank"",""time"":2366.8000000044703},{""stimulus"":""https://ziweizhang0304.github.io/Stats_learning_trig/img/Stim/FN_012_g.png"",""time"":2381.10000000149},{""stimulus"":""blank"",""time"":2694.39999999851},{""stimulus"":""https://ziweizhang0304.github.io/Stats_learning_trig/img/Stim/FN_005_g.png"",""time"":2725.8000000044703},{""stimulus"":""blank"",""time"":3039.89999999851},{""stimulus"":""https://ziweizhang0304.github.io/Stats_learning_trig/img/Stim/FN_020_g.png"",""time"":3070},{""stimulus"":""blank"",""time"":3382.89999999851},{""stimulus"":""https://ziweizhang0304.github.io/Stats_learning_trig/img/Stim/FN_010_g.png"",""time"":3401.3000000044703},{""stimulus"":""blank"",""time"":3714.7000000029802},{""stimulus"":""https://ziweizhang0304.github.io/Stats_learning_trig/img/Stim/FN_009_g.png"",""time"":3746.89999999851},{""stimulus"":""blank"",""time"":4058.7000000029802},{""stimulus"":""https://ziweizhang0304.github.io/Stats_learning_trig/img/Stim/FN_017_g.png"",""time"":4081.2000000029802},{""stimulus"":""blank"",""time"":4389}]","[{""key_press"":32,""rt"":2665.60000000149,""stimulus"":""https://ziweizhang0304.github.io/Stats_learning_trig/img/Stim/FN_012_g.png""}]","284.5","https://ziweizhang0304.github.io/Stats_learning_trig/img/Stim/FN_012_g.png","post_TD","24","2381.10000000149","2665.60000000149","fast","7","2","5f0e9896f5e4e11e12c8f5ac","025ce","","","","",""
"","survey-text","61","214101","0.0-6.0","22537.69999999553","","","","","","","","","","","","","","","","","","{""Q0"":""I tried to remember the order that the shapes were in so I could be quicker. ""}","","","",""
"","survey-text","62","225833","0.0-7.0","11730.60000000149","","","","","","","","","","","","","","","","","","{""[object Object]"":""I noticed that the shapes stayed in the same order. ""}","","","",""
"","instructions","63","230999","0.0-8.0","5166.5999999940395","","[{""page_index"":0,""viewing_time"":5166.39999999851}]","","","","","","","","","","","","","","","","","","","",""
"","free-sort","64","251259","0.0-9.0","20259.29999999702","","","","","","","","","post_drag","","","","fast","","","","","","[{""src"":""https://ziweizhang0304.github.io/Stats_learning_trig/img/Stim/FN_008_g.png"",""x"":475,""y"":0},{""src"":""https://ziweizhang0304.github.io/Stats_learning_trig/img/Stim/FN_012_g.png"",""x"":-225,""y"":50},{""src"":""https://ziweizhang0304.github.io/Stats_learning_trig/img/Stim/FN_005_g.png"",""x"":475,""y"":50}]","[{""src"":""https://ziweizhang0304.github.io/Stats_learning_trig/img/Stim/FN_008_g.png"",""x"":34,""y"":15},{""src"":""https://ziweizhang0304.github.io/Stats_learning_trig/img/Stim/FN_012_g.png"",""x"":107,""y"":30},{""src"":""https://ziweizhang0304.github.io/Stats_learning_trig/img/Stim/FN_005_g.png"",""x"":206,""y"":28},{""src"":""https://ziweizhang0304.github.io/Stats_learning_trig/img/Stim/FN_012_g.png"",""x"":116,""y"":14},{""src"":""https://ziweizhang0304.github.io/Stats_learning_trig/img/Stim/FN_005_g.png"",""x"":205,""y"":17}]","[{""src"":""https://ziweizhang0304.github.io/Stats_learning_trig/img/Stim/FN_008_g.png"",""x"":34,""y"":15},{""src"":""https://ziweizhang0304.github.io/Stats_learning_trig/img/Stim/FN_012_g.png"",""x"":116,""y"":14},{""src"":""https://ziweizhang0304.github.io/Stats_learning_trig/img/Stim/FN_005_g.png"",""x"":205,""y"":17}]",""
"","free-sort","65","266435","0.0-10.0","15175.40000000596","","","","","","","","","post_drag","","","","slow","","","","","","[{""src"":""https://ziweizhang0304.github.io/Stats_learning_trig/img/Stim/FN_011_g.png"",""x"":475,""y"":0},{""src"":""https://ziweizhang0304.github.io/Stats_learning_trig/img/Stim/FN_018_g.png"",""x"":-225,""y"":50},{""src"":""https://ziweizhang0304.github.io/Stats_learning_trig/img/Stim/FN_013_g.png"",""x"":475,""y"":50}]","[{""src"":""https://ziweizhang0304.github.io/Stats_learning_trig/img/Stim/FN_018_g.png"",""x"":137,""y"":21},{""src"":""https://ziweizhang0304.github.io/Stats_learning_trig/img/Stim/FN_011_g.png"",""x"":46,""y"":15},{""src"":""https://ziweizhang0304.github.io/Stats_learning_trig/img/Stim/FN_013_g.png"",""x"":233,""y"":23}]","[{""src"":""https://ziweizhang0304.github.io/Stats_learning_trig/img/Stim/FN_011_g.png"",""x"":46,""y"":15},{""src"":""https://ziweizhang0304.github.io/Stats_learning_trig/img/Stim/FN_018_g.png"",""x"":137,""y"":21},{""src"":""https://ziweizhang0304.github.io/Stats_learning_trig/img/Stim/FN_013_g.png"",""x"":233,""y"":23}]",""
"","survey-multi-choice","66","288153","0.0-11.0","21715.60000000149","","","","","","","","","","","","","","","","5f0e9896f5e4e11e12c8f5ac","","{""awareness"":""Yes"",""attention_check"":""Press SPACEBAR to a target""}","","","","[0,1]"
