"success","trial_type","trial_index","time_elapsed","internal_node_id","rt","url","view_history","stimulus","key_press","animation_sequence","response","TD_rt","TD_target","test_part","TD_trial_number","onset","offset","attention_state","TD_target_position","TD_within_triplet_counter","participant","yoke_participant","responses","init_locations","moves","final_locations","question_order"
"true","fullscreen","0","5674","0.0-0.0","","","","","","","","","","","","","","","","","","","","","","",""
"","external-html","1","10420","0.0-1.0","4594.299999998882","https://ziweizhang0304.github.io/Stats_learning_trig/content/consent.html","","","","","","","","","","","","","","","","","","","","",""
"","instructions","2","24808","0.0-2.0","14386.400000000373","","[{""page_index"":0,""viewing_time"":1461},{""page_index"":1,""viewing_time"":5628},{""page_index"":2,""viewing_time"":5887.9000000003725},{""page_index"":3,""viewing_time"":1409}]","","","","","","","","","","","","","","","","","","","",""
"","image-keyboard-response","3","29056","0.0-3.0-0.0-0.0","4247.4000000003725","","","https://ziweizhang0304.github.io/Stats_learning_trig/img/Stim/FN_011_g.png","13","","","","","","","","","","","","","","","","","",""
"","animation","4","33478","0.0-3.0-0.0-1.0","","","","","","[{""stimulus"":""https://ziweizhang0304.github.io/Stats_learning_trig/img/Stim/FN_012_g.png"",""time"":345.2000000011176},{""stimulus"":""blank"",""time"":646.2000000011176},{""stimulus"":""https://ziweizhang0304.github.io/Stats_learning_trig/img/Stim/FN_022_g.png"",""time"":681.5},{""stimulus"":""blank"",""time"":994.3000000007451},{""stimulus"":""https://ziweizhang0304.github.io/Stats_learning_trig/img/Stim/FN_007_g.png"",""time"":1021.5999999996275},{""stimulus"":""blank"",""time"":1323},{""stimulus"":""https://ziweizhang0304.github.io/Stats_learning_trig/img/Stim/FN_011_g.png"",""time"":1370.800000000745},{""stimulus"":""blank"",""time"":1683.2000000011176},{""stimulus"":""https://ziweizhang0304.github.io/Stats_learning_trig/img/Stim/FN_026_g.png"",""time"":1701.4000000003725},{""stimulus"":""blank"",""time"":2011.7000000011176},{""stimulus"":""https://ziweizhang0304.github.io/Stats_learning_trig/img/Stim/FN_017_g.png"",""time"":2041.0999999996275},{""stimulus"":""blank"",""time"":2342.800000000745},{""stimulus"":""https://ziweizhang0304.github.io/Stats_learning_trig/img/Stim/FN_024_g.png"",""time"":2380.5999999996275},{""stimulus"":""blank"",""time"":2683.2000000011176},{""stimulus"":""https://ziweizhang0304.github.io/Stats_learning_trig/img/Stim/FN_006_g.png"",""time"":2721.2000000011176},{""stimulus"":""blank"",""time"":3028.800000000745},{""stimulus"":""https://ziweizhang0304.github.io/Stats_learning_trig/img/Stim/FN_008_g.png"",""time"":3061},{""stimulus"":""blank"",""time"":3372.2000000011176},{""stimulus"":""https://ziweizhang0304.github.io/Stats_learning_trig/img/Stim/FN_002_g.png"",""time"":3400.800000000745},{""stimulus"":""blank"",""time"":3704.4000000003725},{""stimulus"":""https://ziweizhang0304.github.io/Stats_learning_trig/img/Stim/FN_014_g.png"",""time"":3741.300000000745},{""stimulus"":""blank"",""time"":4047.800000000745},{""stimulus"":""https://ziweizhang0304.github.io/Stats_learning_trig/img/Stim/FN_005_g.png"",""time"":4081.5},{""stimulus"":""blank"",""time"":4390}]","[{""key_press"":32,""rt"":1769.7999999988824,""stimulus"":""https://ziweizhang0304.github.io/Stats_learning_trig/img/Stim/FN_026_g.png""}]","398.99999999813735","https://ziweizhang0304.github.io/Stats_learning_trig/img/Stim/FN_011_g.png","post_prac","","","","","","","","","","","","",""
"","html-keyboard-response","5","39153","0.0-3.0-0.0-2.0","5672.700000001118","","","<p>Your reaction time for this trial was 399 ms.</p><p>Remember that you should only press the SPACEBAR when you see the shape presented at the beginning of the trial. </b> </p><p>Press enter to move on.</p>","13","","","","","","","","","","","","","","","","","",""
"","image-keyboard-response","6","41008","0.0-3.0-1.0-0.0","1853.7999999988824","","","https://ziweizhang0304.github.io/Stats_learning_trig/img/Stim/FN_011_g.png","13","","","","","","","","","","","","","","","","","",""
"","animation","7","45429","0.0-3.0-1.0-1.0","","","","","","[{""stimulus"":""https://ziweizhang0304.github.io/Stats_learning_trig/img/Stim/FN_022_g.png"",""time"":341.59999999962747},{""stimulus"":""blank"",""time"":652.4000000003725},{""stimulus"":""https://ziweizhang0304.github.io/Stats_learning_trig/img/Stim/FN_024_g.png"",""time"":683.1999999992549},{""stimulus"":""blank"",""time"":990},{""stimulus"":""https://ziweizhang0304.github.io/Stats_learning_trig/img/Stim/FN_007_g.png"",""time"":1021.4000000003725},{""stimulus"":""blank"",""time"":1330.9000000003725},{""stimulus"":""https://ziweizhang0304.github.io/Stats_learning_trig/img/Stim/FN_017_g.png"",""time"":1362.0999999996275},{""stimulus"":""blank"",""time"":1673.199999999255},{""stimulus"":""https://ziweizhang0304.github.io/Stats_learning_trig/img/Stim/FN_012_g.png"",""time"":1701},{""stimulus"":""blank"",""time"":2016.7999999988824},{""stimulus"":""https://ziweizhang0304.github.io/Stats_learning_trig/img/Stim/FN_002_g.png"",""time"":2041.0999999996275},{""stimulus"":""blank"",""time"":2344},{""stimulus"":""https://ziweizhang0304.github.io/Stats_learning_trig/img/Stim/FN_008_g.png"",""time"":2390.7999999988824},{""stimulus"":""blank"",""time"":2702.7999999988824},{""stimulus"":""https://ziweizhang0304.github.io/Stats_learning_trig/img/Stim/FN_011_g.png"",""time"":2721},{""stimulus"":""blank"",""time"":3026.2999999988824},{""stimulus"":""https://ziweizhang0304.github.io/Stats_learning_trig/img/Stim/FN_006_g.png"",""time"":3060.699999999255},{""stimulus"":""blank"",""time"":3361.699999999255},{""stimulus"":""https://ziweizhang0304.github.io/Stats_learning_trig/img/Stim/FN_005_g.png"",""time"":3401.2999999988824},{""stimulus"":""blank"",""time"":3712.7999999988824},{""stimulus"":""https://ziweizhang0304.github.io/Stats_learning_trig/img/Stim/FN_014_g.png"",""time"":3740.7999999988824},{""stimulus"":""blank"",""time"":4042.0999999996275},{""stimulus"":""https://ziweizhang0304.github.io/Stats_learning_trig/img/Stim/FN_026_g.png"",""time"":4089.0999999996275},{""stimulus"":""blank"",""time"":4403.699999999255}]","[{""key_press"":32,""rt"":3092.5999999996275,""stimulus"":""https://ziweizhang0304.github.io/Stats_learning_trig/img/Stim/FN_006_g.png""}]","371.59999999962747","https://ziweizhang0304.github.io/Stats_learning_trig/img/Stim/FN_011_g.png","post_prac","","","","","","","","","","","","",""
"","html-keyboard-response","8","48908","0.0-3.0-1.0-2.0","3477.699999999255","","","<p>Your reaction time for this trial was 371.6 ms.</p><p>Remember that you should only press the SPACEBAR when you see the shape presented at the beginning of the trial. </b> </p><p>Press enter to move on.</p>","13","","","","","","","","","","","","","","","","","",""
"","image-keyboard-response","9","50359","0.0-3.0-2.0-0.0","1450.699999999255","","","https://ziweizhang0304.github.io/Stats_learning_trig/img/Stim/FN_009_g.png","13","","","","","","","","","","","","","","","","","",""
"","animation","10","54780","0.0-3.0-2.0-1.0","","","","","","[{""stimulus"":""https://ziweizhang0304.github.io/Stats_learning_trig/img/Stim/FN_006_g.png"",""time"":349},{""stimulus"":""blank"",""time"":662.4000000003725},{""stimulus"":""https://ziweizhang0304.github.io/Stats_learning_trig/img/Stim/FN_022_g.png"",""time"":681.5},{""stimulus"":""blank"",""time"":988.6000000014901},{""stimulus"":""https://ziweizhang0304.github.io/Stats_learning_trig/img/Stim/FN_005_g.png"",""time"":1021.6000000014901},{""stimulus"":""blank"",""time"":1332.7000000011176},{""stimulus"":""https://ziweizhang0304.github.io/Stats_learning_trig/img/Stim/FN_014_g.png"",""time"":1365.7000000011176},{""stimulus"":""blank"",""time"":1676.4000000003725},{""stimulus"":""https://ziweizhang0304.github.io/Stats_learning_trig/img/Stim/FN_018_g.png"",""time"":1702},{""stimulus"":""blank"",""time"":2004.2000000011176},{""stimulus"":""https://ziweizhang0304.github.io/Stats_learning_trig/img/Stim/FN_009_g.png"",""time"":2050.800000000745},{""stimulus"":""blank"",""time"":2363.9000000003725},{""stimulus"":""https://ziweizhang0304.github.io/Stats_learning_trig/img/Stim/FN_021_g.png"",""time"":2380.60000000149},{""stimulus"":""blank"",""time"":2689.2000000011176},{""stimulus"":""https://ziweizhang0304.github.io/Stats_learning_trig/img/Stim/FN_012_g.png"",""time"":2721.4000000003725},{""stimulus"":""blank"",""time"":3031.5},{""stimulus"":""https://ziweizhang0304.github.io/Stats_learning_trig/img/Stim/FN_017_g.png"",""time"":3061.60000000149},{""stimulus"":""blank"",""time"":3373.9000000003725},{""stimulus"":""https://ziweizhang0304.github.io/Stats_learning_trig/img/Stim/FN_007_g.png"",""time"":3401.4000000003725},{""stimulus"":""blank"",""time"":3715.9000000003725},{""stimulus"":""https://ziweizhang0304.github.io/Stats_learning_trig/img/Stim/FN_026_g.png"",""time"":3740.5},{""stimulus"":""blank"",""time"":4042.10000000149},{""stimulus"":""https://ziweizhang0304.github.io/Stats_learning_trig/img/Stim/FN_024_g.png"",""time"":4080.800000000745},{""stimulus"":""blank"",""time"":4385.9000000003725}]","[{""key_press"":32,""rt"":2496.199999999255,""stimulus"":""https://ziweizhang0304.github.io/Stats_learning_trig/img/Stim/FN_021_g.png""}]","445.3999999985099","https://ziweizhang0304.github.io/Stats_learning_trig/img/Stim/FN_009_g.png","post_prac","","","","","","","","","","","","",""
"","html-keyboard-response","11","56542","0.0-3.0-2.0-2.0","1760.5999999996275","","","<p>Your reaction time for this trial was 445.4 ms.</p><p>Remember that you should only press the SPACEBAR when you see the shape presented at the beginning of the trial. </b> </p><p>Press enter to move on.</p>","13","","","","","","","","","","","","","","","","","",""
"","instructions","12","58097","0.0-4.0","1554.9000000003725","","[{""page_index"":0,""viewing_time"":1554.5999999996275}]","","","","","","","","","","","","","","","","","","","",""
"","image-keyboard-response","13","60625","0.0-5.0-0.0-0.0","2528","","","https://ziweizhang0304.github.io/Stats_learning_trig/img/Stim/FN_011_g.png","13","","","","","","","","","","","","","","","","","",""
"","animation","14","65047","0.0-5.0-0.0-1.0","","","","","","[{""stimulus"":""https://ziweizhang0304.github.io/Stats_learning_trig/img/Stim/FN_007_g.png"",""time"":353.40000000037253},{""stimulus"":""blank"",""time"":668.9000000003725},{""stimulus"":""https://ziweizhang0304.github.io/Stats_learning_trig/img/Stim/FN_026_g.png"",""time"":680.7000000011176},{""stimulus"":""blank"",""time"":981.9000000003725},{""stimulus"":""https://ziweizhang0304.github.io/Stats_learning_trig/img/Stim/FN_014_g.png"",""time"":1021.2000000011176},{""stimulus"":""blank"",""time"":1324},{""stimulus"":""https://ziweizhang0304.github.io/Stats_learning_trig/img/Stim/FN_012_g.png"",""time"":1372.2000000011176},{""stimulus"":""blank"",""time"":1685.5},{""stimulus"":""https://ziweizhang0304.github.io/Stats_learning_trig/img/Stim/FN_002_g.png"",""time"":1701.0999999996275},{""stimulus"":""blank"",""time"":2014.0999999996275},{""stimulus"":""https://ziweizhang0304.github.io/Stats_learning_trig/img/Stim/FN_008_g.png"",""time"":2040.7000000011176},{""stimulus"":""blank"",""time"":2346},{""stimulus"":""https://ziweizhang0304.github.io/Stats_learning_trig/img/Stim/FN_011_g.png"",""time"":2381},{""stimulus"":""blank"",""time"":2690.5},{""stimulus"":""https://ziweizhang0304.github.io/Stats_learning_trig/img/Stim/FN_022_g.png"",""time"":2721.4000000003725},{""stimulus"":""blank"",""time"":3021.7000000011176},{""stimulus"":""https://ziweizhang0304.github.io/Stats_learning_trig/img/Stim/FN_006_g.png"",""time"":3062},{""stimulus"":""blank"",""time"":3364.2000000011176},{""stimulus"":""https://ziweizhang0304.github.io/Stats_learning_trig/img/Stim/FN_005_g.png"",""time"":3401},{""stimulus"":""blank"",""time"":3707.2000000011176},{""stimulus"":""https://ziweizhang0304.github.io/Stats_learning_trig/img/Stim/FN_017_g.png"",""time"":3740.7000000011176},{""stimulus"":""blank"",""time"":4050.300000000745},{""stimulus"":""https://ziweizhang0304.github.io/Stats_learning_trig/img/Stim/FN_024_g.png"",""time"":4081.4000000003725},{""stimulus"":""blank"",""time"":4395.700000001118}]","[{""key_press"":32,""rt"":2793.300000000745,""stimulus"":""https://ziweizhang0304.github.io/Stats_learning_trig/img/Stim/FN_022_g.png""}]","412.30000000074506","https://ziweizhang0304.github.io/Stats_learning_trig/img/Stim/FN_011_g.png","post_TD","1","2381","2793.300000000745","slow","7","3","5dddd95d238a91d4fa1a8cf6","","","","","",""
"","image-keyboard-response","15","66957","0.0-5.0-1.0-0.0","1908.199999999255","","","https://ziweizhang0304.github.io/Stats_learning_trig/img/Stim/FN_002_g.png","13","","","","","","","","","","","","","","","","","",""
"","animation","16","71378","0.0-5.0-1.0-1.0","","","","","","[{""stimulus"":""https://ziweizhang0304.github.io/Stats_learning_trig/img/Stim/FN_022_g.png"",""time"":342.19999999925494},{""stimulus"":""blank"",""time"":643.4000000003725},{""stimulus"":""https://ziweizhang0304.github.io/Stats_learning_trig/img/Stim/FN_024_g.png"",""time"":681},{""stimulus"":""blank"",""time"":981.4000000003725},{""stimulus"":""https://ziweizhang0304.github.io/Stats_learning_trig/img/Stim/FN_007_g.png"",""time"":1020.6999999992549},{""stimulus"":""blank"",""time"":1321},{""stimulus"":""https://ziweizhang0304.github.io/Stats_learning_trig/img/Stim/FN_017_g.png"",""time"":1372.4000000003725},{""stimulus"":""blank"",""time"":1672.5999999996275},{""stimulus"":""https://ziweizhang0304.github.io/Stats_learning_trig/img/Stim/FN_012_g.png"",""time"":1701.5999999996275},{""stimulus"":""blank"",""time"":2011.300000000745},{""stimulus"":""https://ziweizhang0304.github.io/Stats_learning_trig/img/Stim/FN_002_g.png"",""time"":2041},{""stimulus"":""blank"",""time"":2356.800000000745},{""stimulus"":""https://ziweizhang0304.github.io/Stats_learning_trig/img/Stim/FN_008_g.png"",""time"":2381.0999999996275},{""stimulus"":""blank"",""time"":2681.300000000745},{""stimulus"":""https://ziweizhang0304.github.io/Stats_learning_trig/img/Stim/FN_011_g.png"",""time"":2721.300000000745},{""stimulus"":""blank"",""time"":3030.800000000745},{""stimulus"":""https://ziweizhang0304.github.io/Stats_learning_trig/img/Stim/FN_006_g.png"",""time"":3061.5999999996275},{""stimulus"":""blank"",""time"":3371.699999999255},{""stimulus"":""https://ziweizhang0304.github.io/Stats_learning_trig/img/Stim/FN_005_g.png"",""time"":3403},{""stimulus"":""blank"",""time"":3713.300000000745},{""stimulus"":""https://ziweizhang0304.github.io/Stats_learning_trig/img/Stim/FN_014_g.png"",""time"":3741.4000000003725},{""stimulus"":""blank"",""time"":4042.199999999255},{""stimulus"":""https://ziweizhang0304.github.io/Stats_learning_trig/img/Stim/FN_026_g.png"",""time"":4080.5},{""stimulus"":""blank"",""time"":4387.199999999255}]","[{""key_press"":32,""rt"":2404.5,""stimulus"":""https://ziweizhang0304.github.io/Stats_learning_trig/img/Stim/FN_008_g.png""}]","363.5","https://ziweizhang0304.github.io/Stats_learning_trig/img/Stim/FN_002_g.png","post_TD","2","2041","2404.5","slow","6","1","5dddd95d238a91d4fa1a8cf6","","","","","",""
"","image-keyboard-response","17","72502","0.0-5.0-2.0-0.0","1122.9000000003725","","","https://ziweizhang0304.github.io/Stats_learning_trig/img/Stim/FN_011_g.png","13","","","","","","","","","","","","","","","","","",""
"","animation","18","76924","0.0-5.0-2.0-1.0","","","","","","[{""stimulus"":""https://ziweizhang0304.github.io/Stats_learning_trig/img/Stim/FN_007_g.png"",""time"":351.5},{""stimulus"":""blank"",""time"":663.1999999992549},{""stimulus"":""https://ziweizhang0304.github.io/Stats_learning_trig/img/Stim/FN_026_g.png"",""time"":680.3999999985099},{""stimulus"":""blank"",""time"":981.2999999988824},{""stimulus"":""https://ziweizhang0304.github.io/Stats_learning_trig/img/Stim/FN_014_g.png"",""time"":1022.0999999996275},{""stimulus"":""blank"",""time"":1335},{""stimulus"":""https://ziweizhang0304.github.io/Stats_learning_trig/img/Stim/FN_002_g.png"",""time"":1361.0999999996275},{""stimulus"":""blank"",""time"":1663.8999999985099},{""stimulus"":""https://ziweizhang0304.github.io/Stats_learning_trig/img/Stim/FN_008_g.png"",""time"":1710.5999999996275},{""stimulus"":""blank"",""time"":2019},{""stimulus"":""https://ziweizhang0304.github.io/Stats_learning_trig/img/Stim/FN_011_g.png"",""time"":2041},{""stimulus"":""blank"",""time"":2341.699999999255},{""stimulus"":""https://ziweizhang0304.github.io/Stats_learning_trig/img/Stim/FN_012_g.png"",""time"":2381.0999999996275},{""stimulus"":""blank"",""time"":2687.2999999988824},{""stimulus"":""https://ziweizhang0304.github.io/Stats_learning_trig/img/Stim/FN_022_g.png"",""time"":2721.0999999996275},{""stimulus"":""blank"",""time"":3030.89999999851},{""stimulus"":""https://ziweizhang0304.github.io/Stats_learning_trig/img/Stim/FN_006_g.png"",""time"":3061.199999999255},{""stimulus"":""blank"",""time"":3374.199999999255},{""stimulus"":""https://ziweizhang0304.github.io/Stats_learning_trig/img/Stim/FN_005_g.png"",""time"":3400.5},{""stimulus"":""blank"",""time"":3703.39999999851},{""stimulus"":""https://ziweizhang0304.github.io/Stats_learning_trig/img/Stim/FN_017_g.png"",""time"":3751.7999999988824},{""stimulus"":""blank"",""time"":4052.699999999255},{""stimulus"":""https://ziweizhang0304.github.io/Stats_learning_trig/img/Stim/FN_024_g.png"",""time"":4082.5},{""stimulus"":""blank"",""time"":4393.89999999851}]","[{""key_press"":32,""rt"":2412.0999999996275,""stimulus"":""https://ziweizhang0304.github.io/Stats_learning_trig/img/Stim/FN_012_g.png""}]","371.09999999962747","https://ziweizhang0304.github.io/Stats_learning_trig/img/Stim/FN_011_g.png","post_TD","3","2041","2412.0999999996275","slow","6","3","5dddd95d238a91d4fa1a8cf6","","","","","",""
"","image-keyboard-response","19","78113","0.0-5.0-3.0-0.0","1187.9000000003725","","","https://ziweizhang0304.github.io/Stats_learning_trig/img/Stim/FN_018_g.png","13","","","","","","","","","","","","","","","","","",""
"","animation","20","82533","0.0-5.0-3.0-1.0","","","","","","[{""stimulus"":""https://ziweizhang0304.github.io/Stats_learning_trig/img/Stim/FN_007_g.png"",""time"":342.59999999962747},{""stimulus"":""blank"",""time"":651.1999999992549},{""stimulus"":""https://ziweizhang0304.github.io/Stats_learning_trig/img/Stim/FN_024_g.png"",""time"":681.1999999992549},{""stimulus"":""blank"",""time"":993.5},{""stimulus"":""https://ziweizhang0304.github.io/Stats_learning_trig/img/Stim/FN_014_g.png"",""time"":1021.2999999988824},{""stimulus"":""blank"",""time"":1336.9000000003725},{""stimulus"":""https://ziweizhang0304.github.io/Stats_learning_trig/img/Stim/FN_018_g.png"",""time"":1361.199999999255},{""stimulus"":""blank"",""time"":1666},{""stimulus"":""https://ziweizhang0304.github.io/Stats_learning_trig/img/Stim/FN_009_g.png"",""time"":1701.0999999996275},{""stimulus"":""blank"",""time"":2009.699999999255},{""stimulus"":""https://ziweizhang0304.github.io/Stats_learning_trig/img/Stim/FN_021_g.png"",""time"":2042.2999999988824},{""stimulus"":""blank"",""time"":2357.199999999255},{""stimulus"":""https://ziweizhang0304.github.io/Stats_learning_trig/img/Stim/FN_012_g.png"",""time"":2381.4000000003725},{""stimulus"":""blank"",""time"":2686.4000000003725},{""stimulus"":""https://ziweizhang0304.github.io/Stats_learning_trig/img/Stim/FN_022_g.png"",""time"":2720.699999999255},{""stimulus"":""blank"",""time"":3029.9000000003725},{""stimulus"":""https://ziweizhang0304.github.io/Stats_learning_trig/img/Stim/FN_006_g.png"",""time"":3061.5},{""stimulus"":""blank"",""time"":3373},{""stimulus"":""https://ziweizhang0304.github.io/Stats_learning_trig/img/Stim/FN_005_g.png"",""time"":3401.0999999996275},{""stimulus"":""blank"",""time"":3715.699999999255},{""stimulus"":""https://ziweizhang0304.github.io/Stats_learning_trig/img/Stim/FN_017_g.png"",""time"":3747.9000000003725},{""stimulus"":""blank"",""time"":4058.5999999996275},{""stimulus"":""https://ziweizhang0304.github.io/Stats_learning_trig/img/Stim/FN_026_g.png"",""time"":4081.4000000003725},{""stimulus"":""blank"",""time"":4388.5}]","[{""key_press"":32,""rt"":1794.800000000745,""stimulus"":""https://ziweizhang0304.github.io/Stats_learning_trig/img/Stim/FN_009_g.png""}]","433.6000000014901","https://ziweizhang0304.github.io/Stats_learning_trig/img/Stim/FN_018_g.png","post_TD","4","1361.199999999255","1794.800000000745","fast","4","1","5dddd95d238a91d4fa1a8cf6","","","","","",""
"","image-keyboard-response","21","83727","0.0-5.0-4.0-0.0","1192.6000000014901","","","https://ziweizhang0304.github.io/Stats_learning_trig/img/Stim/FN_008_g.png","13","","","","","","","","","","","","","","","","","",""
"","animation","22","88159","0.0-5.0-4.0-1.0","","","","","","[{""stimulus"":""https://ziweizhang0304.github.io/Stats_learning_trig/img/Stim/FN_022_g.png"",""time"":352.69999999925494},{""stimulus"":""blank"",""time"":662.6999999992549},{""stimulus"":""https://ziweizhang0304.github.io/Stats_learning_trig/img/Stim/FN_024_g.png"",""time"":681},{""stimulus"":""blank"",""time"":992.5999999996275},{""stimulus"":""https://ziweizhang0304.github.io/Stats_learning_trig/img/Stim/FN_007_g.png"",""time"":1020.7999999988824},{""stimulus"":""blank"",""time"":1323.0999999996275},{""stimulus"":""https://ziweizhang0304.github.io/Stats_learning_trig/img/Stim/FN_017_g.png"",""time"":1370.5},{""stimulus"":""blank"",""time"":1679.699999999255},{""stimulus"":""https://ziweizhang0304.github.io/Stats_learning_trig/img/Stim/FN_012_g.png"",""time"":1701},{""stimulus"":""blank"",""time"":2006.5},{""stimulus"":""https://ziweizhang0304.github.io/Stats_learning_trig/img/Stim/FN_002_g.png"",""time"":2053.9000000003725},{""stimulus"":""blank"",""time"":2364.9000000003725},{""stimulus"":""https://ziweizhang0304.github.io/Stats_learning_trig/img/Stim/FN_008_g.png"",""time"":2381.199999999255},{""stimulus"":""blank"",""time"":2694.699999999255},{""stimulus"":""https://ziweizhang0304.github.io/Stats_learning_trig/img/Stim/FN_011_g.png"",""time"":2721.9000000003725},{""stimulus"":""blank"",""time"":3023.5999999996275},{""stimulus"":""https://ziweizhang0304.github.io/Stats_learning_trig/img/Stim/FN_006_g.png"",""time"":3071.7999999988824},{""stimulus"":""blank"",""time"":3386},{""stimulus"":""https://ziweizhang0304.github.io/Stats_learning_trig/img/Stim/FN_005_g.png"",""time"":3401.199999999255},{""stimulus"":""blank"",""time"":3715.7999999988824},{""stimulus"":""https://ziweizhang0304.github.io/Stats_learning_trig/img/Stim/FN_014_g.png"",""time"":3740.7999999988824},{""stimulus"":""blank"",""time"":4041.7999999988824},{""stimulus"":""https://ziweizhang0304.github.io/Stats_learning_trig/img/Stim/FN_026_g.png"",""time"":4080.699999999255},{""stimulus"":""blank"",""time"":4385.5999999996275}]","[{""key_press"":32,""rt"":2762.0999999996275,""stimulus"":""https://ziweizhang0304.github.io/Stats_learning_trig/img/Stim/FN_011_g.png""}]","380.90000000037253","https://ziweizhang0304.github.io/Stats_learning_trig/img/Stim/FN_008_g.png","post_TD","5","2381.199999999255","2762.0999999996275","slow","7","2","5dddd95d238a91d4fa1a8cf6","","","","","",""
"","image-keyboard-response","23","89175","0.0-5.0-5.0-0.0","1014.8000000007451","","","https://ziweizhang0304.github.io/Stats_learning_trig/img/Stim/FN_011_g.png","13","","","","","","","","","","","","","","","","","",""
"","animation","24","93596","0.0-5.0-5.0-1.0","","","","","","[{""stimulus"":""https://ziweizhang0304.github.io/Stats_learning_trig/img/Stim/FN_022_g.png"",""time"":348.09999999962747},{""stimulus"":""blank"",""time"":659.5999999996275},{""stimulus"":""https://ziweizhang0304.github.io/Stats_learning_trig/img/Stim/FN_024_g.png"",""time"":680.8000000007451},{""stimulus"":""blank"",""time"":988.0999999996275},{""stimulus"":""https://ziweizhang0304.github.io/Stats_learning_trig/img/Stim/FN_007_g.png"",""time"":1021.1999999992549},{""stimulus"":""blank"",""time"":1333},{""stimulus"":""https://ziweizhang0304.github.io/Stats_learning_trig/img/Stim/FN_017_g.png"",""time"":1364.4000000003725},{""stimulus"":""blank"",""time"":1675.300000000745},{""stimulus"":""https://ziweizhang0304.github.io/Stats_learning_trig/img/Stim/FN_012_g.png"",""time"":1700.5},{""stimulus"":""blank"",""time"":2002},{""stimulus"":""https://ziweizhang0304.github.io/Stats_learning_trig/img/Stim/FN_002_g.png"",""time"":2050.4000000003725},{""stimulus"":""blank"",""time"":2365.4000000003725},{""stimulus"":""https://ziweizhang0304.github.io/Stats_learning_trig/img/Stim/FN_008_g.png"",""time"":2380.699999999255},{""stimulus"":""blank"",""time"":2693.0999999996275},{""stimulus"":""https://ziweizhang0304.github.io/Stats_learning_trig/img/Stim/FN_011_g.png"",""time"":2721.300000000745},{""stimulus"":""blank"",""time"":3023.800000000745},{""stimulus"":""https://ziweizhang0304.github.io/Stats_learning_trig/img/Stim/FN_006_g.png"",""time"":3071.199999999255},{""stimulus"":""blank"",""time"":3382.699999999255},{""stimulus"":""https://ziweizhang0304.github.io/Stats_learning_trig/img/Stim/FN_005_g.png"",""time"":3400.9000000003725},{""stimulus"":""blank"",""time"":3716},{""stimulus"":""https://ziweizhang0304.github.io/Stats_learning_trig/img/Stim/FN_014_g.png"",""time"":3740.4000000003725},{""stimulus"":""blank"",""time"":4046.0999999996275},{""stimulus"":""https://ziweizhang0304.github.io/Stats_learning_trig/img/Stim/FN_026_g.png"",""time"":4081.199999999255},{""stimulus"":""blank"",""time"":4389.9000000003725}]","[{""key_press"":32,""rt"":3058.5,""stimulus"":""blank""}]","337.19999999925494","https://ziweizhang0304.github.io/Stats_learning_trig/img/Stim/FN_011_g.png","post_TD","6","2721.300000000745","3058.5","slow","8","3","5dddd95d238a91d4fa1a8cf6","","","","","",""
"","image-keyboard-response","25","94781","0.0-5.0-6.0-0.0","1184.199999999255","","","https://ziweizhang0304.github.io/Stats_learning_trig/img/Stim/FN_002_g.png","13","","","","","","","","","","","","","","","","","",""
"","animation","26","99202","0.0-5.0-6.0-1.0","","","","","","[{""stimulus"":""https://ziweizhang0304.github.io/Stats_learning_trig/img/Stim/FN_007_g.png"",""time"":349.90000000037253},{""stimulus"":""blank"",""time"":663.6999999992549},{""stimulus"":""https://ziweizhang0304.github.io/Stats_learning_trig/img/Stim/FN_026_g.png"",""time"":680.7999999988824},{""stimulus"":""blank"",""time"":991.6999999992549},{""stimulus"":""https://ziweizhang0304.github.io/Stats_learning_trig/img/Stim/FN_014_g.png"",""time"":1021.5},{""stimulus"":""blank"",""time"":1333},{""stimulus"":""https://ziweizhang0304.github.io/Stats_learning_trig/img/Stim/FN_002_g.png"",""time"":1361.0999999996275},{""stimulus"":""blank"",""time"":1676.699999999255},{""stimulus"":""https://ziweizhang0304.github.io/Stats_learning_trig/img/Stim/FN_008_g.png"",""time"":1708.9000000003725},{""stimulus"":""blank"",""time"":2019.2999999988824},{""stimulus"":""https://ziweizhang0304.github.io/Stats_learning_trig/img/Stim/FN_011_g.png"",""time"":2041.4000000003725},{""stimulus"":""blank"",""time"":2346.5999999996275},{""stimulus"":""https://ziweizhang0304.github.io/Stats_learning_trig/img/Stim/FN_012_g.png"",""time"":2382.4000000003725},{""stimulus"":""blank"",""time"":2689.5},{""stimulus"":""https://ziweizhang0304.github.io/Stats_learning_trig/img/Stim/FN_022_g.png"",""time"":2720.7999999988824},{""stimulus"":""blank"",""time"":3034.5},{""stimulus"":""https://ziweizhang0304.github.io/Stats_learning_trig/img/Stim/FN_006_g.png"",""time"":3061.699999999255},{""stimulus"":""blank"",""time"":3364.699999999255},{""stimulus"":""https://ziweizhang0304.github.io/Stats_learning_trig/img/Stim/FN_005_g.png"",""time"":3411.7999999988824},{""stimulus"":""blank"",""time"":3721.7999999988824},{""stimulus"":""https://ziweizhang0304.github.io/Stats_learning_trig/img/Stim/FN_017_g.png"",""time"":3740.7999999988824},{""stimulus"":""blank"",""time"":4052.9000000003725},{""stimulus"":""https://ziweizhang0304.github.io/Stats_learning_trig/img/Stim/FN_024_g.png"",""time"":4081},{""stimulus"":""blank"",""time"":4389}]","[{""key_press"":32,""rt"":1830,""stimulus"":""https://ziweizhang0304.github.io/Stats_learning_trig/img/Stim/FN_008_g.png""}]","468.90000000037253","https://ziweizhang0304.github.io/Stats_learning_trig/img/Stim/FN_002_g.png","post_TD","7","1361.0999999996275","1830","slow","4","1","5dddd95d238a91d4fa1a8cf6","","","","","",""
"","image-keyboard-response","27","100599","0.0-5.0-7.0-0.0","1395.5999999996275","","","https://ziweizhang0304.github.io/Stats_learning_trig/img/Stim/FN_018_g.png","13","","","","","","","","","","","","","","","","","",""
"","animation","28","105020","0.0-5.0-7.0-1.0","","","","","","[{""stimulus"":""https://ziweizhang0304.github.io/Stats_learning_trig/img/Stim/FN_026_g.png"",""time"":349.90000000037253},{""stimulus"":""blank"",""time"":663.5999999996275},{""stimulus"":""https://ziweizhang0304.github.io/Stats_learning_trig/img/Stim/FN_005_g.png"",""time"":680.6999999992549},{""stimulus"":""blank"",""time"":981.5999999996275},{""stimulus"":""https://ziweizhang0304.github.io/Stats_learning_trig/img/Stim/FN_024_g.png"",""time"":1021.0999999996275},{""stimulus"":""blank"",""time"":1322.300000000745},{""stimulus"":""https://ziweizhang0304.github.io/Stats_learning_trig/img/Stim/FN_006_g.png"",""time"":1369.699999999255},{""stimulus"":""blank"",""time"":1683.199999999255},{""stimulus"":""https://ziweizhang0304.github.io/Stats_learning_trig/img/Stim/FN_012_g.png"",""time"":1700.300000000745},{""stimulus"":""blank"",""time"":2014.699999999255},{""stimulus"":""https://ziweizhang0304.github.io/Stats_learning_trig/img/Stim/FN_018_g.png"",""time"":2040.9000000003725},{""stimulus"":""blank"",""time"":2347.0999999996275},{""stimulus"":""https://ziweizhang0304.github.io/Stats_learning_trig/img/Stim/FN_009_g.png"",""time"":2381.4000000003725},{""stimulus"":""blank"",""time"":2695.9000000003725},{""stimulus"":""https://ziweizhang0304.github.io/Stats_learning_trig/img/Stim/FN_021_g.png"",""time"":2721.199999999255},{""stimulus"":""blank"",""time"":3025.4000000003725},{""stimulus"":""https://ziweizhang0304.github.io/Stats_learning_trig/img/Stim/FN_022_g.png"",""time"":3072.5999999996275},{""stimulus"":""blank"",""time"":3383.800000000745},{""stimulus"":""https://ziweizhang0304.github.io/Stats_learning_trig/img/Stim/FN_017_g.png"",""time"":3401.9000000003725},{""stimulus"":""blank"",""time"":3711.9000000003725},{""stimulus"":""https://ziweizhang0304.github.io/Stats_learning_trig/img/Stim/FN_007_g.png"",""time"":3744.300000000745},{""stimulus"":""blank"",""time"":4060.5999999996275},{""stimulus"":""https://ziweizhang0304.github.io/Stats_learning_trig/img/Stim/FN_014_g.png"",""time"":4081.4000000003725},{""stimulus"":""blank"",""time"":4388.9000000003725}]","[{""key_press"":32,""rt"":2433.5999999996275,""stimulus"":""https://ziweizhang0304.github.io/Stats_learning_trig/img/Stim/FN_009_g.png""}]","392.69999999925494","https://ziweizhang0304.github.io/Stats_learning_trig/img/Stim/FN_018_g.png","post_TD","8","2040.9000000003725","2433.5999999996275","fast","6","1","5dddd95d238a91d4fa1a8cf6","","","","","",""
"","image-keyboard-response","29","105730","0.0-5.0-8.0-0.0","709","","","https://ziweizhang0304.github.io/Stats_learning_trig/img/Stim/FN_009_g.png","13","","","","","","","","","","","","","","","","","",""
"","animation","30","110150","0.0-5.0-8.0-1.0","","","","","","[{""stimulus"":""https://ziweizhang0304.github.io/Stats_learning_trig/img/Stim/FN_026_g.png"",""time"":341},{""stimulus"":""blank"",""time"":643.9000000003725},{""stimulus"":""https://ziweizhang0304.github.io/Stats_learning_trig/img/Stim/FN_005_g.png"",""time"":690.8000000007451},{""stimulus"":""blank"",""time"":1001.8000000007451},{""stimulus"":""https://ziweizhang0304.github.io/Stats_learning_trig/img/Stim/FN_024_g.png"",""time"":1021},{""stimulus"":""blank"",""time"":1328.4000000003725},{""stimulus"":""https://ziweizhang0304.github.io/Stats_learning_trig/img/Stim/FN_006_g.png"",""time"":1375.800000000745},{""stimulus"":""blank"",""time"":1687.4000000003725},{""stimulus"":""https://ziweizhang0304.github.io/Stats_learning_trig/img/Stim/FN_012_g.png"",""time"":1701.1000000014901},{""stimulus"":""blank"",""time"":2002.6000000014901},{""stimulus"":""https://ziweizhang0304.github.io/Stats_learning_trig/img/Stim/FN_018_g.png"",""time"":2048.5},{""stimulus"":""blank"",""time"":2358.7000000011176},{""stimulus"":""https://ziweizhang0304.github.io/Stats_learning_trig/img/Stim/FN_009_g.png"",""time"":2381.4000000003725},{""stimulus"":""blank"",""time"":2686.7000000011176},{""stimulus"":""https://ziweizhang0304.github.io/Stats_learning_trig/img/Stim/FN_021_g.png"",""time"":2734.300000000745},{""stimulus"":""blank"",""time"":3047.7000000011176},{""stimulus"":""https://ziweizhang0304.github.io/Stats_learning_trig/img/Stim/FN_022_g.png"",""time"":3060.9000000003725},{""stimulus"":""blank"",""time"":3375},{""stimulus"":""https://ziweizhang0304.github.io/Stats_learning_trig/img/Stim/FN_017_g.png"",""time"":3401.10000000149},{""stimulus"":""blank"",""time"":3702.7000000011176},{""stimulus"":""https://ziweizhang0304.github.io/Stats_learning_trig/img/Stim/FN_007_g.png"",""time"":3750.10000000149},{""stimulus"":""blank"",""time"":4061.9000000003725},{""stimulus"":""https://ziweizhang0304.github.io/Stats_learning_trig/img/Stim/FN_014_g.png"",""time"":4080.9000000003725},{""stimulus"":""blank"",""time"":4389.200000001118}]","[{""key_press"":32,""rt"":2740.199999999255,""stimulus"":""https://ziweizhang0304.github.io/Stats_learning_trig/img/Stim/FN_021_g.png""}]","358.7999999988824","https://ziweizhang0304.github.io/Stats_learning_trig/img/Stim/FN_009_g.png","post_TD","9","2381.4000000003725","2740.199999999255","fast","7","2","5dddd95d238a91d4fa1a8cf6","","","","","",""
"","image-keyboard-response","31","111271","0.0-5.0-9.0-0.0","1118.9000000003725","","","https://ziweizhang0304.github.io/Stats_learning_trig/img/Stim/FN_002_g.png","13","","","","","","","","","","","","","","","","","",""
"","animation","32","115697","0.0-5.0-9.0-1.0","","","","","","[{""stimulus"":""https://ziweizhang0304.github.io/Stats_learning_trig/img/Stim/FN_007_g.png"",""time"":352.09999999962747},{""stimulus"":""blank"",""time"":660.7999999988824},{""stimulus"":""https://ziweizhang0304.github.io/Stats_learning_trig/img/Stim/FN_026_g.png"",""time"":681},{""stimulus"":""blank"",""time"":984.0999999996275},{""stimulus"":""https://ziweizhang0304.github.io/Stats_learning_trig/img/Stim/FN_014_g.png"",""time"":1031.5},{""stimulus"":""blank"",""time"":1345.5999999996275},{""stimulus"":""https://ziweizhang0304.github.io/Stats_learning_trig/img/Stim/FN_012_g.png"",""time"":1361.7999999988824},{""stimulus"":""blank"",""time"":1675.5999999996275},{""stimulus"":""https://ziweizhang0304.github.io/Stats_learning_trig/img/Stim/FN_002_g.png"",""time"":1701.3999999985099},{""stimulus"":""blank"",""time"":2002.199999999255},{""stimulus"":""https://ziweizhang0304.github.io/Stats_learning_trig/img/Stim/FN_008_g.png"",""time"":2050.5999999996275},{""stimulus"":""blank"",""time"":2363.2999999988824},{""stimulus"":""https://ziweizhang0304.github.io/Stats_learning_trig/img/Stim/FN_011_g.png"",""time"":2380.5},{""stimulus"":""blank"",""time"":2692.0999999996275},{""stimulus"":""https://ziweizhang0304.github.io/Stats_learning_trig/img/Stim/FN_022_g.png"",""time"":2721.2999999988824},{""stimulus"":""blank"",""time"":3024.199999999255},{""stimulus"":""https://ziweizhang0304.github.io/Stats_learning_trig/img/Stim/FN_006_g.png"",""time"":3071.39999999851},{""stimulus"":""blank"",""time"":3384.0999999996275},{""stimulus"":""https://ziweizhang0304.github.io/Stats_learning_trig/img/Stim/FN_005_g.png"",""time"":3401.2999999988824},{""stimulus"":""blank"",""time"":3713.699999999255},{""stimulus"":""https://ziweizhang0304.github.io/Stats_learning_trig/img/Stim/FN_017_g.png"",""time"":3741.39999999851},{""stimulus"":""blank"",""time"":4044.2999999988824},{""stimulus"":""https://ziweizhang0304.github.io/Stats_learning_trig/img/Stim/FN_024_g.png"",""time"":4080.5},{""stimulus"":""blank"",""time"":4389.5}]","[{""key_press"":32,""rt"":2128.5999999996275,""stimulus"":""https://ziweizhang0304.github.io/Stats_learning_trig/img/Stim/FN_008_g.png""}]","427.2000000011176","https://ziweizhang0304.github.io/Stats_learning_trig/img/Stim/FN_002_g.png","post_TD","10","1701.3999999985099","2128.5999999996275","slow","5","1","5dddd95d238a91d4fa1a8cf6","","","","","",""
"","image-keyboard-response","33","120387","0.0-5.0-10.0-0.0","4689.0999999996275","","","https://ziweizhang0304.github.io/Stats_learning_trig/img/Stim/FN_009_g.png","13","","","","","","","","","","","","","","","","","",""
"","animation","34","124808","0.0-5.0-10.0-1.0","","","","","","[{""stimulus"":""https://ziweizhang0304.github.io/Stats_learning_trig/img/Stim/FN_007_g.png"",""time"":344.5},{""stimulus"":""blank"",""time"":657.6999999992549},{""stimulus"":""https://ziweizhang0304.github.io/Stats_learning_trig/img/Stim/FN_024_g.png"",""time"":680.5},{""stimulus"":""blank"",""time"":987.6999999992549},{""stimulus"":""https://ziweizhang0304.github.io/Stats_learning_trig/img/Stim/FN_017_g.png"",""time"":1036},{""stimulus"":""blank"",""time"":1347.199999999255},{""stimulus"":""https://ziweizhang0304.github.io/Stats_learning_trig/img/Stim/FN_012_g.png"",""time"":1360.8999999985099},{""stimulus"":""blank"",""time"":1662.699999999255},{""stimulus"":""https://ziweizhang0304.github.io/Stats_learning_trig/img/Stim/FN_026_g.png"",""time"":1710},{""stimulus"":""blank"",""time"":2019.8999999985099},{""stimulus"":""https://ziweizhang0304.github.io/Stats_learning_trig/img/Stim/FN_005_g.png"",""time"":2040.699999999255},{""stimulus"":""blank"",""time"":2349.2999999988824},{""stimulus"":""https://ziweizhang0304.github.io/Stats_learning_trig/img/Stim/FN_018_g.png"",""time"":2380.5999999996275},{""stimulus"":""blank"",""time"":2681.7999999988824},{""stimulus"":""https://ziweizhang0304.github.io/Stats_learning_trig/img/Stim/FN_009_g.png"",""time"":2720.5},{""stimulus"":""blank"",""time"":3024.699999999255},{""stimulus"":""https://ziweizhang0304.github.io/Stats_learning_trig/img/Stim/FN_021_g.png"",""time"":3060.89999999851},{""stimulus"":""blank"",""time"":3375},{""stimulus"":""https://ziweizhang0304.github.io/Stats_learning_trig/img/Stim/FN_022_g.png"",""time"":3406.5},{""stimulus"":""blank"",""time"":3717.699999999255},{""stimulus"":""https://ziweizhang0304.github.io/Stats_learning_trig/img/Stim/FN_006_g.png"",""time"":3740.7999999988824},{""stimulus"":""blank"",""time"":4046.5999999996275},{""stimulus"":""https://ziweizhang0304.github.io/Stats_learning_trig/img/Stim/FN_014_g.png"",""time"":4081},{""stimulus"":""blank"",""time"":4393}]","[{""key_press"":32,""rt"":3024.0999999996275,""stimulus"":""https://ziweizhang0304.github.io/Stats_learning_trig/img/Stim/FN_009_g.png""}]","303.59999999962747","https://ziweizhang0304.github.io/Stats_learning_trig/img/Stim/FN_009_g.png","post_TD","11","2720.5","3024.0999999996275","fast","8","2","5dddd95d238a91d4fa1a8cf6","","","","","",""
"","image-keyboard-response","35","125785","0.0-5.0-11.0-0.0","975.9000000003725","","","https://ziweizhang0304.github.io/Stats_learning_trig/img/Stim/FN_002_g.png","13","","","","","","","","","","","","","","","","","",""
"","animation","36","130220","0.0-5.0-11.0-1.0","","","","","","[{""stimulus"":""https://ziweizhang0304.github.io/Stats_learning_trig/img/Stim/FN_022_g.png"",""time"":355.19999999925494},{""stimulus"":""blank"",""time"":665.5},{""stimulus"":""https://ziweizhang0304.github.io/Stats_learning_trig/img/Stim/FN_012_g.png"",""time"":680.6999999992549},{""stimulus"":""blank"",""time"":992.0999999996275},{""stimulus"":""https://ziweizhang0304.github.io/Stats_learning_trig/img/Stim/FN_007_g.png"",""time"":1021.6999999992549},{""stimulus"":""blank"",""time"":1323.5999999996275},{""stimulus"":""https://ziweizhang0304.github.io/Stats_learning_trig/img/Stim/FN_006_g.png"",""time"":1360.5999999996275},{""stimulus"":""blank"",""time"":1663.199999999255},{""stimulus"":""https://ziweizhang0304.github.io/Stats_learning_trig/img/Stim/FN_024_g.png"",""time"":1700.5999999996275},{""stimulus"":""blank"",""time"":2006.5999999996275},{""stimulus"":""https://ziweizhang0304.github.io/Stats_learning_trig/img/Stim/FN_005_g.png"",""time"":2054.5999999996275},{""stimulus"":""blank"",""time"":2364.199999999255},{""stimulus"":""https://ziweizhang0304.github.io/Stats_learning_trig/img/Stim/FN_002_g.png"",""time"":2380.4000000003725},{""stimulus"":""blank"",""time"":2687.5},{""stimulus"":""https://ziweizhang0304.github.io/Stats_learning_trig/img/Stim/FN_008_g.png"",""time"":2734.9000000003725},{""stimulus"":""blank"",""time"":3046},{""stimulus"":""https://ziweizhang0304.github.io/Stats_learning_trig/img/Stim/FN_011_g.png"",""time"":3061.199999999255},{""stimulus"":""blank"",""time"":3375.199999999255},{""stimulus"":""https://ziweizhang0304.github.io/Stats_learning_trig/img/Stim/FN_017_g.png"",""time"":3400.4000000003725},{""stimulus"":""blank"",""time"":3701.4000000003725},{""stimulus"":""https://ziweizhang0304.github.io/Stats_learning_trig/img/Stim/FN_014_g.png"",""time"":3740.800000000745},{""stimulus"":""blank"",""time"":4045.199999999255},{""stimulus"":""https://ziweizhang0304.github.io/Stats_learning_trig/img/Stim/FN_026_g.png"",""time"":4080.5},{""stimulus"":""blank"",""time"":4387.4000000003725}]","[{""key_press"":32,""rt"":2741,""stimulus"":""https://ziweizhang0304.github.io/Stats_learning_trig/img/Stim/FN_008_g.png""}]","360.59999999962747","https://ziweizhang0304.github.io/Stats_learning_trig/img/Stim/FN_002_g.png","post_TD","12","2380.4000000003725","2741","slow","7","1","5dddd95d238a91d4fa1a8cf6","","","","","",""
"","image-keyboard-response","37","130807","0.0-5.0-12.0-0.0","585.5999999996275","","","https://ziweizhang0304.github.io/Stats_learning_trig/img/Stim/FN_018_g.png","13","","","","","","","","","","","","","","","","","",""
"","animation","38","135227","0.0-5.0-12.0-1.0","","","","","","[{""stimulus"":""https://ziweizhang0304.github.io/Stats_learning_trig/img/Stim/FN_006_g.png"",""time"":342.1000000014901},{""stimulus"":""blank"",""time"":653.8000000007451},{""stimulus"":""https://ziweizhang0304.github.io/Stats_learning_trig/img/Stim/FN_022_g.png"",""time"":685.1000000014901},{""stimulus"":""blank"",""time"":985.4000000003725},{""stimulus"":""https://ziweizhang0304.github.io/Stats_learning_trig/img/Stim/FN_005_g.png"",""time"":1020.9000000003725},{""stimulus"":""blank"",""time"":1324.5},{""stimulus"":""https://ziweizhang0304.github.io/Stats_learning_trig/img/Stim/FN_014_g.png"",""time"":1361},{""stimulus"":""blank"",""time"":1667.5},{""stimulus"":""https://ziweizhang0304.github.io/Stats_learning_trig/img/Stim/FN_018_g.png"",""time"":1700.800000000745},{""stimulus"":""blank"",""time"":2014.5},{""stimulus"":""https://ziweizhang0304.github.io/Stats_learning_trig/img/Stim/FN_009_g.png"",""time"":2041.4000000003725},{""stimulus"":""blank"",""time"":2356.800000000745},{""stimulus"":""https://ziweizhang0304.github.io/Stats_learning_trig/img/Stim/FN_021_g.png"",""time"":2381.10000000149},{""stimulus"":""blank"",""time"":2681.800000000745},{""stimulus"":""https://ziweizhang0304.github.io/Stats_learning_trig/img/Stim/FN_012_g.png"",""time"":2721.10000000149},{""stimulus"":""blank"",""time"":3025.300000000745},{""stimulus"":""https://ziweizhang0304.github.io/Stats_learning_trig/img/Stim/FN_017_g.png"",""time"":3061.5},{""stimulus"":""blank"",""time"":3367.2000000011176},{""stimulus"":""https://ziweizhang0304.github.io/Stats_learning_trig/img/Stim/FN_007_g.png"",""time"":3401},{""stimulus"":""blank"",""time"":3709.5},{""stimulus"":""https://ziweizhang0304.github.io/Stats_learning_trig/img/Stim/FN_026_g.png"",""time"":3741},{""stimulus"":""blank"",""time"":4051.7000000011176},{""stimulus"":""https://ziweizhang0304.github.io/Stats_learning_trig/img/Stim/FN_024_g.png"",""time"":4082.10000000149},{""stimulus"":""blank"",""time"":4396.300000000745}]","[{""key_press"":32,""rt"":2130.89999999851,""stimulus"":""https://ziweizhang0304.github.io/Stats_learning_trig/img/Stim/FN_009_g.png""}]","430.0999999977648","https://ziweizhang0304.github.io/Stats_learning_trig/img/Stim/FN_018_g.png","post_TD","13","1700.800000000745","2130.89999999851","fast","5","1","5dddd95d238a91d4fa1a8cf6","","","","","",""
"","image-keyboard-response","39","135824","0.0-5.0-13.0-0.0","596.0999999996275","","","https://ziweizhang0304.github.io/Stats_learning_trig/img/Stim/FN_008_g.png","13","","","","","","","","","","","","","","","","","",""
"","animation","40","140246","0.0-5.0-13.0-1.0","","","","","","[{""stimulus"":""https://ziweizhang0304.github.io/Stats_learning_trig/img/Stim/FN_007_g.png"",""time"":341.30000000074506},{""stimulus"":""blank"",""time"":651.9000000003725},{""stimulus"":""https://ziweizhang0304.github.io/Stats_learning_trig/img/Stim/FN_026_g.png"",""time"":680.6999999992549},{""stimulus"":""blank"",""time"":993},{""stimulus"":""https://ziweizhang0304.github.io/Stats_learning_trig/img/Stim/FN_014_g.png"",""time"":1021.0999999996275},{""stimulus"":""blank"",""time"":1336.699999999255},{""stimulus"":""https://ziweizhang0304.github.io/Stats_learning_trig/img/Stim/FN_012_g.png"",""time"":1360.9000000003725},{""stimulus"":""blank"",""time"":1666},{""stimulus"":""https://ziweizhang0304.github.io/Stats_learning_trig/img/Stim/FN_002_g.png"",""time"":1714.199999999255},{""stimulus"":""blank"",""time"":2027},{""stimulus"":""https://ziweizhang0304.github.io/Stats_learning_trig/img/Stim/FN_008_g.png"",""time"":2041.199999999255},{""stimulus"":""blank"",""time"":2354.5999999996275},{""stimulus"":""https://ziweizhang0304.github.io/Stats_learning_trig/img/Stim/FN_011_g.png"",""time"":2380.9000000003725},{""stimulus"":""blank"",""time"":2687.9000000003725},{""stimulus"":""https://ziweizhang0304.github.io/Stats_learning_trig/img/Stim/FN_022_g.png"",""time"":2721.0999999996275},{""stimulus"":""blank"",""time"":3036.199999999255},{""stimulus"":""https://ziweizhang0304.github.io/Stats_learning_trig/img/Stim/FN_006_g.png"",""time"":3068.300000000745},{""stimulus"":""blank"",""time"":3381},{""stimulus"":""https://ziweizhang0304.github.io/Stats_learning_trig/img/Stim/FN_005_g.png"",""time"":3401.800000000745},{""stimulus"":""blank"",""time"":3708.9000000003725},{""stimulus"":""https://ziweizhang0304.github.io/Stats_learning_trig/img/Stim/FN_017_g.png"",""time"":3741.199999999255},{""stimulus"":""blank"",""time"":4051},{""stimulus"":""https://ziweizhang0304.github.io/Stats_learning_trig/img/Stim/FN_024_g.png"",""time"":4082.199999999255},{""stimulus"":""blank"",""time"":4395.199999999255}]","[{""key_press"":32,""rt"":2423.5,""stimulus"":""https://ziweizhang0304.github.io/Stats_learning_trig/img/Stim/FN_011_g.png""}]","382.30000000074506","https://ziweizhang0304.github.io/Stats_learning_trig/img/Stim/FN_008_g.png","post_TD","14","2041.199999999255","2423.5","slow","6","2","5dddd95d238a91d4fa1a8cf6","","","","","",""
"","image-keyboard-response","41","140857","0.0-5.0-14.0-0.0","610.5999999996275","","","https://ziweizhang0304.github.io/Stats_learning_trig/img/Stim/FN_018_g.png","13","","","","","","","","","","","","","","","","","",""
"","animation","42","145279","0.0-5.0-14.0-1.0","","","","","","[{""stimulus"":""https://ziweizhang0304.github.io/Stats_learning_trig/img/Stim/FN_007_g.png"",""time"":347.59999999962747},{""stimulus"":""blank"",""time"":658.9000000003725},{""stimulus"":""https://ziweizhang0304.github.io/Stats_learning_trig/img/Stim/FN_024_g.png"",""time"":681.2999999988824},{""stimulus"":""blank"",""time"":981.6999999992549},{""stimulus"":""https://ziweizhang0304.github.io/Stats_learning_trig/img/Stim/FN_017_g.png"",""time"":1020.9000000003725},{""stimulus"":""blank"",""time"":1330.5999999996275},{""stimulus"":""https://ziweizhang0304.github.io/Stats_learning_trig/img/Stim/FN_012_g.png"",""time"":1360.4000000003725},{""stimulus"":""blank"",""time"":1675},{""stimulus"":""https://ziweizhang0304.github.io/Stats_learning_trig/img/Stim/FN_026_g.png"",""time"":1701.199999999255},{""stimulus"":""blank"",""time"":2004.699999999255},{""stimulus"":""https://ziweizhang0304.github.io/Stats_learning_trig/img/Stim/FN_005_g.png"",""time"":2051.9000000003725},{""stimulus"":""blank"",""time"":2362.7999999988824},{""stimulus"":""https://ziweizhang0304.github.io/Stats_learning_trig/img/Stim/FN_018_g.png"",""time"":2380.5},{""stimulus"":""blank"",""time"":2690.199999999255},{""stimulus"":""https://ziweizhang0304.github.io/Stats_learning_trig/img/Stim/FN_009_g.png"",""time"":2721.2999999988824},{""stimulus"":""blank"",""time"":3034.5},{""stimulus"":""https://ziweizhang0304.github.io/Stats_learning_trig/img/Stim/FN_021_g.png"",""time"":3065.7999999988824},{""stimulus"":""blank"",""time"":3377.2999999988824},{""stimulus"":""https://ziweizhang0304.github.io/Stats_learning_trig/img/Stim/FN_022_g.png"",""time"":3400.4000000003725},{""stimulus"":""blank"",""time"":3703.7999999988824},{""stimulus"":""https://ziweizhang0304.github.io/Stats_learning_trig/img/Stim/FN_006_g.png"",""time"":3751.2999999988824},{""stimulus"":""blank"",""time"":4065.0999999996275},{""stimulus"":""https://ziweizhang0304.github.io/Stats_learning_trig/img/Stim/FN_014_g.png"",""time"":4081.199999999255},{""stimulus"":""blank"",""time"":4392.5}]","[{""key_press"":32,""rt"":2828.2999999988824,""stimulus"":""https://ziweizhang0304.github.io/Stats_learning_trig/img/Stim/FN_009_g.png""}]","447.7999999988824","https://ziweizhang0304.github.io/Stats_learning_trig/img/Stim/FN_018_g.png","post_TD","15","2380.5","2828.2999999988824","fast","7","1","5dddd95d238a91d4fa1a8cf6","","","","","",""
"","image-keyboard-response","43","146200","0.0-5.0-15.0-0.0","920.6999999992549","","","https://ziweizhang0304.github.io/Stats_learning_trig/img/Stim/FN_008_g.png","13","","","","","","","","","","","","","","","","","",""
"","animation","44","150621","0.0-5.0-15.0-1.0","","","","","","[{""stimulus"":""https://ziweizhang0304.github.io/Stats_learning_trig/img/Stim/FN_022_g.png"",""time"":344.90000000037253},{""stimulus"":""blank"",""time"":657},{""stimulus"":""https://ziweizhang0304.github.io/Stats_learning_trig/img/Stim/FN_012_g.png"",""time"":681.1999999992549},{""stimulus"":""blank"",""time"":984.6999999992549},{""stimulus"":""https://ziweizhang0304.github.io/Stats_learning_trig/img/Stim/FN_007_g.png"",""time"":1032.0999999996275},{""stimulus"":""blank"",""time"":1343.5},{""stimulus"":""https://ziweizhang0304.github.io/Stats_learning_trig/img/Stim/FN_006_g.png"",""time"":1360.800000000745},{""stimulus"":""blank"",""time"":1671},{""stimulus"":""https://ziweizhang0304.github.io/Stats_learning_trig/img/Stim/FN_024_g.png"",""time"":1700.9000000003725},{""stimulus"":""blank"",""time"":2013.9000000003725},{""stimulus"":""https://ziweizhang0304.github.io/Stats_learning_trig/img/Stim/FN_005_g.png"",""time"":2041.4000000003725},{""stimulus"":""blank"",""time"":2343.5999999996275},{""stimulus"":""https://ziweizhang0304.github.io/Stats_learning_trig/img/Stim/FN_002_g.png"",""time"":2391.199999999255},{""stimulus"":""blank"",""time"":2705.199999999255},{""stimulus"":""https://ziweizhang0304.github.io/Stats_learning_trig/img/Stim/FN_008_g.png"",""time"":2720.5},{""stimulus"":""blank"",""time"":3032.9000000003725},{""stimulus"":""https://ziweizhang0304.github.io/Stats_learning_trig/img/Stim/FN_011_g.png"",""time"":3060.5999999996275},{""stimulus"":""blank"",""time"":3362.4000000003725},{""stimulus"":""https://ziweizhang0304.github.io/Stats_learning_trig/img/Stim/FN_017_g.png"",""time"":3402.0999999996275},{""stimulus"":""blank"",""time"":3706.9000000003725},{""stimulus"":""https://ziweizhang0304.github.io/Stats_learning_trig/img/Stim/FN_014_g.png"",""time"":3741.0999999996275},{""stimulus"":""blank"",""time"":4051.300000000745},{""stimulus"":""https://ziweizhang0304.github.io/Stats_learning_trig/img/Stim/FN_026_g.png"",""time"":4080.5999999996275},{""stimulus"":""blank"",""time"":4393.5999999996275}]","[{""key_press"":32,""rt"":3075,""stimulus"":""https://ziweizhang0304.github.io/Stats_learning_trig/img/Stim/FN_011_g.png""}]","354.5","https://ziweizhang0304.github.io/Stats_learning_trig/img/Stim/FN_008_g.png","post_TD","16","2720.5","3075","slow","8","2","5dddd95d238a91d4fa1a8cf6","","","","","",""
"","image-keyboard-response","45","151351","0.0-5.0-16.0-0.0","729.1999999992549","","","https://ziweizhang0304.github.io/Stats_learning_trig/img/Stim/FN_009_g.png","13","","","","","","","","","","","","","","","","","",""
"","animation","46","155772","0.0-5.0-16.0-1.0","","","","","","[{""stimulus"":""https://ziweizhang0304.github.io/Stats_learning_trig/img/Stim/FN_006_g.png"",""time"":343.1000000014901},{""stimulus"":""blank"",""time"":654.4000000003725},{""stimulus"":""https://ziweizhang0304.github.io/Stats_learning_trig/img/Stim/FN_022_g.png"",""time"":685.7000000011176},{""stimulus"":""blank"",""time"":998.4000000003725},{""stimulus"":""https://ziweizhang0304.github.io/Stats_learning_trig/img/Stim/FN_005_g.png"",""time"":1021.2000000011176},{""stimulus"":""blank"",""time"":1328.2000000011176},{""stimulus"":""https://ziweizhang0304.github.io/Stats_learning_trig/img/Stim/FN_014_g.png"",""time"":1361.1000000014901},{""stimulus"":""blank"",""time"":1672.6000000014901},{""stimulus"":""https://ziweizhang0304.github.io/Stats_learning_trig/img/Stim/FN_018_g.png"",""time"":1700.5},{""stimulus"":""blank"",""time"":2013.5},{""stimulus"":""https://ziweizhang0304.github.io/Stats_learning_trig/img/Stim/FN_009_g.png"",""time"":2040.5},{""stimulus"":""blank"",""time"":2356.300000000745},{""stimulus"":""https://ziweizhang0304.github.io/Stats_learning_trig/img/Stim/FN_021_g.png"",""time"":2380.60000000149},{""stimulus"":""blank"",""time"":2680.7000000011176},{""stimulus"":""https://ziweizhang0304.github.io/Stats_learning_trig/img/Stim/FN_012_g.png"",""time"":2720.9000000003725},{""stimulus"":""blank"",""time"":3026.300000000745},{""stimulus"":""https://ziweizhang0304.github.io/Stats_learning_trig/img/Stim/FN_017_g.png"",""time"":3061},{""stimulus"":""blank"",""time"":3369.9000000003725},{""stimulus"":""https://ziweizhang0304.github.io/Stats_learning_trig/img/Stim/FN_007_g.png"",""time"":3400.4000000003725},{""stimulus"":""blank"",""time"":3713.2000000011176},{""stimulus"":""https://ziweizhang0304.github.io/Stats_learning_trig/img/Stim/FN_026_g.png"",""time"":3740.60000000149},{""stimulus"":""blank"",""time"":4055},{""stimulus"":""https://ziweizhang0304.github.io/Stats_learning_trig/img/Stim/FN_024_g.png"",""time"":4081.9000000003725},{""stimulus"":""blank"",""time"":4382.200000001118}]","[{""key_press"":32,""rt"":2364.199999999255,""stimulus"":""blank""}]","323.69999999925494","https://ziweizhang0304.github.io/Stats_learning_trig/img/Stim/FN_009_g.png","post_TD","17","2040.5","2364.199999999255","fast","6","2","5dddd95d238a91d4fa1a8cf6","","","","","",""
"","image-keyboard-response","47","156874","0.0-5.0-17.0-0.0","1100.800000000745","","","https://ziweizhang0304.github.io/Stats_learning_trig/img/Stim/FN_021_g.png","13","","","","","","","","","","","","","","","","","",""
"","animation","48","161296","0.0-5.0-17.0-1.0","","","","","","[{""stimulus"":""https://ziweizhang0304.github.io/Stats_learning_trig/img/Stim/FN_026_g.png"",""time"":348},{""stimulus"":""blank"",""time"":658.5999999996275},{""stimulus"":""https://ziweizhang0304.github.io/Stats_learning_trig/img/Stim/FN_005_g.png"",""time"":681},{""stimulus"":""blank"",""time"":986.6999999992549},{""stimulus"":""https://ziweizhang0304.github.io/Stats_learning_trig/img/Stim/FN_024_g.png"",""time"":1021.5999999996275},{""stimulus"":""blank"",""time"":1330.800000000745},{""stimulus"":""https://ziweizhang0304.github.io/Stats_learning_trig/img/Stim/FN_006_g.png"",""time"":1362.300000000745},{""stimulus"":""blank"",""time"":1673.199999999255},{""stimulus"":""https://ziweizhang0304.github.io/Stats_learning_trig/img/Stim/FN_012_g.png"",""time"":1700.4000000003725},{""stimulus"":""blank"",""time"":2003.5999999996275},{""stimulus"":""https://ziweizhang0304.github.io/Stats_learning_trig/img/Stim/FN_018_g.png"",""time"":2050.0999999996275},{""stimulus"":""blank"",""time"":2361.5},{""stimulus"":""https://ziweizhang0304.github.io/Stats_learning_trig/img/Stim/FN_009_g.png"",""time"":2380.699999999255},{""stimulus"":""blank"",""time"":2689.9000000003725},{""stimulus"":""https://ziweizhang0304.github.io/Stats_learning_trig/img/Stim/FN_021_g.png"",""time"":2721.0999999996275},{""stimulus"":""blank"",""time"":3036.300000000745},{""stimulus"":""https://ziweizhang0304.github.io/Stats_learning_trig/img/Stim/FN_022_g.png"",""time"":3060.5999999996275},{""stimulus"":""blank"",""time"":3362.4000000003725},{""stimulus"":""https://ziweizhang0304.github.io/Stats_learning_trig/img/Stim/FN_017_g.png"",""time"":3401.4000000003725},{""stimulus"":""blank"",""time"":3704.0999999996275},{""stimulus"":""https://ziweizhang0304.github.io/Stats_learning_trig/img/Stim/FN_007_g.png"",""time"":3741.300000000745},{""stimulus"":""blank"",""time"":4042.5},{""stimulus"":""https://ziweizhang0304.github.io/Stats_learning_trig/img/Stim/FN_014_g.png"",""time"":4081.5999999996275},{""stimulus"":""blank"",""time"":4393}]","[{""key_press"":32,""rt"":3099.4000000003725,""stimulus"":""https://ziweizhang0304.github.io/Stats_learning_trig/img/Stim/FN_022_g.png""}]","378.30000000074506","https://ziweizhang0304.github.io/Stats_learning_trig/img/Stim/FN_021_g.png","post_TD","18","2721.0999999996275","3099.4000000003725","fast","8","3","5dddd95d238a91d4fa1a8cf6","","","","","",""
"","image-keyboard-response","49","162197","0.0-5.0-18.0-0.0","899.6000000014901","","","https://ziweizhang0304.github.io/Stats_learning_trig/img/Stim/FN_021_g.png","13","","","","","","","","","","","","","","","","","",""
"","animation","50","166630","0.0-5.0-18.0-1.0","","","","","","[{""stimulus"":""https://ziweizhang0304.github.io/Stats_learning_trig/img/Stim/FN_007_g.png"",""time"":352},{""stimulus"":""blank"",""time"":663.8999999985099},{""stimulus"":""https://ziweizhang0304.github.io/Stats_learning_trig/img/Stim/FN_024_g.png"",""time"":680.8999999985099},{""stimulus"":""blank"",""time"":982},{""stimulus"":""https://ziweizhang0304.github.io/Stats_learning_trig/img/Stim/FN_014_g.png"",""time"":1020.7999999988824},{""stimulus"":""blank"",""time"":1321.3999999985099},{""stimulus"":""https://ziweizhang0304.github.io/Stats_learning_trig/img/Stim/FN_018_g.png"",""time"":1368.0999999996275},{""stimulus"":""blank"",""time"":1681.7999999988824},{""stimulus"":""https://ziweizhang0304.github.io/Stats_learning_trig/img/Stim/FN_009_g.png"",""time"":1701},{""stimulus"":""blank"",""time"":2010.5},{""stimulus"":""https://ziweizhang0304.github.io/Stats_learning_trig/img/Stim/FN_021_g.png"",""time"":2042.5999999996275},{""stimulus"":""blank"",""time"":2353.89999999851},{""stimulus"":""https://ziweizhang0304.github.io/Stats_learning_trig/img/Stim/FN_012_g.png"",""time"":2381.199999999255},{""stimulus"":""blank"",""time"":2684.5999999996275},{""stimulus"":""https://ziweizhang0304.github.io/Stats_learning_trig/img/Stim/FN_022_g.png"",""time"":2731.5999999996275},{""stimulus"":""blank"",""time"":3042.39999999851},{""stimulus"":""https://ziweizhang0304.github.io/Stats_learning_trig/img/Stim/FN_006_g.png"",""time"":3060.39999999851},{""stimulus"":""blank"",""time"":3361.0999999996275},{""stimulus"":""https://ziweizhang0304.github.io/Stats_learning_trig/img/Stim/FN_005_g.png"",""time"":3400.5999999996275},{""stimulus"":""blank"",""time"":3714},{""stimulus"":""https://ziweizhang0304.github.io/Stats_learning_trig/img/Stim/FN_017_g.png"",""time"":3746.5999999996275},{""stimulus"":""blank"",""time"":4046.89999999851},{""stimulus"":""https://ziweizhang0304.github.io/Stats_learning_trig/img/Stim/FN_026_g.png"",""time"":4081.0999999996275},{""stimulus"":""blank"",""time"":4385.5}]","[{""key_press"":32,""rt"":2425.199999999255,""stimulus"":""https://ziweizhang0304.github.io/Stats_learning_trig/img/Stim/FN_012_g.png""}]","382.59999999962747","https://ziweizhang0304.github.io/Stats_learning_trig/img/Stim/FN_021_g.png","post_TD","19","2042.5999999996275","2425.199999999255","fast","6","3","5dddd95d238a91d4fa1a8cf6","","","","","",""
"","image-keyboard-response","51","167651","0.0-5.0-19.0-0.0","1019.7000000011176","","","https://ziweizhang0304.github.io/Stats_learning_trig/img/Stim/FN_009_g.png","13","","","","","","","","","","","","","","","","","",""
"","animation","52","172072","0.0-5.0-19.0-1.0","","","","","","[{""stimulus"":""https://ziweizhang0304.github.io/Stats_learning_trig/img/Stim/FN_007_g.png"",""time"":347.19999999925494},{""stimulus"":""blank"",""time"":659.5},{""stimulus"":""https://ziweizhang0304.github.io/Stats_learning_trig/img/Stim/FN_024_g.png"",""time"":680.6999999992549},{""stimulus"":""blank"",""time"":988.5},{""stimulus"":""https://ziweizhang0304.github.io/Stats_learning_trig/img/Stim/FN_014_g.png"",""time"":1020.5999999996275},{""stimulus"":""blank"",""time"":1332.300000000745},{""stimulus"":""https://ziweizhang0304.github.io/Stats_learning_trig/img/Stim/FN_018_g.png"",""time"":1360.699999999255},{""stimulus"":""blank"",""time"":1673},{""stimulus"":""https://ziweizhang0304.github.io/Stats_learning_trig/img/Stim/FN_009_g.png"",""time"":1700.4000000003725},{""stimulus"":""blank"",""time"":2014.0999999996275},{""stimulus"":""https://ziweizhang0304.github.io/Stats_learning_trig/img/Stim/FN_021_g.png"",""time"":2041.300000000745},{""stimulus"":""blank"",""time"":2342},{""stimulus"":""https://ziweizhang0304.github.io/Stats_learning_trig/img/Stim/FN_012_g.png"",""time"":2389},{""stimulus"":""blank"",""time"":2700},{""stimulus"":""https://ziweizhang0304.github.io/Stats_learning_trig/img/Stim/FN_022_g.png"",""time"":2721.9000000003725},{""stimulus"":""blank"",""time"":3026.800000000745},{""stimulus"":""https://ziweizhang0304.github.io/Stats_learning_trig/img/Stim/FN_006_g.png"",""time"":3061.5999999996275},{""stimulus"":""blank"",""time"":3366.9000000003725},{""stimulus"":""https://ziweizhang0304.github.io/Stats_learning_trig/img/Stim/FN_005_g.png"",""time"":3400.5},{""stimulus"":""blank"",""time"":3713.699999999255},{""stimulus"":""https://ziweizhang0304.github.io/Stats_learning_trig/img/Stim/FN_017_g.png"",""time"":3740.9000000003725},{""stimulus"":""blank"",""time"":4041.199999999255},{""stimulus"":""https://ziweizhang0304.github.io/Stats_learning_trig/img/Stim/FN_026_g.png"",""time"":4088.800000000745},{""stimulus"":""blank"",""time"":4398.300000000745}]","[{""key_press"":32,""rt"":2026.9000000003725,""stimulus"":""blank""}]","326.5","https://ziweizhang0304.github.io/Stats_learning_trig/img/Stim/FN_009_g.png","post_TD","20","1700.4000000003725","2026.9000000003725","fast","5","2","5dddd95d238a91d4fa1a8cf6","","","","","",""
"","image-keyboard-response","53","172536","0.0-5.0-20.0-0.0","463.69999999925494","","","https://ziweizhang0304.github.io/Stats_learning_trig/img/Stim/FN_011_g.png","13","","","","","","","","","","","","","","","","","",""
"","animation","54","176957","0.0-5.0-20.0-1.0","","","","","","[{""stimulus"":""https://ziweizhang0304.github.io/Stats_learning_trig/img/Stim/FN_022_g.png"",""time"":343.6000000014901},{""stimulus"":""blank"",""time"":655.6000000014901},{""stimulus"":""https://ziweizhang0304.github.io/Stats_learning_trig/img/Stim/FN_012_g.png"",""time"":681.5},{""stimulus"":""blank"",""time"":983.4000000003725},{""stimulus"":""https://ziweizhang0304.github.io/Stats_learning_trig/img/Stim/FN_007_g.png"",""time"":1021.1000000014901},{""stimulus"":""blank"",""time"":1323.1000000014901},{""stimulus"":""https://ziweizhang0304.github.io/Stats_learning_trig/img/Stim/FN_006_g.png"",""time"":1370.4000000003725},{""stimulus"":""blank"",""time"":1681.4000000003725},{""stimulus"":""https://ziweizhang0304.github.io/Stats_learning_trig/img/Stim/FN_024_g.png"",""time"":1701.300000000745},{""stimulus"":""blank"",""time"":2008.9000000003725},{""stimulus"":""https://ziweizhang0304.github.io/Stats_learning_trig/img/Stim/FN_005_g.png"",""time"":2041.2000000011176},{""stimulus"":""blank"",""time"":2349},{""stimulus"":""https://ziweizhang0304.github.io/Stats_learning_trig/img/Stim/FN_002_g.png"",""time"":2381.4000000003725},{""stimulus"":""blank"",""time"":2694},{""stimulus"":""https://ziweizhang0304.github.io/Stats_learning_trig/img/Stim/FN_008_g.png"",""time"":2720.60000000149},{""stimulus"":""blank"",""time"":3022.2000000011176},{""stimulus"":""https://ziweizhang0304.github.io/Stats_learning_trig/img/Stim/FN_011_g.png"",""time"":3068.300000000745},{""stimulus"":""blank"",""time"":3373.7000000011176},{""stimulus"":""https://ziweizhang0304.github.io/Stats_learning_trig/img/Stim/FN_017_g.png"",""time"":3400.9000000003725},{""stimulus"":""blank"",""time"":3701.4000000003725},{""stimulus"":""https://ziweizhang0304.github.io/Stats_learning_trig/img/Stim/FN_014_g.png"",""time"":3740.60000000149},{""stimulus"":""blank"",""time"":4047.9000000003725},{""stimulus"":""https://ziweizhang0304.github.io/Stats_learning_trig/img/Stim/FN_026_g.png"",""time"":4080.4000000003725},{""stimulus"":""blank"",""time"":4392.10000000149}]","[{""key_press"":32,""rt"":3373.300000000745,""stimulus"":""https://ziweizhang0304.github.io/Stats_learning_trig/img/Stim/FN_011_g.png""}]","305","https://ziweizhang0304.github.io/Stats_learning_trig/img/Stim/FN_011_g.png","post_TD","21","3068.300000000745","3373.300000000745","slow","9","3","5dddd95d238a91d4fa1a8cf6","","","","","",""
"","image-keyboard-response","55","177580","0.0-5.0-21.0-0.0","622.1999999992549","","","https://ziweizhang0304.github.io/Stats_learning_trig/img/Stim/FN_021_g.png","13","","","","","","","","","","","","","","","","","",""
"","animation","56","182006","0.0-5.0-21.0-1.0","","","","","","[{""stimulus"":""https://ziweizhang0304.github.io/Stats_learning_trig/img/Stim/FN_007_g.png"",""time"":349.59999999962747},{""stimulus"":""blank"",""time"":659.9000000003725},{""stimulus"":""https://ziweizhang0304.github.io/Stats_learning_trig/img/Stim/FN_024_g.png"",""time"":680.6999999992549},{""stimulus"":""blank"",""time"":988.3000000007451},{""stimulus"":""https://ziweizhang0304.github.io/Stats_learning_trig/img/Stim/FN_017_g.png"",""time"":1020.8000000007451},{""stimulus"":""blank"",""time"":1332.0999999996275},{""stimulus"":""https://ziweizhang0304.github.io/Stats_learning_trig/img/Stim/FN_012_g.png"",""time"":1360.9000000003725},{""stimulus"":""blank"",""time"":1662.199999999255},{""stimulus"":""https://ziweizhang0304.github.io/Stats_learning_trig/img/Stim/FN_026_g.png"",""time"":1709.5999999996275},{""stimulus"":""blank"",""time"":2018.300000000745},{""stimulus"":""https://ziweizhang0304.github.io/Stats_learning_trig/img/Stim/FN_005_g.png"",""time"":2041.699999999255},{""stimulus"":""blank"",""time"":2345.5999999996275},{""stimulus"":""https://ziweizhang0304.github.io/Stats_learning_trig/img/Stim/FN_018_g.png"",""time"":2382},{""stimulus"":""blank"",""time"":2685.0999999996275},{""stimulus"":""https://ziweizhang0304.github.io/Stats_learning_trig/img/Stim/FN_009_g.png"",""time"":2732.9000000003725},{""stimulus"":""blank"",""time"":3045.800000000745},{""stimulus"":""https://ziweizhang0304.github.io/Stats_learning_trig/img/Stim/FN_021_g.png"",""time"":3061},{""stimulus"":""blank"",""time"":3373.800000000745},{""stimulus"":""https://ziweizhang0304.github.io/Stats_learning_trig/img/Stim/FN_022_g.png"",""time"":3401.0999999996275},{""stimulus"":""blank"",""time"":3701.5999999996275},{""stimulus"":""https://ziweizhang0304.github.io/Stats_learning_trig/img/Stim/FN_006_g.png"",""time"":3750.199999999255},{""stimulus"":""blank"",""time"":4064.5},{""stimulus"":""https://ziweizhang0304.github.io/Stats_learning_trig/img/Stim/FN_014_g.png"",""time"":4081.4000000003725},{""stimulus"":""blank"",""time"":4394.4000000003725}]","[{""key_press"":32,""rt"":3380.5,""stimulus"":""blank""}]","319.5","https://ziweizhang0304.github.io/Stats_learning_trig/img/Stim/FN_021_g.png","post_TD","22","3061","3380.5","fast","9","3","5dddd95d238a91d4fa1a8cf6","","","","","",""
"","image-keyboard-response","57","182576","0.0-5.0-22.0-0.0","568.2999999988824","","","https://ziweizhang0304.github.io/Stats_learning_trig/img/Stim/FN_008_g.png","13","","","","","","","","","","","","","","","","","",""
"","animation","58","187003","0.0-5.0-22.0-1.0","","","","","","[{""stimulus"":""https://ziweizhang0304.github.io/Stats_learning_trig/img/Stim/FN_007_g.png"",""time"":350.1000000014901},{""stimulus"":""blank"",""time"":659.9000000003725},{""stimulus"":""https://ziweizhang0304.github.io/Stats_learning_trig/img/Stim/FN_026_g.png"",""time"":681.2000000011176},{""stimulus"":""blank"",""time"":985.9000000003725},{""stimulus"":""https://ziweizhang0304.github.io/Stats_learning_trig/img/Stim/FN_014_g.png"",""time"":1033.5},{""stimulus"":""blank"",""time"":1347.7000000011176},{""stimulus"":""https://ziweizhang0304.github.io/Stats_learning_trig/img/Stim/FN_002_g.png"",""time"":1361.2000000011176},{""stimulus"":""blank"",""time"":1662.6000000014901},{""stimulus"":""https://ziweizhang0304.github.io/Stats_learning_trig/img/Stim/FN_008_g.png"",""time"":1700.800000000745},{""stimulus"":""blank"",""time"":2008},{""stimulus"":""https://ziweizhang0304.github.io/Stats_learning_trig/img/Stim/FN_011_g.png"",""time"":2040.5},{""stimulus"":""blank"",""time"":2350.10000000149},{""stimulus"":""https://ziweizhang0304.github.io/Stats_learning_trig/img/Stim/FN_012_g.png"",""time"":2380.4000000003725},{""stimulus"":""blank"",""time"":2693.4000000003725},{""stimulus"":""https://ziweizhang0304.github.io/Stats_learning_trig/img/Stim/FN_022_g.png"",""time"":2720.9000000003725},{""stimulus"":""blank"",""time"":3023.10000000149},{""stimulus"":""https://ziweizhang0304.github.io/Stats_learning_trig/img/Stim/FN_006_g.png"",""time"":3060.7000000011176},{""stimulus"":""blank"",""time"":3361.7000000011176},{""stimulus"":""https://ziweizhang0304.github.io/Stats_learning_trig/img/Stim/FN_005_g.png"",""time"":3401.300000000745},{""stimulus"":""blank"",""time"":3713},{""stimulus"":""https://ziweizhang0304.github.io/Stats_learning_trig/img/Stim/FN_017_g.png"",""time"":3745.4000000003725},{""stimulus"":""blank"",""time"":4055.60000000149},{""stimulus"":""https://ziweizhang0304.github.io/Stats_learning_trig/img/Stim/FN_024_g.png"",""time"":4080.60000000149},{""stimulus"":""blank"",""time"":4381.700000001118}]","[{""key_press"":32,""rt"":2086.2999999988824,""stimulus"":""https://ziweizhang0304.github.io/Stats_learning_trig/img/Stim/FN_011_g.png""}]","385.49999999813735","https://ziweizhang0304.github.io/Stats_learning_trig/img/Stim/FN_008_g.png","post_TD","23","1700.800000000745","2086.2999999988824","slow","5","2","5dddd95d238a91d4fa1a8cf6","","","","","",""
"","image-keyboard-response","59","187451","0.0-5.0-23.0-0.0","446.90000000037253","","","https://ziweizhang0304.github.io/Stats_learning_trig/img/Stim/FN_021_g.png","13","","","","","","","","","","","","","","","","","",""
"","animation","60","191873","0.0-5.0-23.0-1.0","","","","","","[{""stimulus"":""https://ziweizhang0304.github.io/Stats_learning_trig/img/Stim/FN_006_g.png"",""time"":352},{""stimulus"":""blank"",""time"":665.3000000007451},{""stimulus"":""https://ziweizhang0304.github.io/Stats_learning_trig/img/Stim/FN_022_g.png"",""time"":680.9000000003725},{""stimulus"":""blank"",""time"":992.3000000007451},{""stimulus"":""https://ziweizhang0304.github.io/Stats_learning_trig/img/Stim/FN_005_g.png"",""time"":1020.5},{""stimulus"":""blank"",""time"":1335.699999999255},{""stimulus"":""https://ziweizhang0304.github.io/Stats_learning_trig/img/Stim/FN_014_g.png"",""time"":1360.5999999996275},{""stimulus"":""blank"",""time"":1665.300000000745},{""stimulus"":""https://ziweizhang0304.github.io/Stats_learning_trig/img/Stim/FN_018_g.png"",""time"":1701.5999999996275},{""stimulus"":""blank"",""time"":2007},{""stimulus"":""https://ziweizhang0304.github.io/Stats_learning_trig/img/Stim/FN_009_g.png"",""time"":2053.9000000003725},{""stimulus"":""blank"",""time"":2366.800000000745},{""stimulus"":""https://ziweizhang0304.github.io/Stats_learning_trig/img/Stim/FN_021_g.png"",""time"":2381},{""stimulus"":""blank"",""time"":2682},{""stimulus"":""https://ziweizhang0304.github.io/Stats_learning_trig/img/Stim/FN_012_g.png"",""time"":2720.800000000745},{""stimulus"":""blank"",""time"":3021.9000000003725},{""stimulus"":""https://ziweizhang0304.github.io/Stats_learning_trig/img/Stim/FN_017_g.png"",""time"":3069.0999999996275},{""stimulus"":""blank"",""time"":3380.0999999996275},{""stimulus"":""https://ziweizhang0304.github.io/Stats_learning_trig/img/Stim/FN_007_g.png"",""time"":3401.0999999996275},{""stimulus"":""blank"",""time"":3705.199999999255},{""stimulus"":""https://ziweizhang0304.github.io/Stats_learning_trig/img/Stim/FN_026_g.png"",""time"":3752.4000000003725},{""stimulus"":""blank"",""time"":4063.5},{""stimulus"":""https://ziweizhang0304.github.io/Stats_learning_trig/img/Stim/FN_024_g.png"",""time"":4080.699999999255},{""stimulus"":""blank"",""time"":4391.800000000745}]","[{""key_press"":32,""rt"":2670.4000000003725,""stimulus"":""https://ziweizhang0304.github.io/Stats_learning_trig/img/Stim/FN_021_g.png""}]","289.40000000037253","https://ziweizhang0304.github.io/Stats_learning_trig/img/Stim/FN_021_g.png","post_TD","24","2381","2670.4000000003725","fast","7","3","5dddd95d238a91d4fa1a8cf6","a3f26","","","","",""
"","survey-text","61","212112","0.0-6.0","20234.200000001118","","","","","","","","","","","","","","","","","","{""Q0"":""I just made sure I was paying close attention so I could hit the spacebar at the right moment.""}","","","",""
"","survey-text","62","234275","0.0-7.0","22160.599999999627","","","","","","","","","","","","","","","","","","{""[object Object]"":""I sort of did. I noticed that certain shapes I was supposed to look out for had the same shapes come before it.""}","","","",""
"","instructions","63","238590","0.0-8.0","4314.5","","[{""page_index"":0,""viewing_time"":4314.199999999255}]","","","","","","","","","","","","","","","","","","","",""
"","free-sort","64","250066","0.0-9.0","11474.799999998882","","","","","","","","","post_drag","","","","fast","","","","","","[{""src"":""https://ziweizhang0304.github.io/Stats_learning_trig/img/Stim/FN_009_g.png"",""x"":475,""y"":0},{""src"":""https://ziweizhang0304.github.io/Stats_learning_trig/img/Stim/FN_021_g.png"",""x"":-225,""y"":50},{""src"":""https://ziweizhang0304.github.io/Stats_learning_trig/img/Stim/FN_018_g.png"",""x"":475,""y"":50}]","[{""src"":""https://ziweizhang0304.github.io/Stats_learning_trig/img/Stim/FN_021_g.png"",""x"":41,""y"":22},{""src"":""https://ziweizhang0304.github.io/Stats_learning_trig/img/Stim/FN_018_g.png"",""x"":109,""y"":21},{""src"":""https://ziweizhang0304.github.io/Stats_learning_trig/img/Stim/FN_009_g.png"",""x"":204,""y"":36}]","[{""src"":""https://ziweizhang0304.github.io/Stats_learning_trig/img/Stim/FN_009_g.png"",""x"":204,""y"":36},{""src"":""https://ziweizhang0304.github.io/Stats_learning_trig/img/Stim/FN_021_g.png"",""x"":41,""y"":22},{""src"":""https://ziweizhang0304.github.io/Stats_learning_trig/img/Stim/FN_018_g.png"",""x"":109,""y"":21}]",""
"","free-sort","65","259901","0.0-10.0","9833.800000000745","","","","","","","","","post_drag","","","","slow","","","","","","[{""src"":""https://ziweizhang0304.github.io/Stats_learning_trig/img/Stim/FN_002_g.png"",""x"":475,""y"":0},{""src"":""https://ziweizhang0304.github.io/Stats_learning_trig/img/Stim/FN_011_g.png"",""x"":-225,""y"":50},{""src"":""https://ziweizhang0304.github.io/Stats_learning_trig/img/Stim/FN_008_g.png"",""x"":475,""y"":50}]","[{""src"":""https://ziweizhang0304.github.io/Stats_learning_trig/img/Stim/FN_011_g.png"",""x"":34,""y"":18},{""src"":""https://ziweizhang0304.github.io/Stats_learning_trig/img/Stim/FN_002_g.png"",""x"":123,""y"":19},{""src"":""https://ziweizhang0304.github.io/Stats_learning_trig/img/Stim/FN_008_g.png"",""x"":216,""y"":31}]","[{""src"":""https://ziweizhang0304.github.io/Stats_learning_trig/img/Stim/FN_002_g.png"",""x"":123,""y"":19},{""src"":""https://ziweizhang0304.github.io/Stats_learning_trig/img/Stim/FN_011_g.png"",""x"":34,""y"":18},{""src"":""https://ziweizhang0304.github.io/Stats_learning_trig/img/Stim/FN_008_g.png"",""x"":216,""y"":31}]",""
"","survey-multi-choice","66","275426","0.0-11.0","15522.900000000373","","","","","","","","","","","","","","","","5dddd95d238a91d4fa1a8cf6","","{""awareness"":""Not sure"",""attention_check"":""Press SPACEBAR to a target""}","","","","[0,1]"
