"success","trial_type","trial_index","time_elapsed","internal_node_id","rt","url","view_history","stimulus","key_press","animation_sequence","response","TD_rt","TD_target","test_part","TD_trial_number","onset","offset","attention_state","TD_target_position","TD_within_triplet_counter","participant","yoke_participant","responses","init_locations","moves","final_locations","question_order"
"true","fullscreen","0","8486","0.0-0.0","","","","","","","","","","","","","","","","","","","","","","",""
"","external-html","1","14917","0.0-1.0","6311.800000000003","https://ziweizhang0304.github.io/Stats_learning_trig/content/consent.html","","","","","","","","","","","","","","","","","","","","",""
"","instructions","2","92512","0.0-2.0","77590.8","","[{""page_index"":0,""viewing_time"":3985.5000000000146},{""page_index"":1,""viewing_time"":21586.79999999999},{""page_index"":2,""viewing_time"":49559.399999999994},{""page_index"":3,""viewing_time"":2458}]","","","","","","","","","","","","","","","","","","","",""
"","image-keyboard-response","3","100751","0.0-3.0-0.0-0.0","8237.5","","","https://ziweizhang0304.github.io/Stats_learning_trig/img/Stim/FN_016_g.png","13","","","","","","","","","","","","","","","","","",""
"","animation","4","105176","0.0-3.0-0.0-1.0","","","","","","[{""stimulus"":""https://ziweizhang0304.github.io/Stats_learning_trig/img/Stim/FN_019_g.png"",""time"":355.5},{""stimulus"":""blank"",""time"":658.3999999999942},{""stimulus"":""https://ziweizhang0304.github.io/Stats_learning_trig/img/Stim/FN_015_g.png"",""time"":681.8000000000175},{""stimulus"":""blank"",""time"":987.1000000000058},{""stimulus"":""https://ziweizhang0304.github.io/Stats_learning_trig/img/Stim/FN_009_g.png"",""time"":1024.1000000000058},{""stimulus"":""blank"",""time"":1329},{""stimulus"":""https://ziweizhang0304.github.io/Stats_learning_trig/img/Stim/FN_022_g.png"",""time"":1361.3000000000175},{""stimulus"":""blank"",""time"":1662.3999999999942},{""stimulus"":""https://ziweizhang0304.github.io/Stats_learning_trig/img/Stim/FN_025_g.png"",""time"":1704.2000000000116},{""stimulus"":""blank"",""time"":2006.8999999999942},{""stimulus"":""https://ziweizhang0304.github.io/Stats_learning_trig/img/Stim/FN_002_g.png"",""time"":2043.8000000000175},{""stimulus"":""blank"",""time"":2349.100000000006},{""stimulus"":""https://ziweizhang0304.github.io/Stats_learning_trig/img/Stim/FN_017_g.png"",""time"":2386.3000000000175},{""stimulus"":""blank"",""time"":2687},{""stimulus"":""https://ziweizhang0304.github.io/Stats_learning_trig/img/Stim/FN_013_g.png"",""time"":2725.100000000006},{""stimulus"":""blank"",""time"":3030},{""stimulus"":""https://ziweizhang0304.github.io/Stats_learning_trig/img/Stim/FN_018_g.png"",""time"":3061.899999999994},{""stimulus"":""blank"",""time"":3363.2000000000116},{""stimulus"":""https://ziweizhang0304.github.io/Stats_learning_trig/img/Stim/FN_023_g.png"",""time"":3404.3000000000175},{""stimulus"":""blank"",""time"":3706},{""stimulus"":""https://ziweizhang0304.github.io/Stats_learning_trig/img/Stim/FN_016_g.png"",""time"":3743.8000000000175},{""stimulus"":""blank"",""time"":4049.2000000000116},{""stimulus"":""https://ziweizhang0304.github.io/Stats_learning_trig/img/Stim/FN_004_g.png"",""time"":4086.399999999994},{""stimulus"":""blank"",""time"":4389.700000000012}]","[{""key_press"":32,""rt"":4163,""stimulus"":""https://ziweizhang0304.github.io/Stats_learning_trig/img/Stim/FN_004_g.png""}]","419.19999999998254","https://ziweizhang0304.github.io/Stats_learning_trig/img/Stim/FN_016_g.png","post_prac","","","","","","","","","","","","",""
"","html-keyboard-response","5","110276","0.0-3.0-0.0-2.0","5094.600000000006","","","<p>Your reaction time for this trial was 419.2 ms.</p><p>Remember that you should only press the SPACEBAR when you see the shape presented at the beginning of the trial. </b> </p><p>Press enter to move on.</p>","13","","","","","","","","","","","","","","","","","",""
"","image-keyboard-response","6","115960","0.0-3.0-1.0-0.0","5682.399999999994","","","https://ziweizhang0304.github.io/Stats_learning_trig/img/Stim/FN_025_g.png","13","","","","","","","","","","","","","","","","","",""
"","animation","7","120382","0.0-3.0-1.0-1.0","","","","","","[{""stimulus"":""https://ziweizhang0304.github.io/Stats_learning_trig/img/Stim/FN_002_g.png"",""time"":344.19999999998254},{""stimulus"":""blank"",""time"":648.5},{""stimulus"":""https://ziweizhang0304.github.io/Stats_learning_trig/img/Stim/FN_009_g.png"",""time"":684},{""stimulus"":""blank"",""time"":984.3999999999942},{""stimulus"":""https://ziweizhang0304.github.io/Stats_learning_trig/img/Stim/FN_018_g.png"",""time"":1021},{""stimulus"":""blank"",""time"":1326.3999999999942},{""stimulus"":""https://ziweizhang0304.github.io/Stats_learning_trig/img/Stim/FN_023_g.png"",""time"":1364.8999999999942},{""stimulus"":""blank"",""time"":1669},{""stimulus"":""https://ziweizhang0304.github.io/Stats_learning_trig/img/Stim/FN_017_g.png"",""time"":1701.8999999999942},{""stimulus"":""blank"",""time"":2002.5999999999767},{""stimulus"":""https://ziweizhang0304.github.io/Stats_learning_trig/img/Stim/FN_016_g.png"",""time"":2045.8999999999942},{""stimulus"":""blank"",""time"":2348.899999999994},{""stimulus"":""https://ziweizhang0304.github.io/Stats_learning_trig/img/Stim/FN_025_g.png"",""time"":2381},{""stimulus"":""blank"",""time"":2681.6999999999825},{""stimulus"":""https://ziweizhang0304.github.io/Stats_learning_trig/img/Stim/FN_019_g.png"",""time"":2721.2999999999884},{""stimulus"":""blank"",""time"":3022.6999999999825},{""stimulus"":""https://ziweizhang0304.github.io/Stats_learning_trig/img/Stim/FN_015_g.png"",""time"":3062.0999999999767},{""stimulus"":""blank"",""time"":3363.2999999999884},{""stimulus"":""https://ziweizhang0304.github.io/Stats_learning_trig/img/Stim/FN_004_g.png"",""time"":3401.399999999994},{""stimulus"":""blank"",""time"":3701.6999999999825},{""stimulus"":""https://ziweizhang0304.github.io/Stats_learning_trig/img/Stim/FN_022_g.png"",""time"":3741.5},{""stimulus"":""blank"",""time"":4042.5999999999767},{""stimulus"":""https://ziweizhang0304.github.io/Stats_learning_trig/img/Stim/FN_013_g.png"",""time"":4084},{""stimulus"":""blank"",""time"":4384.399999999994}]","[{""key_press"":32,""rt"":2686.100000000006,""stimulus"":""blank""}]","305.1000000000058","https://ziweizhang0304.github.io/Stats_learning_trig/img/Stim/FN_025_g.png","post_prac","","","","","","","","","","","","",""
"","html-keyboard-response","8","124617","0.0-3.0-1.0-2.0","4233.299999999988","","","<p>Your reaction time for this trial was 305.1 ms.</p><p>Remember that you should only press the SPACEBAR when you see the shape presented at the beginning of the trial. </b> </p><p>Press enter to move on.</p>","13","","","","","","","","","","","","","","","","","",""
"","image-keyboard-response","9","126951","0.0-3.0-2.0-0.0","2332.7000000000116","","","https://ziweizhang0304.github.io/Stats_learning_trig/img/Stim/FN_011_g.png","13","","","","","","","","","","","","","","","","","",""
"","animation","10","131372","0.0-3.0-2.0-1.0","","","","","","[{""stimulus"":""https://ziweizhang0304.github.io/Stats_learning_trig/img/Stim/FN_022_g.png"",""time"":341.5999999999767},{""stimulus"":""blank"",""time"":646.8999999999942},{""stimulus"":""https://ziweizhang0304.github.io/Stats_learning_trig/img/Stim/FN_018_g.png"",""time"":680.7999999999884},{""stimulus"":""blank"",""time"":986.1999999999825},{""stimulus"":""https://ziweizhang0304.github.io/Stats_learning_trig/img/Stim/FN_013_g.png"",""time"":1021.5},{""stimulus"":""blank"",""time"":1322.1999999999825},{""stimulus"":""https://ziweizhang0304.github.io/Stats_learning_trig/img/Stim/FN_015_g.png"",""time"":1360.8999999999942},{""stimulus"":""blank"",""time"":1663},{""stimulus"":""https://ziweizhang0304.github.io/Stats_learning_trig/img/Stim/FN_019_g.png"",""time"":1703.5},{""stimulus"":""blank"",""time"":2006.5999999999767},{""stimulus"":""https://ziweizhang0304.github.io/Stats_learning_trig/img/Stim/FN_009_g.png"",""time"":2045.8999999999942},{""stimulus"":""blank"",""time"":2348.2999999999884},{""stimulus"":""https://ziweizhang0304.github.io/Stats_learning_trig/img/Stim/FN_011_g.png"",""time"":2381},{""stimulus"":""blank"",""time"":2684.1999999999825},{""stimulus"":""https://ziweizhang0304.github.io/Stats_learning_trig/img/Stim/FN_026_g.png"",""time"":2722.6999999999825},{""stimulus"":""blank"",""time"":3023.5999999999767},{""stimulus"":""https://ziweizhang0304.github.io/Stats_learning_trig/img/Stim/FN_006_g.png"",""time"":3061.1999999999825},{""stimulus"":""blank"",""time"":3362.399999999994},{""stimulus"":""https://ziweizhang0304.github.io/Stats_learning_trig/img/Stim/FN_023_g.png"",""time"":3403.5},{""stimulus"":""blank"",""time"":3706.5},{""stimulus"":""https://ziweizhang0304.github.io/Stats_learning_trig/img/Stim/FN_004_g.png"",""time"":3741.0999999999767},{""stimulus"":""blank"",""time"":4045.1999999999825},{""stimulus"":""https://ziweizhang0304.github.io/Stats_learning_trig/img/Stim/FN_002_g.png"",""time"":4085.0999999999767},{""stimulus"":""blank"",""time"":4386.5}]","[{""key_press"":32,""rt"":2749,""stimulus"":""https://ziweizhang0304.github.io/Stats_learning_trig/img/Stim/FN_026_g.png""}]","368","https://ziweizhang0304.github.io/Stats_learning_trig/img/Stim/FN_011_g.png","post_prac","","","","","","","","","","","","",""
"","html-keyboard-response","11","133936","0.0-3.0-2.0-2.0","2561.8000000000175","","","<p>Your reaction time for this trial was 368 ms.</p><p>Remember that you should only press the SPACEBAR when you see the shape presented at the beginning of the trial. </b> </p><p>Press enter to move on.</p>","13","","","","","","","","","","","","","","","","","",""
"","instructions","12","136246","0.0-4.0","2309","","[{""page_index"":0,""viewing_time"":2308.5}]","","","","","","","","","","","","","","","","","","","",""
"","image-keyboard-response","13","138832","0.0-5.0-0.0-0.0","2585.3000000000175","","","https://ziweizhang0304.github.io/Stats_learning_trig/img/Stim/FN_016_g.png","13","","","","","","","","","","","","","","","","","",""
"","animation","14","143257","0.0-5.0-0.0-1.0","","","","","","[{""stimulus"":""https://ziweizhang0304.github.io/Stats_learning_trig/img/Stim/FN_004_g.png"",""time"":342.3999999999942},{""stimulus"":""blank"",""time"":647.1999999999825},{""stimulus"":""https://ziweizhang0304.github.io/Stats_learning_trig/img/Stim/FN_002_g.png"",""time"":681.8999999999942},{""stimulus"":""blank"",""time"":983.3999999999942},{""stimulus"":""https://ziweizhang0304.github.io/Stats_learning_trig/img/Stim/FN_022_g.png"",""time"":1024.3999999999942},{""stimulus"":""blank"",""time"":1325.1000000000058},{""stimulus"":""https://ziweizhang0304.github.io/Stats_learning_trig/img/Stim/FN_009_g.png"",""time"":1361.5},{""stimulus"":""blank"",""time"":1666.8999999999942},{""stimulus"":""https://ziweizhang0304.github.io/Stats_learning_trig/img/Stim/FN_019_g.png"",""time"":1705.2999999999884},{""stimulus"":""blank"",""time"":2006.8999999999942},{""stimulus"":""https://ziweizhang0304.github.io/Stats_learning_trig/img/Stim/FN_017_g.png"",""time"":2044.8999999999942},{""stimulus"":""blank"",""time"":2348.600000000006},{""stimulus"":""https://ziweizhang0304.github.io/Stats_learning_trig/img/Stim/FN_016_g.png"",""time"":2382},{""stimulus"":""blank"",""time"":2683.7999999999884},{""stimulus"":""https://ziweizhang0304.github.io/Stats_learning_trig/img/Stim/FN_025_g.png"",""time"":2724},{""stimulus"":""blank"",""time"":3026},{""stimulus"":""https://ziweizhang0304.github.io/Stats_learning_trig/img/Stim/FN_023_g.png"",""time"":3065.6999999999825},{""stimulus"":""blank"",""time"":3367.1999999999825},{""stimulus"":""https://ziweizhang0304.github.io/Stats_learning_trig/img/Stim/FN_015_g.png"",""time"":3405.600000000006},{""stimulus"":""blank"",""time"":3710.600000000006},{""stimulus"":""https://ziweizhang0304.github.io/Stats_learning_trig/img/Stim/FN_018_g.png"",""time"":3743},{""stimulus"":""blank"",""time"":4046.2999999999884},{""stimulus"":""https://ziweizhang0304.github.io/Stats_learning_trig/img/Stim/FN_013_g.png"",""time"":4082.100000000006},{""stimulus"":""blank"",""time"":4383.6999999999825}]","[{""key_press"":32,""rt"":2762.8000000000175,""stimulus"":""https://ziweizhang0304.github.io/Stats_learning_trig/img/Stim/FN_025_g.png""}]","380.80000000001746","https://ziweizhang0304.github.io/Stats_learning_trig/img/Stim/FN_016_g.png","post_TD","1","2382","2762.8000000000175","fast","7","2","6110af22d84e8b4c36b2f254","","","","","",""
"","image-keyboard-response","15","147353","0.0-5.0-1.0-0.0","4093.7999999999884","","","https://ziweizhang0304.github.io/Stats_learning_trig/img/Stim/FN_017_g.png","13","","","","","","","","","","","","","","","","","",""
"","animation","16","151776","0.0-5.0-1.0-1.0","","","","","","[{""stimulus"":""https://ziweizhang0304.github.io/Stats_learning_trig/img/Stim/FN_015_g.png"",""time"":346.0999999999767},{""stimulus"":""blank"",""time"":649.0999999999767},{""stimulus"":""https://ziweizhang0304.github.io/Stats_learning_trig/img/Stim/FN_009_g.png"",""time"":682.0999999999767},{""stimulus"":""blank"",""time"":985.5},{""stimulus"":""https://ziweizhang0304.github.io/Stats_learning_trig/img/Stim/FN_002_g.png"",""time"":1025.0999999999767},{""stimulus"":""blank"",""time"":1330.1999999999534},{""stimulus"":""https://ziweizhang0304.github.io/Stats_learning_trig/img/Stim/FN_023_g.png"",""time"":1361.6999999999534},{""stimulus"":""blank"",""time"":1663.6999999999534},{""stimulus"":""https://ziweizhang0304.github.io/Stats_learning_trig/img/Stim/FN_018_g.png"",""time"":1704.5},{""stimulus"":""blank"",""time"":2004.7999999999884},{""stimulus"":""https://ziweizhang0304.github.io/Stats_learning_trig/img/Stim/FN_013_g.png"",""time"":2041},{""stimulus"":""blank"",""time"":2341.1999999999534},{""stimulus"":""https://ziweizhang0304.github.io/Stats_learning_trig/img/Stim/FN_017_g.png"",""time"":2381.5},{""stimulus"":""blank"",""time"":2686.7999999999884},{""stimulus"":""https://ziweizhang0304.github.io/Stats_learning_trig/img/Stim/FN_016_g.png"",""time"":2725.1999999999534},{""stimulus"":""blank"",""time"":3030.5999999999767},{""stimulus"":""https://ziweizhang0304.github.io/Stats_learning_trig/img/Stim/FN_025_g.png"",""time"":3061.899999999965},{""stimulus"":""blank"",""time"":3363.6999999999534},{""stimulus"":""https://ziweizhang0304.github.io/Stats_learning_trig/img/Stim/FN_019_g.png"",""time"":3403.1999999999534},{""stimulus"":""blank"",""time"":3705.1999999999534},{""stimulus"":""https://ziweizhang0304.github.io/Stats_learning_trig/img/Stim/FN_004_g.png"",""time"":3745.6999999999534},{""stimulus"":""blank"",""time"":4051},{""stimulus"":""https://ziweizhang0304.github.io/Stats_learning_trig/img/Stim/FN_022_g.png"",""time"":4081.399999999965},{""stimulus"":""blank"",""time"":4386.699999999953}]","[{""key_press"":32,""rt"":2775.5,""stimulus"":""https://ziweizhang0304.github.io/Stats_learning_trig/img/Stim/FN_016_g.png""}]","394","https://ziweizhang0304.github.io/Stats_learning_trig/img/Stim/FN_017_g.png","post_TD","2","2381.5","2775.5","fast","7","1","6110af22d84e8b4c36b2f254","","","","","",""
"","image-keyboard-response","17","153430","0.0-5.0-2.0-0.0","1651.4000000000233","","","https://ziweizhang0304.github.io/Stats_learning_trig/img/Stim/FN_025_g.png","13","","","","","","","","","","","","","","","","","",""
"","animation","18","157851","0.0-5.0-2.0-1.0","","","","","","[{""stimulus"":""https://ziweizhang0304.github.io/Stats_learning_trig/img/Stim/FN_022_g.png"",""time"":344.0999999999767},{""stimulus"":""blank"",""time"":648.5},{""stimulus"":""https://ziweizhang0304.github.io/Stats_learning_trig/img/Stim/FN_019_g.png"",""time"":681.2999999999884},{""stimulus"":""blank"",""time"":983.0999999999767},{""stimulus"":""https://ziweizhang0304.github.io/Stats_learning_trig/img/Stim/FN_002_g.png"",""time"":1023.3999999999651},{""stimulus"":""blank"",""time"":1326.0999999999767},{""stimulus"":""https://ziweizhang0304.github.io/Stats_learning_trig/img/Stim/FN_017_g.png"",""time"":1364.5999999999767},{""stimulus"":""blank"",""time"":1666.0999999999767},{""stimulus"":""https://ziweizhang0304.github.io/Stats_learning_trig/img/Stim/FN_016_g.png"",""time"":1701.7000000000116},{""stimulus"":""blank"",""time"":2007.0999999999767},{""stimulus"":""https://ziweizhang0304.github.io/Stats_learning_trig/img/Stim/FN_025_g.png"",""time"":2044.5},{""stimulus"":""blank"",""time"":2348.899999999965},{""stimulus"":""https://ziweizhang0304.github.io/Stats_learning_trig/img/Stim/FN_023_g.png"",""time"":2381.5999999999767},{""stimulus"":""blank"",""time"":2682.2000000000116},{""stimulus"":""https://ziweizhang0304.github.io/Stats_learning_trig/img/Stim/FN_015_g.png"",""time"":2723.399999999965},{""stimulus"":""blank"",""time"":3026.0999999999767},{""stimulus"":""https://ziweizhang0304.github.io/Stats_learning_trig/img/Stim/FN_009_g.png"",""time"":3065.899999999965},{""stimulus"":""blank"",""time"":3371.2999999999884},{""stimulus"":""https://ziweizhang0304.github.io/Stats_learning_trig/img/Stim/FN_004_g.png"",""time"":3403.0999999999767},{""stimulus"":""blank"",""time"":3708.5},{""stimulus"":""https://ziweizhang0304.github.io/Stats_learning_trig/img/Stim/FN_018_g.png"",""time"":3744.2000000000116},{""stimulus"":""blank"",""time"":4049},{""stimulus"":""https://ziweizhang0304.github.io/Stats_learning_trig/img/Stim/FN_013_g.png"",""time"":4081.7000000000116},{""stimulus"":""blank"",""time"":4383.399999999965}]","[{""key_press"":32,""rt"":2389.2999999999884,""stimulus"":""https://ziweizhang0304.github.io/Stats_learning_trig/img/Stim/FN_023_g.png""}]","344.79999999998836","https://ziweizhang0304.github.io/Stats_learning_trig/img/Stim/FN_025_g.png","post_TD","3","2044.5","2389.2999999999884","fast","6","3","6110af22d84e8b4c36b2f254","","","","","",""
"","image-keyboard-response","19","160082","0.0-5.0-3.0-0.0","2229","","","https://ziweizhang0304.github.io/Stats_learning_trig/img/Stim/FN_006_g.png","13","","","","","","","","","","","","","","","","","",""
"","animation","20","164510","0.0-5.0-3.0-1.0","","","","","","[{""stimulus"":""https://ziweizhang0304.github.io/Stats_learning_trig/img/Stim/FN_004_g.png"",""time"":344.5999999999767},{""stimulus"":""blank"",""time"":649.5999999999767},{""stimulus"":""https://ziweizhang0304.github.io/Stats_learning_trig/img/Stim/FN_022_g.png"",""time"":682.5},{""stimulus"":""blank"",""time"":985},{""stimulus"":""https://ziweizhang0304.github.io/Stats_learning_trig/img/Stim/FN_015_g.png"",""time"":1025.0999999999767},{""stimulus"":""blank"",""time"":1326.2999999999884},{""stimulus"":""https://ziweizhang0304.github.io/Stats_learning_trig/img/Stim/FN_009_g.png"",""time"":1361},{""stimulus"":""blank"",""time"":1661.6999999999534},{""stimulus"":""https://ziweizhang0304.github.io/Stats_learning_trig/img/Stim/FN_011_g.png"",""time"":1701.1999999999534},{""stimulus"":""blank"",""time"":2004.1999999999534},{""stimulus"":""https://ziweizhang0304.github.io/Stats_learning_trig/img/Stim/FN_026_g.png"",""time"":2045.2999999999884},{""stimulus"":""blank"",""time"":2347.7999999999884},{""stimulus"":""https://ziweizhang0304.github.io/Stats_learning_trig/img/Stim/FN_006_g.png"",""time"":2382.5999999999767},{""stimulus"":""blank"",""time"":2685.2999999999884},{""stimulus"":""https://ziweizhang0304.github.io/Stats_learning_trig/img/Stim/FN_019_g.png"",""time"":2725.899999999965},{""stimulus"":""blank"",""time"":3026.2999999999884},{""stimulus"":""https://ziweizhang0304.github.io/Stats_learning_trig/img/Stim/FN_023_g.png"",""time"":3060.7999999999884},{""stimulus"":""blank"",""time"":3361},{""stimulus"":""https://ziweizhang0304.github.io/Stats_learning_trig/img/Stim/FN_018_g.png"",""time"":3405.899999999965},{""stimulus"":""blank"",""time"":3711.2999999999884},{""stimulus"":""https://ziweizhang0304.github.io/Stats_learning_trig/img/Stim/FN_002_g.png"",""time"":3745.2999999999884},{""stimulus"":""blank"",""time"":4047.2999999999884},{""stimulus"":""https://ziweizhang0304.github.io/Stats_learning_trig/img/Stim/FN_013_g.png"",""time"":4082.7999999999884},{""stimulus"":""blank"",""time"":4385}]","[{""key_press"":32,""rt"":2731.3000000000466,""stimulus"":""https://ziweizhang0304.github.io/Stats_learning_trig/img/Stim/FN_019_g.png""}]","348.70000000006985","https://ziweizhang0304.github.io/Stats_learning_trig/img/Stim/FN_006_g.png","post_TD","4","2382.5999999999767","2731.3000000000466","slow","7","3","6110af22d84e8b4c36b2f254","","","","","",""
"","image-keyboard-response","21","166626","0.0-5.0-4.0-0.0","2114.600000000035","","","https://ziweizhang0304.github.io/Stats_learning_trig/img/Stim/FN_026_g.png","13","","","","","","","","","","","","","","","","","",""
"","animation","22","171048","0.0-5.0-4.0-1.0","","","","","","[{""stimulus"":""https://ziweizhang0304.github.io/Stats_learning_trig/img/Stim/FN_022_g.png"",""time"":343},{""stimulus"":""blank"",""time"":644.2000000000116},{""stimulus"":""https://ziweizhang0304.github.io/Stats_learning_trig/img/Stim/FN_018_g.png"",""time"":683.9000000000233},{""stimulus"":""blank"",""time"":985.5},{""stimulus"":""https://ziweizhang0304.github.io/Stats_learning_trig/img/Stim/FN_013_g.png"",""time"":1022.2000000000116},{""stimulus"":""blank"",""time"":1323.4000000000233},{""stimulus"":""https://ziweizhang0304.github.io/Stats_learning_trig/img/Stim/FN_015_g.png"",""time"":1365.8000000000466},{""stimulus"":""blank"",""time"":1667.100000000035},{""stimulus"":""https://ziweizhang0304.github.io/Stats_learning_trig/img/Stim/FN_019_g.png"",""time"":1706},{""stimulus"":""blank"",""time"":2010.5},{""stimulus"":""https://ziweizhang0304.github.io/Stats_learning_trig/img/Stim/FN_009_g.png"",""time"":2041.3000000000466},{""stimulus"":""blank"",""time"":2344.7000000000116},{""stimulus"":""https://ziweizhang0304.github.io/Stats_learning_trig/img/Stim/FN_011_g.png"",""time"":2383.9000000000233},{""stimulus"":""blank"",""time"":2684.600000000035},{""stimulus"":""https://ziweizhang0304.github.io/Stats_learning_trig/img/Stim/FN_026_g.png"",""time"":2721.600000000035},{""stimulus"":""blank"",""time"":3023.5},{""stimulus"":""https://ziweizhang0304.github.io/Stats_learning_trig/img/Stim/FN_006_g.png"",""time"":3065.9000000000233},{""stimulus"":""blank"",""time"":3371.2000000000116},{""stimulus"":""https://ziweizhang0304.github.io/Stats_learning_trig/img/Stim/FN_023_g.png"",""time"":3403.5},{""stimulus"":""blank"",""time"":3708.9000000000233},{""stimulus"":""https://ziweizhang0304.github.io/Stats_learning_trig/img/Stim/FN_004_g.png"",""time"":3743.5},{""stimulus"":""blank"",""time"":4046.9000000000233},{""stimulus"":""https://ziweizhang0304.github.io/Stats_learning_trig/img/Stim/FN_002_g.png"",""time"":4083.9000000000233},{""stimulus"":""blank"",""time"":4385.100000000035}]","[{""key_press"":32,""rt"":3129.7999999999884,""stimulus"":""https://ziweizhang0304.github.io/Stats_learning_trig/img/Stim/FN_006_g.png""}]","408.19999999995343","https://ziweizhang0304.github.io/Stats_learning_trig/img/Stim/FN_026_g.png","post_TD","5","2721.600000000035","3129.7999999999884","slow","8","2","6110af22d84e8b4c36b2f254","","","","","",""
"","image-keyboard-response","23","173233","0.0-5.0-5.0-0.0","2183.7000000000116","","","https://ziweizhang0304.github.io/Stats_learning_trig/img/Stim/FN_026_g.png","13","","","","","","","","","","","","","","","","","",""
"","animation","24","177657","0.0-5.0-5.0-1.0","","","","","","[{""stimulus"":""https://ziweizhang0304.github.io/Stats_learning_trig/img/Stim/FN_004_g.png"",""time"":345},{""stimulus"":""blank"",""time"":650.3999999999651},{""stimulus"":""https://ziweizhang0304.github.io/Stats_learning_trig/img/Stim/FN_022_g.png"",""time"":682.2999999999884},{""stimulus"":""blank"",""time"":983.0999999999767},{""stimulus"":""https://ziweizhang0304.github.io/Stats_learning_trig/img/Stim/FN_015_g.png"",""time"":1024.5999999999767},{""stimulus"":""blank"",""time"":1325.0999999999767},{""stimulus"":""https://ziweizhang0304.github.io/Stats_learning_trig/img/Stim/FN_009_g.png"",""time"":1365.899999999965},{""stimulus"":""blank"",""time"":1671.2000000000116},{""stimulus"":""https://ziweizhang0304.github.io/Stats_learning_trig/img/Stim/FN_011_g.png"",""time"":1701.7000000000116},{""stimulus"":""blank"",""time"":2006.7000000000116},{""stimulus"":""https://ziweizhang0304.github.io/Stats_learning_trig/img/Stim/FN_026_g.png"",""time"":2045.2999999999884},{""stimulus"":""blank"",""time"":2350.5999999999767},{""stimulus"":""https://ziweizhang0304.github.io/Stats_learning_trig/img/Stim/FN_006_g.png"",""time"":2382.399999999965},{""stimulus"":""blank"",""time"":2684.2999999999884},{""stimulus"":""https://ziweizhang0304.github.io/Stats_learning_trig/img/Stim/FN_019_g.png"",""time"":2724.399999999965},{""stimulus"":""blank"",""time"":3024.5999999999767},{""stimulus"":""https://ziweizhang0304.github.io/Stats_learning_trig/img/Stim/FN_023_g.png"",""time"":3063},{""stimulus"":""blank"",""time"":3368.2999999999884},{""stimulus"":""https://ziweizhang0304.github.io/Stats_learning_trig/img/Stim/FN_018_g.png"",""time"":3401.2999999999884},{""stimulus"":""blank"",""time"":3706.7000000000116},{""stimulus"":""https://ziweizhang0304.github.io/Stats_learning_trig/img/Stim/FN_002_g.png"",""time"":3745.2000000000116},{""stimulus"":""blank"",""time"":4050.5999999999767},{""stimulus"":""https://ziweizhang0304.github.io/Stats_learning_trig/img/Stim/FN_013_g.png"",""time"":4082.5},{""stimulus"":""blank"",""time"":4384.299999999988}]","[{""key_press"":32,""rt"":2476.5,""stimulus"":""https://ziweizhang0304.github.io/Stats_learning_trig/img/Stim/FN_006_g.png""}]","431.20000000001164","https://ziweizhang0304.github.io/Stats_learning_trig/img/Stim/FN_026_g.png","post_TD","6","2045.2999999999884","2476.5","slow","6","2","6110af22d84e8b4c36b2f254","","","","","",""
"","image-keyboard-response","25","179453","0.0-5.0-6.0-0.0","1793.9000000000233","","","https://ziweizhang0304.github.io/Stats_learning_trig/img/Stim/FN_011_g.png","13","","","","","","","","","","","","","","","","","",""
"","animation","26","183878","0.0-5.0-6.0-1.0","","","","","","[{""stimulus"":""https://ziweizhang0304.github.io/Stats_learning_trig/img/Stim/FN_018_g.png"",""time"":346},{""stimulus"":""blank"",""time"":651.4000000000233},{""stimulus"":""https://ziweizhang0304.github.io/Stats_learning_trig/img/Stim/FN_009_g.png"",""time"":681.4000000000233},{""stimulus"":""blank"",""time"":986.7000000000116},{""stimulus"":""https://ziweizhang0304.github.io/Stats_learning_trig/img/Stim/FN_022_g.png"",""time"":1025},{""stimulus"":""blank"",""time"":1328.7999999999884},{""stimulus"":""https://ziweizhang0304.github.io/Stats_learning_trig/img/Stim/FN_011_g.png"",""time"":1363},{""stimulus"":""blank"",""time"":1664.7999999999884},{""stimulus"":""https://ziweizhang0304.github.io/Stats_learning_trig/img/Stim/FN_026_g.png"",""time"":1701.5999999999767},{""stimulus"":""blank"",""time"":2004.7000000000116},{""stimulus"":""https://ziweizhang0304.github.io/Stats_learning_trig/img/Stim/FN_006_g.png"",""time"":2044.9000000000233},{""stimulus"":""blank"",""time"":2348.2999999999884},{""stimulus"":""https://ziweizhang0304.github.io/Stats_learning_trig/img/Stim/FN_019_g.png"",""time"":2381.5},{""stimulus"":""blank"",""time"":2686.9000000000233},{""stimulus"":""https://ziweizhang0304.github.io/Stats_learning_trig/img/Stim/FN_023_g.png"",""time"":2723.9000000000233},{""stimulus"":""blank"",""time"":3028.9000000000233},{""stimulus"":""https://ziweizhang0304.github.io/Stats_learning_trig/img/Stim/FN_015_g.png"",""time"":3062.7000000000116},{""stimulus"":""blank"",""time"":3364.4000000000233},{""stimulus"":""https://ziweizhang0304.github.io/Stats_learning_trig/img/Stim/FN_004_g.png"",""time"":3404.0999999999767},{""stimulus"":""blank"",""time"":3704.9000000000233},{""stimulus"":""https://ziweizhang0304.github.io/Stats_learning_trig/img/Stim/FN_002_g.png"",""time"":3745.7999999999884},{""stimulus"":""blank"",""time"":4046},{""stimulus"":""https://ziweizhang0304.github.io/Stats_learning_trig/img/Stim/FN_013_g.png"",""time"":4081.7999999999884},{""stimulus"":""blank"",""time"":4387.099999999977}]","[{""key_press"":32,""rt"":1689.8000000000466,""stimulus"":""blank""}]","326.80000000004657","https://ziweizhang0304.github.io/Stats_learning_trig/img/Stim/FN_011_g.png","post_TD","7","1363","1689.8000000000466","slow","4","1","6110af22d84e8b4c36b2f254","","","","","",""
"","image-keyboard-response","27","185327","0.0-5.0-7.0-0.0","1446.7999999999884","","","https://ziweizhang0304.github.io/Stats_learning_trig/img/Stim/FN_011_g.png","13","","","","","","","","","","","","","","","","","",""
"","animation","28","189749","0.0-5.0-7.0-1.0","","","","","","[{""stimulus"":""https://ziweizhang0304.github.io/Stats_learning_trig/img/Stim/FN_013_g.png"",""time"":343.5},{""stimulus"":""blank"",""time"":647.4000000000233},{""stimulus"":""https://ziweizhang0304.github.io/Stats_learning_trig/img/Stim/FN_009_g.png"",""time"":683.2000000000116},{""stimulus"":""blank"",""time"":983.7999999999884},{""stimulus"":""https://ziweizhang0304.github.io/Stats_learning_trig/img/Stim/FN_002_g.png"",""time"":1021.7999999999884},{""stimulus"":""blank"",""time"":1323.5},{""stimulus"":""https://ziweizhang0304.github.io/Stats_learning_trig/img/Stim/FN_022_g.png"",""time"":1365.9000000000233},{""stimulus"":""blank"",""time"":1671.2000000000116},{""stimulus"":""https://ziweizhang0304.github.io/Stats_learning_trig/img/Stim/FN_019_g.png"",""time"":1703.5},{""stimulus"":""blank"",""time"":2008.7999999999884},{""stimulus"":""https://ziweizhang0304.github.io/Stats_learning_trig/img/Stim/FN_011_g.png"",""time"":2041.9000000000233},{""stimulus"":""blank"",""time"":2345.100000000035},{""stimulus"":""https://ziweizhang0304.github.io/Stats_learning_trig/img/Stim/FN_026_g.png"",""time"":2382.2999999999884},{""stimulus"":""blank"",""time"":2682.9000000000233},{""stimulus"":""https://ziweizhang0304.github.io/Stats_learning_trig/img/Stim/FN_006_g.png"",""time"":2723},{""stimulus"":""blank"",""time"":3025},{""stimulus"":""https://ziweizhang0304.github.io/Stats_learning_trig/img/Stim/FN_023_g.png"",""time"":3065.7000000000116},{""stimulus"":""blank"",""time"":3371.100000000035},{""stimulus"":""https://ziweizhang0304.github.io/Stats_learning_trig/img/Stim/FN_015_g.png"",""time"":3401.5},{""stimulus"":""blank"",""time"":3702.7999999999884},{""stimulus"":""https://ziweizhang0304.github.io/Stats_learning_trig/img/Stim/FN_004_g.png"",""time"":3740.7999999999884},{""stimulus"":""blank"",""time"":4044.4000000000233},{""stimulus"":""https://ziweizhang0304.github.io/Stats_learning_trig/img/Stim/FN_018_g.png"",""time"":4083.2999999999884},{""stimulus"":""blank"",""time"":4384}]","[{""key_press"":32,""rt"":2016.7000000000116,""stimulus"":""blank""}]","NaN","https://ziweizhang0304.github.io/Stats_learning_trig/img/Stim/FN_011_g.png","post_TD","8","2041.9000000000233","","slow","6","1","6110af22d84e8b4c36b2f254","","","","","",""
"","image-keyboard-response","29","191310","0.0-5.0-8.0-0.0","1558.5","","","https://ziweizhang0304.github.io/Stats_learning_trig/img/Stim/FN_026_g.png","13","","","","","","","","","","","","","","","","","",""
"","animation","30","195736","0.0-5.0-8.0-1.0","","","","","","[{""stimulus"":""https://ziweizhang0304.github.io/Stats_learning_trig/img/Stim/FN_013_g.png"",""time"":342.5},{""stimulus"":""blank"",""time"":645.0999999999767},{""stimulus"":""https://ziweizhang0304.github.io/Stats_learning_trig/img/Stim/FN_009_g.png"",""time"":685.7999999999884},{""stimulus"":""blank"",""time"":987.8999999999651},{""stimulus"":""https://ziweizhang0304.github.io/Stats_learning_trig/img/Stim/FN_002_g.png"",""time"":1023.5999999999767},{""stimulus"":""blank"",""time"":1326.7999999999884},{""stimulus"":""https://ziweizhang0304.github.io/Stats_learning_trig/img/Stim/FN_022_g.png"",""time"":1364.2999999999884},{""stimulus"":""blank"",""time"":1668.6999999999534},{""stimulus"":""https://ziweizhang0304.github.io/Stats_learning_trig/img/Stim/FN_019_g.png"",""time"":1700.5999999999767},{""stimulus"":""blank"",""time"":2001.2999999999884},{""stimulus"":""https://ziweizhang0304.github.io/Stats_learning_trig/img/Stim/FN_011_g.png"",""time"":2041.7999999999884},{""stimulus"":""blank"",""time"":2343.1999999999534},{""stimulus"":""https://ziweizhang0304.github.io/Stats_learning_trig/img/Stim/FN_026_g.png"",""time"":2385.7999999999884},{""stimulus"":""blank"",""time"":2688.399999999965},{""stimulus"":""https://ziweizhang0304.github.io/Stats_learning_trig/img/Stim/FN_006_g.png"",""time"":2724.0999999999767},{""stimulus"":""blank"",""time"":3029.399999999965},{""stimulus"":""https://ziweizhang0304.github.io/Stats_learning_trig/img/Stim/FN_023_g.png"",""time"":3064.5999999999767},{""stimulus"":""blank"",""time"":3369.0999999999767},{""stimulus"":""https://ziweizhang0304.github.io/Stats_learning_trig/img/Stim/FN_015_g.png"",""time"":3400.5999999999767},{""stimulus"":""blank"",""time"":3702.1999999999534},{""stimulus"":""https://ziweizhang0304.github.io/Stats_learning_trig/img/Stim/FN_004_g.png"",""time"":3742},{""stimulus"":""blank"",""time"":4044.399999999965},{""stimulus"":""https://ziweizhang0304.github.io/Stats_learning_trig/img/Stim/FN_018_g.png"",""time"":4080.5999999999767},{""stimulus"":""blank"",""time"":4386}]","[{""key_press"":32,""rt"":2779.7999999999884,""stimulus"":""https://ziweizhang0304.github.io/Stats_learning_trig/img/Stim/FN_006_g.png""}]","394","https://ziweizhang0304.github.io/Stats_learning_trig/img/Stim/FN_026_g.png","post_TD","9","2385.7999999999884","2779.7999999999884","slow","7","2","6110af22d84e8b4c36b2f254","","","","","",""
"","image-keyboard-response","31","197175","0.0-5.0-9.0-0.0","1438","","","https://ziweizhang0304.github.io/Stats_learning_trig/img/Stim/FN_006_g.png","13","","","","","","","","","","","","","","","","","",""
"","animation","32","201602","0.0-5.0-9.0-1.0","","","","","","[{""stimulus"":""https://ziweizhang0304.github.io/Stats_learning_trig/img/Stim/FN_018_g.png"",""time"":342.5},{""stimulus"":""blank"",""time"":644.8000000000466},{""stimulus"":""https://ziweizhang0304.github.io/Stats_learning_trig/img/Stim/FN_009_g.png"",""time"":683.8000000000466},{""stimulus"":""blank"",""time"":984.3000000000466},{""stimulus"":""https://ziweizhang0304.github.io/Stats_learning_trig/img/Stim/FN_022_g.png"",""time"":1025.9000000000233},{""stimulus"":""blank"",""time"":1331.3000000000466},{""stimulus"":""https://ziweizhang0304.github.io/Stats_learning_trig/img/Stim/FN_011_g.png"",""time"":1362.4000000000233},{""stimulus"":""blank"",""time"":1667.7000000000116},{""stimulus"":""https://ziweizhang0304.github.io/Stats_learning_trig/img/Stim/FN_026_g.png"",""time"":1705.8000000000466},{""stimulus"":""blank"",""time"":2008.9000000000233},{""stimulus"":""https://ziweizhang0304.github.io/Stats_learning_trig/img/Stim/FN_006_g.png"",""time"":2043.3000000000466},{""stimulus"":""blank"",""time"":2344},{""stimulus"":""https://ziweizhang0304.github.io/Stats_learning_trig/img/Stim/FN_019_g.png"",""time"":2383.7000000000116},{""stimulus"":""blank"",""time"":2684.4000000000233},{""stimulus"":""https://ziweizhang0304.github.io/Stats_learning_trig/img/Stim/FN_023_g.png"",""time"":2725.9000000000233},{""stimulus"":""blank"",""time"":3031.3000000000466},{""stimulus"":""https://ziweizhang0304.github.io/Stats_learning_trig/img/Stim/FN_015_g.png"",""time"":3061.7000000000116},{""stimulus"":""blank"",""time"":3362.8000000000466},{""stimulus"":""https://ziweizhang0304.github.io/Stats_learning_trig/img/Stim/FN_004_g.png"",""time"":3405.9000000000233},{""stimulus"":""blank"",""time"":3711.2000000000116},{""stimulus"":""https://ziweizhang0304.github.io/Stats_learning_trig/img/Stim/FN_002_g.png"",""time"":3742},{""stimulus"":""blank"",""time"":4045.2000000000116},{""stimulus"":""https://ziweizhang0304.github.io/Stats_learning_trig/img/Stim/FN_013_g.png"",""time"":4083.7000000000116},{""stimulus"":""blank"",""time"":4384.400000000023}]","[{""key_press"":32,""rt"":2341.7000000000116,""stimulus"":""https://ziweizhang0304.github.io/Stats_learning_trig/img/Stim/FN_006_g.png""}]","298.3999999999651","https://ziweizhang0304.github.io/Stats_learning_trig/img/Stim/FN_006_g.png","post_TD","10","2043.3000000000466","2341.7000000000116","slow","6","3","6110af22d84e8b4c36b2f254","","","","","",""
"","image-keyboard-response","33","202810","0.0-5.0-10.0-0.0","1206.6999999999534","","","https://ziweizhang0304.github.io/Stats_learning_trig/img/Stim/FN_016_g.png","13","","","","","","","","","","","","","","","","","",""
"","animation","34","207234","0.0-5.0-10.0-1.0","","","","","","[{""stimulus"":""https://ziweizhang0304.github.io/Stats_learning_trig/img/Stim/FN_022_g.png"",""time"":342.70000000001164},{""stimulus"":""blank"",""time"":645.3999999999651},{""stimulus"":""https://ziweizhang0304.github.io/Stats_learning_trig/img/Stim/FN_019_g.png"",""time"":686},{""stimulus"":""blank"",""time"":991.2999999999884},{""stimulus"":""https://ziweizhang0304.github.io/Stats_learning_trig/img/Stim/FN_002_g.png"",""time"":1022.7999999999884},{""stimulus"":""blank"",""time"":1326.2000000000116},{""stimulus"":""https://ziweizhang0304.github.io/Stats_learning_trig/img/Stim/FN_017_g.png"",""time"":1364.5},{""stimulus"":""blank"",""time"":1668.899999999965},{""stimulus"":""https://ziweizhang0304.github.io/Stats_learning_trig/img/Stim/FN_016_g.png"",""time"":1700.899999999965},{""stimulus"":""blank"",""time"":2001.899999999965},{""stimulus"":""https://ziweizhang0304.github.io/Stats_learning_trig/img/Stim/FN_025_g.png"",""time"":2042.2999999999884},{""stimulus"":""blank"",""time"":2345.899999999965},{""stimulus"":""https://ziweizhang0304.github.io/Stats_learning_trig/img/Stim/FN_023_g.png"",""time"":2385.899999999965},{""stimulus"":""blank"",""time"":2691.2999999999884},{""stimulus"":""https://ziweizhang0304.github.io/Stats_learning_trig/img/Stim/FN_015_g.png"",""time"":2723.7999999999884},{""stimulus"":""blank"",""time"":3025.7000000000116},{""stimulus"":""https://ziweizhang0304.github.io/Stats_learning_trig/img/Stim/FN_009_g.png"",""time"":3061.5},{""stimulus"":""blank"",""time"":3365.5},{""stimulus"":""https://ziweizhang0304.github.io/Stats_learning_trig/img/Stim/FN_004_g.png"",""time"":3401},{""stimulus"":""blank"",""time"":3701.7000000000116},{""stimulus"":""https://ziweizhang0304.github.io/Stats_learning_trig/img/Stim/FN_018_g.png"",""time"":3742.5},{""stimulus"":""blank"",""time"":4044.5999999999767},{""stimulus"":""https://ziweizhang0304.github.io/Stats_learning_trig/img/Stim/FN_013_g.png"",""time"":4085.899999999965},{""stimulus"":""blank"",""time"":4391.299999999988}]","[{""key_press"":32,""rt"":2050.5,""stimulus"":""https://ziweizhang0304.github.io/Stats_learning_trig/img/Stim/FN_025_g.png""}]","349.6000000000349","https://ziweizhang0304.github.io/Stats_learning_trig/img/Stim/FN_016_g.png","post_TD","11","1700.899999999965","2050.5","fast","5","2","6110af22d84e8b4c36b2f254","","","","","",""
"","image-keyboard-response","35","208364","0.0-5.0-11.0-0.0","1127.5","","","https://ziweizhang0304.github.io/Stats_learning_trig/img/Stim/FN_016_g.png","13","","","","","","","","","","","","","","","","","",""
"","animation","36","212787","0.0-5.0-11.0-1.0","","","","","","[{""stimulus"":""https://ziweizhang0304.github.io/Stats_learning_trig/img/Stim/FN_002_g.png"",""time"":342.5999999999767},{""stimulus"":""blank"",""time"":646.1999999999534},{""stimulus"":""https://ziweizhang0304.github.io/Stats_learning_trig/img/Stim/FN_009_g.png"",""time"":681},{""stimulus"":""blank"",""time"":982.5999999999767},{""stimulus"":""https://ziweizhang0304.github.io/Stats_learning_trig/img/Stim/FN_018_g.png"",""time"":1025.7999999999884},{""stimulus"":""blank"",""time"":1329.7999999999884},{""stimulus"":""https://ziweizhang0304.github.io/Stats_learning_trig/img/Stim/FN_023_g.png"",""time"":1365.2999999999884},{""stimulus"":""blank"",""time"":1670.399999999965},{""stimulus"":""https://ziweizhang0304.github.io/Stats_learning_trig/img/Stim/FN_017_g.png"",""time"":1702.7999999999884},{""stimulus"":""blank"",""time"":2005.399999999965},{""stimulus"":""https://ziweizhang0304.github.io/Stats_learning_trig/img/Stim/FN_016_g.png"",""time"":2045.2999999999884},{""stimulus"":""blank"",""time"":2346.1999999999534},{""stimulus"":""https://ziweizhang0304.github.io/Stats_learning_trig/img/Stim/FN_025_g.png"",""time"":2380.7999999999884},{""stimulus"":""blank"",""time"":2681.399999999965},{""stimulus"":""https://ziweizhang0304.github.io/Stats_learning_trig/img/Stim/FN_019_g.png"",""time"":2722.399999999965},{""stimulus"":""blank"",""time"":3022.399999999965},{""stimulus"":""https://ziweizhang0304.github.io/Stats_learning_trig/img/Stim/FN_015_g.png"",""time"":3062.899999999965},{""stimulus"":""blank"",""time"":3364.7999999999884},{""stimulus"":""https://ziweizhang0304.github.io/Stats_learning_trig/img/Stim/FN_004_g.png"",""time"":3401.899999999965},{""stimulus"":""blank"",""time"":3702.0999999999767},{""stimulus"":""https://ziweizhang0304.github.io/Stats_learning_trig/img/Stim/FN_022_g.png"",""time"":3745.7999999999884},{""stimulus"":""blank"",""time"":4046.399999999965},{""stimulus"":""https://ziweizhang0304.github.io/Stats_learning_trig/img/Stim/FN_013_g.png"",""time"":4080.899999999965},{""stimulus"":""blank"",""time"":4381.5}]","[{""key_press"":32,""rt"":2399.7999999999884,""stimulus"":""https://ziweizhang0304.github.io/Stats_learning_trig/img/Stim/FN_025_g.png""}]","354.5","https://ziweizhang0304.github.io/Stats_learning_trig/img/Stim/FN_016_g.png","post_TD","12","2045.2999999999884","2399.7999999999884","fast","6","2","6110af22d84e8b4c36b2f254","","","","","",""
"","image-keyboard-response","37","213780","0.0-5.0-12.0-0.0","990.9000000000233","","","https://ziweizhang0304.github.io/Stats_learning_trig/img/Stim/FN_025_g.png","13","","","","","","","","","","","","","","","","","",""
"","animation","38","218206","0.0-5.0-12.0-1.0","","","","","","[{""stimulus"":""https://ziweizhang0304.github.io/Stats_learning_trig/img/Stim/FN_015_g.png"",""time"":343.70000000001164},{""stimulus"":""blank"",""time"":647.5},{""stimulus"":""https://ziweizhang0304.github.io/Stats_learning_trig/img/Stim/FN_009_g.png"",""time"":681.2000000000116},{""stimulus"":""blank"",""time"":982.5},{""stimulus"":""https://ziweizhang0304.github.io/Stats_learning_trig/img/Stim/FN_002_g.png"",""time"":1022.2000000000116},{""stimulus"":""blank"",""time"":1326.2999999999884},{""stimulus"":""https://ziweizhang0304.github.io/Stats_learning_trig/img/Stim/FN_023_g.png"",""time"":1361},{""stimulus"":""blank"",""time"":1663.5},{""stimulus"":""https://ziweizhang0304.github.io/Stats_learning_trig/img/Stim/FN_018_g.png"",""time"":1706},{""stimulus"":""blank"",""time"":2008},{""stimulus"":""https://ziweizhang0304.github.io/Stats_learning_trig/img/Stim/FN_013_g.png"",""time"":2043.399999999965},{""stimulus"":""blank"",""time"":2345.399999999965},{""stimulus"":""https://ziweizhang0304.github.io/Stats_learning_trig/img/Stim/FN_017_g.png"",""time"":2381},{""stimulus"":""blank"",""time"":2682.0999999999767},{""stimulus"":""https://ziweizhang0304.github.io/Stats_learning_trig/img/Stim/FN_016_g.png"",""time"":2725.5999999999767},{""stimulus"":""blank"",""time"":3029.899999999965},{""stimulus"":""https://ziweizhang0304.github.io/Stats_learning_trig/img/Stim/FN_025_g.png"",""time"":3063.7000000000116},{""stimulus"":""blank"",""time"":3364},{""stimulus"":""https://ziweizhang0304.github.io/Stats_learning_trig/img/Stim/FN_019_g.png"",""time"":3402.7000000000116},{""stimulus"":""blank"",""time"":3708},{""stimulus"":""https://ziweizhang0304.github.io/Stats_learning_trig/img/Stim/FN_004_g.png"",""time"":3744.5999999999767},{""stimulus"":""blank"",""time"":4048.5999999999767},{""stimulus"":""https://ziweizhang0304.github.io/Stats_learning_trig/img/Stim/FN_022_g.png"",""time"":4082},{""stimulus"":""blank"",""time"":4383.200000000012}]","[{""key_press"":32,""rt"":3408.899999999965,""stimulus"":""https://ziweizhang0304.github.io/Stats_learning_trig/img/Stim/FN_019_g.png""}]","345.19999999995343","https://ziweizhang0304.github.io/Stats_learning_trig/img/Stim/FN_025_g.png","post_TD","13","3063.7000000000116","3408.899999999965","fast","9","3","6110af22d84e8b4c36b2f254","","","","","",""
"","image-keyboard-response","39","219176","0.0-5.0-13.0-0.0","967.7000000000116","","","https://ziweizhang0304.github.io/Stats_learning_trig/img/Stim/FN_011_g.png","13","","","","","","","","","","","","","","","","","",""
"","animation","40","223602","0.0-5.0-13.0-1.0","","","","","","[{""stimulus"":""https://ziweizhang0304.github.io/Stats_learning_trig/img/Stim/FN_004_g.png"",""time"":342.6000000000349},{""stimulus"":""blank"",""time"":645.6000000000349},{""stimulus"":""https://ziweizhang0304.github.io/Stats_learning_trig/img/Stim/FN_022_g.png"",""time"":683.3000000000466},{""stimulus"":""blank"",""time"":984.2000000000116},{""stimulus"":""https://ziweizhang0304.github.io/Stats_learning_trig/img/Stim/FN_015_g.png"",""time"":1022.4000000000233},{""stimulus"":""blank"",""time"":1324.8000000000466},{""stimulus"":""https://ziweizhang0304.github.io/Stats_learning_trig/img/Stim/FN_009_g.png"",""time"":1361},{""stimulus"":""blank"",""time"":1666.4000000000233},{""stimulus"":""https://ziweizhang0304.github.io/Stats_learning_trig/img/Stim/FN_011_g.png"",""time"":1705.9000000000233},{""stimulus"":""blank"",""time"":2011.3000000000466},{""stimulus"":""https://ziweizhang0304.github.io/Stats_learning_trig/img/Stim/FN_026_g.png"",""time"":2043.100000000035},{""stimulus"":""blank"",""time"":2345.7000000000116},{""stimulus"":""https://ziweizhang0304.github.io/Stats_learning_trig/img/Stim/FN_006_g.png"",""time"":2383.3000000000466},{""stimulus"":""blank"",""time"":2684.100000000035},{""stimulus"":""https://ziweizhang0304.github.io/Stats_learning_trig/img/Stim/FN_019_g.png"",""time"":2726},{""stimulus"":""blank"",""time"":3028.600000000035},{""stimulus"":""https://ziweizhang0304.github.io/Stats_learning_trig/img/Stim/FN_023_g.png"",""time"":3061.3000000000466},{""stimulus"":""blank"",""time"":3366.600000000035},{""stimulus"":""https://ziweizhang0304.github.io/Stats_learning_trig/img/Stim/FN_018_g.png"",""time"":3405.9000000000233},{""stimulus"":""blank"",""time"":3711.3000000000466},{""stimulus"":""https://ziweizhang0304.github.io/Stats_learning_trig/img/Stim/FN_002_g.png"",""time"":3742.100000000035},{""stimulus"":""blank"",""time"":4044.5},{""stimulus"":""https://ziweizhang0304.github.io/Stats_learning_trig/img/Stim/FN_013_g.png"",""time"":4083.4000000000233},{""stimulus"":""blank"",""time"":4383.900000000023}]","[{""key_press"":32,""rt"":2053.7000000000116,""stimulus"":""https://ziweizhang0304.github.io/Stats_learning_trig/img/Stim/FN_026_g.png""}]","347.79999999998836","https://ziweizhang0304.github.io/Stats_learning_trig/img/Stim/FN_011_g.png","post_TD","14","1705.9000000000233","2053.7000000000116","slow","5","1","6110af22d84e8b4c36b2f254","","","","","",""
"","image-keyboard-response","41","224918","0.0-5.0-14.0-0.0","1313.5","","","https://ziweizhang0304.github.io/Stats_learning_trig/img/Stim/FN_006_g.png","13","","","","","","","","","","","","","","","","","",""
"","animation","42","229339","0.0-5.0-14.0-1.0","","","","","","[{""stimulus"":""https://ziweizhang0304.github.io/Stats_learning_trig/img/Stim/FN_013_g.png"",""time"":341},{""stimulus"":""blank"",""time"":642.1000000000349},{""stimulus"":""https://ziweizhang0304.github.io/Stats_learning_trig/img/Stim/FN_009_g.png"",""time"":685.9000000000233},{""stimulus"":""blank"",""time"":991.2000000000116},{""stimulus"":""https://ziweizhang0304.github.io/Stats_learning_trig/img/Stim/FN_002_g.png"",""time"":1021},{""stimulus"":""blank"",""time"":1326},{""stimulus"":""https://ziweizhang0304.github.io/Stats_learning_trig/img/Stim/FN_022_g.png"",""time"":1361.4000000000233},{""stimulus"":""blank"",""time"":1666.7999999999884},{""stimulus"":""https://ziweizhang0304.github.io/Stats_learning_trig/img/Stim/FN_019_g.png"",""time"":1701.9000000000233},{""stimulus"":""blank"",""time"":2004.600000000035},{""stimulus"":""https://ziweizhang0304.github.io/Stats_learning_trig/img/Stim/FN_011_g.png"",""time"":2041.600000000035},{""stimulus"":""blank"",""time"":2342.100000000035},{""stimulus"":""https://ziweizhang0304.github.io/Stats_learning_trig/img/Stim/FN_026_g.png"",""time"":2383.7999999999884},{""stimulus"":""blank"",""time"":2686.100000000035},{""stimulus"":""https://ziweizhang0304.github.io/Stats_learning_trig/img/Stim/FN_006_g.png"",""time"":2721.100000000035},{""stimulus"":""blank"",""time"":3021.600000000035},{""stimulus"":""https://ziweizhang0304.github.io/Stats_learning_trig/img/Stim/FN_023_g.png"",""time"":3064.7999999999884},{""stimulus"":""blank"",""time"":3368.100000000035},{""stimulus"":""https://ziweizhang0304.github.io/Stats_learning_trig/img/Stim/FN_015_g.png"",""time"":3402},{""stimulus"":""blank"",""time"":3704.7999999999884},{""stimulus"":""https://ziweizhang0304.github.io/Stats_learning_trig/img/Stim/FN_004_g.png"",""time"":3741.600000000035},{""stimulus"":""blank"",""time"":4042.2999999999884},{""stimulus"":""https://ziweizhang0304.github.io/Stats_learning_trig/img/Stim/FN_018_g.png"",""time"":4086},{""stimulus"":""blank"",""time"":4387.600000000035}]","[{""key_press"":32,""rt"":2675.7000000000116,""stimulus"":""https://ziweizhang0304.github.io/Stats_learning_trig/img/Stim/FN_026_g.png""}]","NaN","https://ziweizhang0304.github.io/Stats_learning_trig/img/Stim/FN_006_g.png","post_TD","15","2721.100000000035","","slow","8","3","6110af22d84e8b4c36b2f254","","","","","",""
"","image-keyboard-response","43","231005","0.0-5.0-15.0-0.0","1664.600000000035","","","https://ziweizhang0304.github.io/Stats_learning_trig/img/Stim/FN_016_g.png","13","","","","","","","","","","","","","","","","","",""
"","animation","44","235431","0.0-5.0-15.0-1.0","","","","","","[{""stimulus"":""https://ziweizhang0304.github.io/Stats_learning_trig/img/Stim/FN_015_g.png"",""time"":341.4000000000233},{""stimulus"":""blank"",""time"":642.5999999999767},{""stimulus"":""https://ziweizhang0304.github.io/Stats_learning_trig/img/Stim/FN_009_g.png"",""time"":681.9000000000233},{""stimulus"":""blank"",""time"":987.2000000000116},{""stimulus"":""https://ziweizhang0304.github.io/Stats_learning_trig/img/Stim/FN_002_g.png"",""time"":1021.4000000000233},{""stimulus"":""blank"",""time"":1326.2000000000116},{""stimulus"":""https://ziweizhang0304.github.io/Stats_learning_trig/img/Stim/FN_023_g.png"",""time"":1362.7999999999884},{""stimulus"":""blank"",""time"":1665.7999999999884},{""stimulus"":""https://ziweizhang0304.github.io/Stats_learning_trig/img/Stim/FN_018_g.png"",""time"":1704.2000000000116},{""stimulus"":""blank"",""time"":2005.5},{""stimulus"":""https://ziweizhang0304.github.io/Stats_learning_trig/img/Stim/FN_013_g.png"",""time"":2041.9000000000233},{""stimulus"":""blank"",""time"":2343.2999999999884},{""stimulus"":""https://ziweizhang0304.github.io/Stats_learning_trig/img/Stim/FN_017_g.png"",""time"":2382.5999999999767},{""stimulus"":""blank"",""time"":2684.7999999999884},{""stimulus"":""https://ziweizhang0304.github.io/Stats_learning_trig/img/Stim/FN_016_g.png"",""time"":2725.7000000000116},{""stimulus"":""blank"",""time"":3031},{""stimulus"":""https://ziweizhang0304.github.io/Stats_learning_trig/img/Stim/FN_025_g.png"",""time"":3061.2999999999884},{""stimulus"":""blank"",""time"":3364},{""stimulus"":""https://ziweizhang0304.github.io/Stats_learning_trig/img/Stim/FN_019_g.png"",""time"":3400.5999999999767},{""stimulus"":""blank"",""time"":3702.4000000000233},{""stimulus"":""https://ziweizhang0304.github.io/Stats_learning_trig/img/Stim/FN_004_g.png"",""time"":3741.5},{""stimulus"":""blank"",""time"":4042.5999999999767},{""stimulus"":""https://ziweizhang0304.github.io/Stats_learning_trig/img/Stim/FN_022_g.png"",""time"":4082.5999999999767},{""stimulus"":""blank"",""time"":4388}]","[{""key_press"":32,""rt"":3093.9000000000233,""stimulus"":""https://ziweizhang0304.github.io/Stats_learning_trig/img/Stim/FN_025_g.png""}]","368.20000000001164","https://ziweizhang0304.github.io/Stats_learning_trig/img/Stim/FN_016_g.png","post_TD","16","2725.7000000000116","3093.9000000000233","fast","8","2","6110af22d84e8b4c36b2f254","","","","","",""
"","image-keyboard-response","45","239596","0.0-5.0-16.0-0.0","4162.900000000023","","","https://ziweizhang0304.github.io/Stats_learning_trig/img/Stim/FN_017_g.png","13","","","","","","","","","","","","","","","","","",""
"","animation","46","244020","0.0-5.0-16.0-1.0","","","","","","[{""stimulus"":""https://ziweizhang0304.github.io/Stats_learning_trig/img/Stim/FN_002_g.png"",""time"":346},{""stimulus"":""blank"",""time"":647.0999999999767},{""stimulus"":""https://ziweizhang0304.github.io/Stats_learning_trig/img/Stim/FN_009_g.png"",""time"":682.5999999999767},{""stimulus"":""blank"",""time"":987.8999999999651},{""stimulus"":""https://ziweizhang0304.github.io/Stats_learning_trig/img/Stim/FN_018_g.png"",""time"":1022},{""stimulus"":""blank"",""time"":1324.399999999965},{""stimulus"":""https://ziweizhang0304.github.io/Stats_learning_trig/img/Stim/FN_023_g.png"",""time"":1361.2999999999884},{""stimulus"":""blank"",""time"":1661.5},{""stimulus"":""https://ziweizhang0304.github.io/Stats_learning_trig/img/Stim/FN_017_g.png"",""time"":1703.399999999965},{""stimulus"":""blank"",""time"":2008.7000000000116},{""stimulus"":""https://ziweizhang0304.github.io/Stats_learning_trig/img/Stim/FN_016_g.png"",""time"":2040.7999999999884},{""stimulus"":""blank"",""time"":2345.7000000000116},{""stimulus"":""https://ziweizhang0304.github.io/Stats_learning_trig/img/Stim/FN_025_g.png"",""time"":2385.899999999965},{""stimulus"":""blank"",""time"":2691.2999999999884},{""stimulus"":""https://ziweizhang0304.github.io/Stats_learning_trig/img/Stim/FN_019_g.png"",""time"":2723.899999999965},{""stimulus"":""blank"",""time"":3027.2999999999884},{""stimulus"":""https://ziweizhang0304.github.io/Stats_learning_trig/img/Stim/FN_015_g.png"",""time"":3061},{""stimulus"":""blank"",""time"":3361.5},{""stimulus"":""https://ziweizhang0304.github.io/Stats_learning_trig/img/Stim/FN_004_g.png"",""time"":3405.899999999965},{""stimulus"":""blank"",""time"":3706.899999999965},{""stimulus"":""https://ziweizhang0304.github.io/Stats_learning_trig/img/Stim/FN_022_g.png"",""time"":3741.899999999965},{""stimulus"":""blank"",""time"":4047.0999999999767},{""stimulus"":""https://ziweizhang0304.github.io/Stats_learning_trig/img/Stim/FN_013_g.png"",""time"":4082},{""stimulus"":""blank"",""time"":4386}]","[{""key_press"":32,""rt"":2120.6999999999534,""stimulus"":""https://ziweizhang0304.github.io/Stats_learning_trig/img/Stim/FN_016_g.png""}]","417.29999999998836","https://ziweizhang0304.github.io/Stats_learning_trig/img/Stim/FN_017_g.png","post_TD","17","1703.399999999965","2120.6999999999534","fast","5","1","6110af22d84e8b4c36b2f254","","","","","",""
"","image-keyboard-response","47","245299","0.0-5.0-17.0-0.0","1276.5","","","https://ziweizhang0304.github.io/Stats_learning_trig/img/Stim/FN_017_g.png","13","","","","","","","","","","","","","","","","","",""
"","animation","48","249722","0.0-5.0-17.0-1.0","","","","","","[{""stimulus"":""https://ziweizhang0304.github.io/Stats_learning_trig/img/Stim/FN_022_g.png"",""time"":345},{""stimulus"":""blank"",""time"":646.4000000000233},{""stimulus"":""https://ziweizhang0304.github.io/Stats_learning_trig/img/Stim/FN_019_g.png"",""time"":685.7999999999884},{""stimulus"":""blank"",""time"":989.9000000000233},{""stimulus"":""https://ziweizhang0304.github.io/Stats_learning_trig/img/Stim/FN_002_g.png"",""time"":1024.0999999999767},{""stimulus"":""blank"",""time"":1327.5999999999767},{""stimulus"":""https://ziweizhang0304.github.io/Stats_learning_trig/img/Stim/FN_017_g.png"",""time"":1361.7999999999884},{""stimulus"":""blank"",""time"":1663},{""stimulus"":""https://ziweizhang0304.github.io/Stats_learning_trig/img/Stim/FN_016_g.png"",""time"":1705.9000000000233},{""stimulus"":""blank"",""time"":2007.2999999999884},{""stimulus"":""https://ziweizhang0304.github.io/Stats_learning_trig/img/Stim/FN_025_g.png"",""time"":2040.7999999999884},{""stimulus"":""blank"",""time"":2344.7999999999884},{""stimulus"":""https://ziweizhang0304.github.io/Stats_learning_trig/img/Stim/FN_023_g.png"",""time"":2382.0999999999767},{""stimulus"":""blank"",""time"":2687.4000000000233},{""stimulus"":""https://ziweizhang0304.github.io/Stats_learning_trig/img/Stim/FN_015_g.png"",""time"":2723.5},{""stimulus"":""blank"",""time"":3025.7000000000116},{""stimulus"":""https://ziweizhang0304.github.io/Stats_learning_trig/img/Stim/FN_009_g.png"",""time"":3061.7999999999884},{""stimulus"":""blank"",""time"":3362},{""stimulus"":""https://ziweizhang0304.github.io/Stats_learning_trig/img/Stim/FN_004_g.png"",""time"":3405.9000000000233},{""stimulus"":""blank"",""time"":3706.2999999999884},{""stimulus"":""https://ziweizhang0304.github.io/Stats_learning_trig/img/Stim/FN_018_g.png"",""time"":3740.7999999999884},{""stimulus"":""blank"",""time"":4044.2000000000116},{""stimulus"":""https://ziweizhang0304.github.io/Stats_learning_trig/img/Stim/FN_013_g.png"",""time"":4082},{""stimulus"":""blank"",""time"":4382.799999999988}]","[{""key_press"":32,""rt"":1719.8000000000466,""stimulus"":""https://ziweizhang0304.github.io/Stats_learning_trig/img/Stim/FN_016_g.png""}]","358.0000000000582","https://ziweizhang0304.github.io/Stats_learning_trig/img/Stim/FN_017_g.png","post_TD","18","1361.7999999999884","1719.8000000000466","fast","4","1","6110af22d84e8b4c36b2f254","","","","","",""
"","image-keyboard-response","49","250610","0.0-5.0-18.0-0.0","886.1000000000349","","","https://ziweizhang0304.github.io/Stats_learning_trig/img/Stim/FN_025_g.png","13","","","","","","","","","","","","","","","","","",""
"","animation","50","255036","0.0-5.0-18.0-1.0","","","","","","[{""stimulus"":""https://ziweizhang0304.github.io/Stats_learning_trig/img/Stim/FN_002_g.png"",""time"":344.0999999999767},{""stimulus"":""blank"",""time"":647.2999999999884},{""stimulus"":""https://ziweizhang0304.github.io/Stats_learning_trig/img/Stim/FN_009_g.png"",""time"":680.7999999999884},{""stimulus"":""blank"",""time"":982.5},{""stimulus"":""https://ziweizhang0304.github.io/Stats_learning_trig/img/Stim/FN_018_g.png"",""time"":1021.9000000000233},{""stimulus"":""blank"",""time"":1324.4000000000233},{""stimulus"":""https://ziweizhang0304.github.io/Stats_learning_trig/img/Stim/FN_023_g.png"",""time"":1360.7000000000116},{""stimulus"":""blank"",""time"":1664.0999999999767},{""stimulus"":""https://ziweizhang0304.github.io/Stats_learning_trig/img/Stim/FN_017_g.png"",""time"":1701.9000000000233},{""stimulus"":""blank"",""time"":2002.7999999999884},{""stimulus"":""https://ziweizhang0304.github.io/Stats_learning_trig/img/Stim/FN_016_g.png"",""time"":2043.5999999999767},{""stimulus"":""blank"",""time"":2346.5},{""stimulus"":""https://ziweizhang0304.github.io/Stats_learning_trig/img/Stim/FN_025_g.png"",""time"":2385.3000000000175},{""stimulus"":""blank"",""time"":2687.499999999971},{""stimulus"":""https://ziweizhang0304.github.io/Stats_learning_trig/img/Stim/FN_019_g.png"",""time"":2721.999999999971},{""stimulus"":""blank"",""time"":3027.3000000000175},{""stimulus"":""https://ziweizhang0304.github.io/Stats_learning_trig/img/Stim/FN_015_g.png"",""time"":3062.3000000000175},{""stimulus"":""blank"",""time"":3366.8000000000175},{""stimulus"":""https://ziweizhang0304.github.io/Stats_learning_trig/img/Stim/FN_004_g.png"",""time"":3401.499999999971},{""stimulus"":""blank"",""time"":3701.7000000000407},{""stimulus"":""https://ziweizhang0304.github.io/Stats_learning_trig/img/Stim/FN_022_g.png"",""time"":3743.3000000000175},{""stimulus"":""blank"",""time"":4044.5999999999476},{""stimulus"":""https://ziweizhang0304.github.io/Stats_learning_trig/img/Stim/FN_013_g.png"",""time"":4085.7000000000407},{""stimulus"":""blank"",""time"":4390.899999999994}]","[{""key_press"":32,""rt"":2723.500000000029,""stimulus"":""https://ziweizhang0304.github.io/Stats_learning_trig/img/Stim/FN_019_g.png""}]","338.20000000001164","https://ziweizhang0304.github.io/Stats_learning_trig/img/Stim/FN_025_g.png","post_TD","19","2385.3000000000175","2723.500000000029","fast","7","3","6110af22d84e8b4c36b2f254","","","","","",""
"","image-keyboard-response","51","256224","0.0-5.0-19.0-0.0","1185.5999999999767","","","https://ziweizhang0304.github.io/Stats_learning_trig/img/Stim/FN_006_g.png","13","","","","","","","","","","","","","","","","","",""
"","animation","52","260646","0.0-5.0-19.0-1.0","","","","","","[{""stimulus"":""https://ziweizhang0304.github.io/Stats_learning_trig/img/Stim/FN_022_g.png"",""time"":342.5},{""stimulus"":""blank"",""time"":645.3000000000466},{""stimulus"":""https://ziweizhang0304.github.io/Stats_learning_trig/img/Stim/FN_018_g.png"",""time"":682.0999999999767},{""stimulus"":""blank"",""time"":985.8000000000466},{""stimulus"":""https://ziweizhang0304.github.io/Stats_learning_trig/img/Stim/FN_013_g.png"",""time"":1022},{""stimulus"":""blank"",""time"":1323},{""stimulus"":""https://ziweizhang0304.github.io/Stats_learning_trig/img/Stim/FN_015_g.png"",""time"":1365.4000000000233},{""stimulus"":""blank"",""time"":1670.1999999999534},{""stimulus"":""https://ziweizhang0304.github.io/Stats_learning_trig/img/Stim/FN_019_g.png"",""time"":1705.5},{""stimulus"":""blank"",""time"":2010.8000000000466},{""stimulus"":""https://ziweizhang0304.github.io/Stats_learning_trig/img/Stim/FN_009_g.png"",""time"":2042.9000000000233},{""stimulus"":""blank"",""time"":2345.5},{""stimulus"":""https://ziweizhang0304.github.io/Stats_learning_trig/img/Stim/FN_011_g.png"",""time"":2382},{""stimulus"":""blank"",""time"":2682.5999999999767},{""stimulus"":""https://ziweizhang0304.github.io/Stats_learning_trig/img/Stim/FN_026_g.png"",""time"":2722},{""stimulus"":""blank"",""time"":3023.0999999999767},{""stimulus"":""https://ziweizhang0304.github.io/Stats_learning_trig/img/Stim/FN_006_g.png"",""time"":3064.9000000000233},{""stimulus"":""blank"",""time"":3367.6999999999534},{""stimulus"":""https://ziweizhang0304.github.io/Stats_learning_trig/img/Stim/FN_023_g.png"",""time"":3402.1999999999534},{""stimulus"":""blank"",""time"":3707.5999999999767},{""stimulus"":""https://ziweizhang0304.github.io/Stats_learning_trig/img/Stim/FN_004_g.png"",""time"":3742.5},{""stimulus"":""blank"",""time"":4045.1999999999534},{""stimulus"":""https://ziweizhang0304.github.io/Stats_learning_trig/img/Stim/FN_002_g.png"",""time"":4082.4000000000233},{""stimulus"":""blank"",""time"":4385.699999999953}]","[{""key_press"":32,""rt"":3416.1999999999534,""stimulus"":""https://ziweizhang0304.github.io/Stats_learning_trig/img/Stim/FN_023_g.png""}]","351.29999999993015","https://ziweizhang0304.github.io/Stats_learning_trig/img/Stim/FN_006_g.png","post_TD","20","3064.9000000000233","3416.1999999999534","slow","9","3","6110af22d84e8b4c36b2f254","","","","","",""
"","image-keyboard-response","53","261687","0.0-5.0-20.0-0.0","1038.5","","","https://ziweizhang0304.github.io/Stats_learning_trig/img/Stim/FN_026_g.png","13","","","","","","","","","","","","","","","","","",""
"","animation","54","266108","0.0-5.0-20.0-1.0","","","","","","[{""stimulus"":""https://ziweizhang0304.github.io/Stats_learning_trig/img/Stim/FN_018_g.png"",""time"":345.19999999995343},{""stimulus"":""blank"",""time"":646.9000000000233},{""stimulus"":""https://ziweizhang0304.github.io/Stats_learning_trig/img/Stim/FN_009_g.png"",""time"":683.9000000000233},{""stimulus"":""blank"",""time"":988},{""stimulus"":""https://ziweizhang0304.github.io/Stats_learning_trig/img/Stim/FN_022_g.png"",""time"":1021},{""stimulus"":""blank"",""time"":1323.3000000000466},{""stimulus"":""https://ziweizhang0304.github.io/Stats_learning_trig/img/Stim/FN_011_g.png"",""time"":1362.6999999999534},{""stimulus"":""blank"",""time"":1664.5},{""stimulus"":""https://ziweizhang0304.github.io/Stats_learning_trig/img/Stim/FN_026_g.png"",""time"":1704.3000000000466},{""stimulus"":""blank"",""time"":2006.9000000000233},{""stimulus"":""https://ziweizhang0304.github.io/Stats_learning_trig/img/Stim/FN_006_g.png"",""time"":2045.5},{""stimulus"":""blank"",""time"":2350.9000000000233},{""stimulus"":""https://ziweizhang0304.github.io/Stats_learning_trig/img/Stim/FN_019_g.png"",""time"":2383.5999999999767},{""stimulus"":""blank"",""time"":2687.0999999999767},{""stimulus"":""https://ziweizhang0304.github.io/Stats_learning_trig/img/Stim/FN_023_g.png"",""time"":2720.9000000000233},{""stimulus"":""blank"",""time"":3023.1999999999534},{""stimulus"":""https://ziweizhang0304.github.io/Stats_learning_trig/img/Stim/FN_015_g.png"",""time"":3062.9000000000233},{""stimulus"":""blank"",""time"":3365.6999999999534},{""stimulus"":""https://ziweizhang0304.github.io/Stats_learning_trig/img/Stim/FN_004_g.png"",""time"":3403.1999999999534},{""stimulus"":""blank"",""time"":3708.4000000000233},{""stimulus"":""https://ziweizhang0304.github.io/Stats_learning_trig/img/Stim/FN_002_g.png"",""time"":3745.9000000000233},{""stimulus"":""blank"",""time"":4048.5},{""stimulus"":""https://ziweizhang0304.github.io/Stats_learning_trig/img/Stim/FN_013_g.png"",""time"":4081.6999999999534},{""stimulus"":""blank"",""time"":4383.199999999953}]","[{""key_press"":32,""rt"":2088.70000000007,""stimulus"":""https://ziweizhang0304.github.io/Stats_learning_trig/img/Stim/FN_006_g.png""}]","384.4000000000233","https://ziweizhang0304.github.io/Stats_learning_trig/img/Stim/FN_026_g.png","post_TD","21","1704.3000000000466","2088.70000000007","slow","5","2","6110af22d84e8b4c36b2f254","","","","","",""
"","image-keyboard-response","55","268738","0.0-5.0-21.0-0.0","2628.20000000007","","","https://ziweizhang0304.github.io/Stats_learning_trig/img/Stim/FN_017_g.png","13","","","","","","","","","","","","","","","","","",""
"","animation","56","273160","0.0-5.0-21.0-1.0","","","","","","[{""stimulus"":""https://ziweizhang0304.github.io/Stats_learning_trig/img/Stim/FN_004_g.png"",""time"":341.9000000000233},{""stimulus"":""blank"",""time"":647.1999999999534},{""stimulus"":""https://ziweizhang0304.github.io/Stats_learning_trig/img/Stim/FN_002_g.png"",""time"":683.3000000000466},{""stimulus"":""blank"",""time"":986.6999999999534},{""stimulus"":""https://ziweizhang0304.github.io/Stats_learning_trig/img/Stim/FN_022_g.png"",""time"":1021.3000000000466},{""stimulus"":""blank"",""time"":1323.0999999999767},{""stimulus"":""https://ziweizhang0304.github.io/Stats_learning_trig/img/Stim/FN_009_g.png"",""time"":1365.9000000000233},{""stimulus"":""blank"",""time"":1667.8000000000466},{""stimulus"":""https://ziweizhang0304.github.io/Stats_learning_trig/img/Stim/FN_019_g.png"",""time"":1702.9000000000233},{""stimulus"":""blank"",""time"":2005},{""stimulus"":""https://ziweizhang0304.github.io/Stats_learning_trig/img/Stim/FN_017_g.png"",""time"":2045.9000000000233},{""stimulus"":""blank"",""time"":2351.3000000000466},{""stimulus"":""https://ziweizhang0304.github.io/Stats_learning_trig/img/Stim/FN_016_g.png"",""time"":2383.8000000000466},{""stimulus"":""blank"",""time"":2687.1999999999534},{""stimulus"":""https://ziweizhang0304.github.io/Stats_learning_trig/img/Stim/FN_025_g.png"",""time"":2721.0999999999767},{""stimulus"":""blank"",""time"":3021.8000000000466},{""stimulus"":""https://ziweizhang0304.github.io/Stats_learning_trig/img/Stim/FN_023_g.png"",""time"":3065.8000000000466},{""stimulus"":""blank"",""time"":3371.0999999999767},{""stimulus"":""https://ziweizhang0304.github.io/Stats_learning_trig/img/Stim/FN_015_g.png"",""time"":3402.6999999999534},{""stimulus"":""blank"",""time"":3703.6999999999534},{""stimulus"":""https://ziweizhang0304.github.io/Stats_learning_trig/img/Stim/FN_018_g.png"",""time"":3741.3000000000466},{""stimulus"":""blank"",""time"":4046.5999999999767},{""stimulus"":""https://ziweizhang0304.github.io/Stats_learning_trig/img/Stim/FN_013_g.png"",""time"":4083.5},{""stimulus"":""blank"",""time"":4387}]","[{""key_press"":32,""rt"":2427.70000000007,""stimulus"":""https://ziweizhang0304.github.io/Stats_learning_trig/img/Stim/FN_016_g.png""}]","381.80000000004657","https://ziweizhang0304.github.io/Stats_learning_trig/img/Stim/FN_017_g.png","post_TD","22","2045.9000000000233","2427.70000000007","fast","6","1","6110af22d84e8b4c36b2f254","","","","","",""
"","image-keyboard-response","57","274151","0.0-5.0-22.0-0.0","988.9000000000233","","","https://ziweizhang0304.github.io/Stats_learning_trig/img/Stim/FN_011_g.png","13","","","","","","","","","","","","","","","","","",""
"","animation","58","278575","0.0-5.0-22.0-1.0","","","","","","[{""stimulus"":""https://ziweizhang0304.github.io/Stats_learning_trig/img/Stim/FN_022_g.png"",""time"":346},{""stimulus"":""blank"",""time"":651.4000000000233},{""stimulus"":""https://ziweizhang0304.github.io/Stats_learning_trig/img/Stim/FN_018_g.png"",""time"":684.5},{""stimulus"":""blank"",""time"":989.9000000000233},{""stimulus"":""https://ziweizhang0304.github.io/Stats_learning_trig/img/Stim/FN_013_g.png"",""time"":1023},{""stimulus"":""blank"",""time"":1327.8000000000466},{""stimulus"":""https://ziweizhang0304.github.io/Stats_learning_trig/img/Stim/FN_015_g.png"",""time"":1362},{""stimulus"":""blank"",""time"":1663.2000000000698},{""stimulus"":""https://ziweizhang0304.github.io/Stats_learning_trig/img/Stim/FN_019_g.png"",""time"":1703.5},{""stimulus"":""blank"",""time"":2006.4000000000233},{""stimulus"":""https://ziweizhang0304.github.io/Stats_learning_trig/img/Stim/FN_009_g.png"",""time"":2045.4000000000233},{""stimulus"":""blank"",""time"":2350.70000000007},{""stimulus"":""https://ziweizhang0304.github.io/Stats_learning_trig/img/Stim/FN_011_g.png"",""time"":2385.9000000000233},{""stimulus"":""blank"",""time"":2691.20000000007},{""stimulus"":""https://ziweizhang0304.github.io/Stats_learning_trig/img/Stim/FN_026_g.png"",""time"":2723},{""stimulus"":""blank"",""time"":3027.5999999999767},{""stimulus"":""https://ziweizhang0304.github.io/Stats_learning_trig/img/Stim/FN_006_g.png"",""time"":3062},{""stimulus"":""blank"",""time"":3362.70000000007},{""stimulus"":""https://ziweizhang0304.github.io/Stats_learning_trig/img/Stim/FN_023_g.png"",""time"":3403.8000000000466},{""stimulus"":""blank"",""time"":3704.20000000007},{""stimulus"":""https://ziweizhang0304.github.io/Stats_learning_trig/img/Stim/FN_004_g.png"",""time"":3743.9000000000233},{""stimulus"":""blank"",""time"":4049.3000000000466},{""stimulus"":""https://ziweizhang0304.github.io/Stats_learning_trig/img/Stim/FN_002_g.png"",""time"":4085.8000000000466},{""stimulus"":""blank"",""time"":4391.20000000007}]","[{""key_press"":32,""rt"":2742.5,""stimulus"":""https://ziweizhang0304.github.io/Stats_learning_trig/img/Stim/FN_026_g.png""}]","356.5999999999767","https://ziweizhang0304.github.io/Stats_learning_trig/img/Stim/FN_011_g.png","post_TD","23","2385.9000000000233","2742.5","slow","7","1","6110af22d84e8b4c36b2f254","","","","","",""
"","image-keyboard-response","59","279453","0.0-5.0-23.0-0.0","874.5","","","https://ziweizhang0304.github.io/Stats_learning_trig/img/Stim/FN_025_g.png","13","","","","","","","","","","","","","","","","","",""
"","animation","60","283875","0.0-5.0-23.0-1.0","","","","","","[{""stimulus"":""https://ziweizhang0304.github.io/Stats_learning_trig/img/Stim/FN_004_g.png"",""time"":346},{""stimulus"":""blank"",""time"":651.3000000000466},{""stimulus"":""https://ziweizhang0304.github.io/Stats_learning_trig/img/Stim/FN_002_g.png"",""time"":683.0999999999767},{""stimulus"":""blank"",""time"":988.5},{""stimulus"":""https://ziweizhang0304.github.io/Stats_learning_trig/img/Stim/FN_022_g.png"",""time"":1021.6999999999534},{""stimulus"":""blank"",""time"":1325.9000000000233},{""stimulus"":""https://ziweizhang0304.github.io/Stats_learning_trig/img/Stim/FN_009_g.png"",""time"":1360.9000000000233},{""stimulus"":""blank"",""time"":1662.0999999999767},{""stimulus"":""https://ziweizhang0304.github.io/Stats_learning_trig/img/Stim/FN_019_g.png"",""time"":1703.8000000000466},{""stimulus"":""blank"",""time"":2004.0999999999767},{""stimulus"":""https://ziweizhang0304.github.io/Stats_learning_trig/img/Stim/FN_017_g.png"",""time"":2041.4000000000233},{""stimulus"":""blank"",""time"":2346.6999999999534},{""stimulus"":""https://ziweizhang0304.github.io/Stats_learning_trig/img/Stim/FN_016_g.png"",""time"":2383.0999999999767},{""stimulus"":""blank"",""time"":2687.8000000000466},{""stimulus"":""https://ziweizhang0304.github.io/Stats_learning_trig/img/Stim/FN_025_g.png"",""time"":2722.0999999999767},{""stimulus"":""blank"",""time"":3027.0999999999767},{""stimulus"":""https://ziweizhang0304.github.io/Stats_learning_trig/img/Stim/FN_023_g.png"",""time"":3062.0999999999767},{""stimulus"":""blank"",""time"":3363.6999999999534},{""stimulus"":""https://ziweizhang0304.github.io/Stats_learning_trig/img/Stim/FN_015_g.png"",""time"":3403.9000000000233},{""stimulus"":""blank"",""time"":3705},{""stimulus"":""https://ziweizhang0304.github.io/Stats_learning_trig/img/Stim/FN_018_g.png"",""time"":3745.5},{""stimulus"":""blank"",""time"":4050.9000000000233},{""stimulus"":""https://ziweizhang0304.github.io/Stats_learning_trig/img/Stim/FN_013_g.png"",""time"":4080.6999999999534},{""stimulus"":""blank"",""time"":4386}]","[{""key_press"":32,""rt"":3087.0999999999767,""stimulus"":""https://ziweizhang0304.github.io/Stats_learning_trig/img/Stim/FN_023_g.png""}]","365","https://ziweizhang0304.github.io/Stats_learning_trig/img/Stim/FN_025_g.png","post_TD","24","2722.0999999999767","3087.0999999999767","fast","8","3","6110af22d84e8b4c36b2f254","700ec","","","","",""
"","survey-text","61","321384","0.0-6.0","37494.80000000005","","","","","","","","","","","","","","","","","","{""Q0"":""I kept the image in mind and carefully watched as the shapes popped up.""}","","","",""
"","survey-text","62","337567","0.0-7.0","16179.900000000023","","","","","","","","","","","","","","","","","","{""[object Object]"":""all black. ""}","","","",""
"","instructions","63","347366","0.0-8.0","9798.20000000007","","[{""page_index"":0,""viewing_time"":9797.900000000023}]","","","","","","","","","","","","","","","","","","","",""
"","free-sort","64","362071","0.0-9.0","14702.099999999977","","","","","","","","","post_drag","","","","fast","","","","","","[{""src"":""https://ziweizhang0304.github.io/Stats_learning_trig/img/Stim/FN_025_g.png"",""x"":475,""y"":0},{""src"":""https://ziweizhang0304.github.io/Stats_learning_trig/img/Stim/FN_017_g.png"",""x"":-225,""y"":50},{""src"":""https://ziweizhang0304.github.io/Stats_learning_trig/img/Stim/FN_016_g.png"",""x"":475,""y"":50}]","[{""src"":""https://ziweizhang0304.github.io/Stats_learning_trig/img/Stim/FN_016_g.png"",""x"":22,""y"":11},{""src"":""https://ziweizhang0304.github.io/Stats_learning_trig/img/Stim/FN_017_g.png"",""x"":109,""y"":19},{""src"":""https://ziweizhang0304.github.io/Stats_learning_trig/img/Stim/FN_025_g.png"",""x"":225,""y"":14}]","[{""src"":""https://ziweizhang0304.github.io/Stats_learning_trig/img/Stim/FN_025_g.png"",""x"":225,""y"":14},{""src"":""https://ziweizhang0304.github.io/Stats_learning_trig/img/Stim/FN_017_g.png"",""x"":109,""y"":19},{""src"":""https://ziweizhang0304.github.io/Stats_learning_trig/img/Stim/FN_016_g.png"",""x"":22,""y"":11}]",""
"","free-sort","65","373620","0.0-10.0","11547.800000000047","","","","","","","","","post_drag","","","","slow","","","","","","[{""src"":""https://ziweizhang0304.github.io/Stats_learning_trig/img/Stim/FN_026_g.png"",""x"":475,""y"":0},{""src"":""https://ziweizhang0304.github.io/Stats_learning_trig/img/Stim/FN_011_g.png"",""x"":-225,""y"":50},{""src"":""https://ziweizhang0304.github.io/Stats_learning_trig/img/Stim/FN_006_g.png"",""x"":475,""y"":50}]","[{""src"":""https://ziweizhang0304.github.io/Stats_learning_trig/img/Stim/FN_026_g.png"",""x"":25,""y"":25},{""src"":""https://ziweizhang0304.github.io/Stats_learning_trig/img/Stim/FN_011_g.png"",""x"":114,""y"":23},{""src"":""https://ziweizhang0304.github.io/Stats_learning_trig/img/Stim/FN_006_g.png"",""x"":203,""y"":37}]","[{""src"":""https://ziweizhang0304.github.io/Stats_learning_trig/img/Stim/FN_026_g.png"",""x"":25,""y"":25},{""src"":""https://ziweizhang0304.github.io/Stats_learning_trig/img/Stim/FN_011_g.png"",""x"":114,""y"":23},{""src"":""https://ziweizhang0304.github.io/Stats_learning_trig/img/Stim/FN_006_g.png"",""x"":203,""y"":37}]",""
"","survey-multi-choice","66","382320","0.0-11.0","8692.899999999907","","","","","","","","","","","","","","","","6110af22d84e8b4c36b2f254","","{""awareness"":""No"",""attention_check"":""Press SPACEBAR to a target""}","","","","[0,1]"
