"success","trial_type","trial_index","time_elapsed","internal_node_id","rt","url","view_history","stimulus","key_press","animation_sequence","response","TD_rt","TD_target","test_part","TD_trial_number","onset","offset","attention_state","TD_target_position","TD_within_triplet_counter","participant","yoke_participant","responses","init_locations","moves","final_locations","question_order"
"true","fullscreen","0","2230","0.0-0.0","","","","","","","","","","","","","","","","","","","","","","",""
"","external-html","1","12387","0.0-1.0","10094.600000000035","https://ziweizhang0304.github.io/Stats_learning_trig/content/consent.html","","","","","","","","","","","","","","","","","","","","",""
"","instructions","2","31514","0.0-2.0","19124.300000000047","","[{""page_index"":0,""viewing_time"":1844},{""page_index"":1,""viewing_time"":10890.600000000035},{""page_index"":2,""viewing_time"":4864.299999999988},{""page_index"":3,""viewing_time"":1523.5}]","","","","","","","","","","","","","","","","","","","",""
"","image-keyboard-response","3","36872","0.0-3.0-0.0-0.0","5356.200000000012","","","https://ziweizhang0304.github.io/Stats_learning_trig/img/Stim/FN_016_g.png","13","","","","","","","","","","","","","","","","","",""
"","animation","4","41296","0.0-3.0-0.0-1.0","","","","","","[{""stimulus"":""https://ziweizhang0304.github.io/Stats_learning_trig/img/Stim/FN_021_g.png"",""time"":375.0999999999767},{""stimulus"":""blank"",""time"":676.8999999999651},{""stimulus"":""https://ziweizhang0304.github.io/Stats_learning_trig/img/Stim/FN_012_g.png"",""time"":681.2999999999884},{""stimulus"":""blank"",""time"":981.8999999999651},{""stimulus"":""https://ziweizhang0304.github.io/Stats_learning_trig/img/Stim/FN_006_g.png"",""time"":1021.3999999999651},{""stimulus"":""blank"",""time"":1323},{""stimulus"":""https://ziweizhang0304.github.io/Stats_learning_trig/img/Stim/FN_001_g.png"",""time"":1361.899999999965},{""stimulus"":""blank"",""time"":1663.899999999965},{""stimulus"":""https://ziweizhang0304.github.io/Stats_learning_trig/img/Stim/FN_019_g.png"",""time"":1701.2999999999884},{""stimulus"":""blank"",""time"":2002.5999999999767},{""stimulus"":""https://ziweizhang0304.github.io/Stats_learning_trig/img/Stim/FN_022_g.png"",""time"":2041.5},{""stimulus"":""blank"",""time"":2342},{""stimulus"":""https://ziweizhang0304.github.io/Stats_learning_trig/img/Stim/FN_024_g.png"",""time"":2381.7999999999884},{""stimulus"":""blank"",""time"":2682.6999999999534},{""stimulus"":""https://ziweizhang0304.github.io/Stats_learning_trig/img/Stim/FN_016_g.png"",""time"":2721.6999999999534},{""stimulus"":""blank"",""time"":3032.1999999999534},{""stimulus"":""https://ziweizhang0304.github.io/Stats_learning_trig/img/Stim/FN_011_g.png"",""time"":3062.0999999999767},{""stimulus"":""blank"",""time"":3363},{""stimulus"":""https://ziweizhang0304.github.io/Stats_learning_trig/img/Stim/FN_026_g.png"",""time"":3402.2999999999884},{""stimulus"":""blank"",""time"":3704.2999999999884},{""stimulus"":""https://ziweizhang0304.github.io/Stats_learning_trig/img/Stim/FN_020_g.png"",""time"":3742.0999999999767},{""stimulus"":""blank"",""time"":4042.5999999999767},{""stimulus"":""https://ziweizhang0304.github.io/Stats_learning_trig/img/Stim/FN_018_g.png"",""time"":4081.899999999965},{""stimulus"":""blank"",""time"":4382.699999999953}]","[{""key_press"":32,""rt"":3249.399999999965,""stimulus"":""https://ziweizhang0304.github.io/Stats_learning_trig/img/Stim/FN_011_g.png""}]","527.7000000000116","https://ziweizhang0304.github.io/Stats_learning_trig/img/Stim/FN_016_g.png","post_prac","","","","","","","","","","","","",""
"","html-keyboard-response","5","46154","0.0-3.0-0.0-2.0","4851.900000000023","","","<p>Your reaction time for this trial was 527.7 ms.</p><p>Remember that you should only press the SPACEBAR when you see the shape presented at the beginning of the trial. </b> </p><p>Press enter to move on.</p>","13","","","","","","","","","","","","","","","","","",""
"","image-keyboard-response","6","49936","0.0-3.0-1.0-0.0","3781.100000000035","","","https://ziweizhang0304.github.io/Stats_learning_trig/img/Stim/FN_015_g.png","13","","","","","","","","","","","","","","","","","",""
"","animation","7","54359","0.0-3.0-1.0-1.0","","","","","","[{""stimulus"":""https://ziweizhang0304.github.io/Stats_learning_trig/img/Stim/FN_022_g.png"",""time"":346.9000000000233},{""stimulus"":""blank"",""time"":647.5},{""stimulus"":""https://ziweizhang0304.github.io/Stats_learning_trig/img/Stim/FN_018_g.png"",""time"":681.6000000000349},{""stimulus"":""blank"",""time"":987.6000000000349},{""stimulus"":""https://ziweizhang0304.github.io/Stats_learning_trig/img/Stim/FN_012_g.png"",""time"":1022.1000000000349},{""stimulus"":""blank"",""time"":1330.5},{""stimulus"":""https://ziweizhang0304.github.io/Stats_learning_trig/img/Stim/FN_001_g.png"",""time"":1362.7000000000116},{""stimulus"":""blank"",""time"":1663.9000000000233},{""stimulus"":""https://ziweizhang0304.github.io/Stats_learning_trig/img/Stim/FN_024_g.png"",""time"":1701.2999999999884},{""stimulus"":""blank"",""time"":2014.4000000000233},{""stimulus"":""https://ziweizhang0304.github.io/Stats_learning_trig/img/Stim/FN_011_g.png"",""time"":2041.2000000000116},{""stimulus"":""blank"",""time"":2344.4000000000233},{""stimulus"":""https://ziweizhang0304.github.io/Stats_learning_trig/img/Stim/FN_015_g.png"",""time"":2385.100000000035},{""stimulus"":""blank"",""time"":2685.9000000000233},{""stimulus"":""https://ziweizhang0304.github.io/Stats_learning_trig/img/Stim/FN_003_g.png"",""time"":2721.600000000035},{""stimulus"":""blank"",""time"":3023},{""stimulus"":""https://ziweizhang0304.github.io/Stats_learning_trig/img/Stim/FN_004_g.png"",""time"":3061.9000000000233},{""stimulus"":""blank"",""time"":3370.9000000000233},{""stimulus"":""https://ziweizhang0304.github.io/Stats_learning_trig/img/Stim/FN_026_g.png"",""time"":3401.7000000000116},{""stimulus"":""blank"",""time"":3712.600000000035},{""stimulus"":""https://ziweizhang0304.github.io/Stats_learning_trig/img/Stim/FN_021_g.png"",""time"":3742.100000000035},{""stimulus"":""blank"",""time"":4042.2999999999884},{""stimulus"":""https://ziweizhang0304.github.io/Stats_learning_trig/img/Stim/FN_006_g.png"",""time"":4080.7999999999884},{""stimulus"":""blank"",""time"":4395.600000000035}]","[{""key_press"":32,""rt"":2826.0999999999767,""stimulus"":""https://ziweizhang0304.github.io/Stats_learning_trig/img/Stim/FN_003_g.png""}]","440.9999999999418","https://ziweizhang0304.github.io/Stats_learning_trig/img/Stim/FN_015_g.png","post_prac","","","","","","","","","","","","",""
"","html-keyboard-response","8","56436","0.0-3.0-1.0-2.0","2073.5999999999767","","","<p>Your reaction time for this trial was 441 ms.</p><p>Remember that you should only press the SPACEBAR when you see the shape presented at the beginning of the trial. </b> </p><p>Press enter to move on.</p>","13","","","","","","","","","","","","","","","","","",""
"","image-keyboard-response","9","58575","0.0-3.0-2.0-0.0","2138.7000000000116","","","https://ziweizhang0304.github.io/Stats_learning_trig/img/Stim/FN_019_g.png","13","","","","","","","","","","","","","","","","","",""
"","animation","10","62997","0.0-3.0-2.0-1.0","","","","","","[{""stimulus"":""https://ziweizhang0304.github.io/Stats_learning_trig/img/Stim/FN_018_g.png"",""time"":357.0999999999767},{""stimulus"":""blank"",""time"":658.2999999999884},{""stimulus"":""https://ziweizhang0304.github.io/Stats_learning_trig/img/Stim/FN_011_g.png"",""time"":682.5999999999767},{""stimulus"":""blank"",""time"":983.0999999999767},{""stimulus"":""https://ziweizhang0304.github.io/Stats_learning_trig/img/Stim/FN_001_g.png"",""time"":1024.4000000000233},{""stimulus"":""blank"",""time"":1339.2999999999884},{""stimulus"":""https://ziweizhang0304.github.io/Stats_learning_trig/img/Stim/FN_012_g.png"",""time"":1361.5999999999767},{""stimulus"":""blank"",""time"":1669.0999999999767},{""stimulus"":""https://ziweizhang0304.github.io/Stats_learning_trig/img/Stim/FN_024_g.png"",""time"":1702.5},{""stimulus"":""blank"",""time"":2003.2999999999884},{""stimulus"":""https://ziweizhang0304.github.io/Stats_learning_trig/img/Stim/FN_020_g.png"",""time"":2041.7000000000116},{""stimulus"":""blank"",""time"":2342.7000000000116},{""stimulus"":""https://ziweizhang0304.github.io/Stats_learning_trig/img/Stim/FN_016_g.png"",""time"":2381.9000000000233},{""stimulus"":""blank"",""time"":2683.0999999999767},{""stimulus"":""https://ziweizhang0304.github.io/Stats_learning_trig/img/Stim/FN_019_g.png"",""time"":2722},{""stimulus"":""blank"",""time"":3027.2000000000116},{""stimulus"":""https://ziweizhang0304.github.io/Stats_learning_trig/img/Stim/FN_026_g.png"",""time"":3061.5},{""stimulus"":""blank"",""time"":3362.7000000000116},{""stimulus"":""https://ziweizhang0304.github.io/Stats_learning_trig/img/Stim/FN_021_g.png"",""time"":3402},{""stimulus"":""blank"",""time"":3702.2999999999884},{""stimulus"":""https://ziweizhang0304.github.io/Stats_learning_trig/img/Stim/FN_022_g.png"",""time"":3742.5},{""stimulus"":""blank"",""time"":4057.5999999999767},{""stimulus"":""https://ziweizhang0304.github.io/Stats_learning_trig/img/Stim/FN_006_g.png"",""time"":4081.0999999999767},{""stimulus"":""blank"",""time"":4384.099999999977}]","[{""key_press"":32,""rt"":3161.2000000000116,""stimulus"":""https://ziweizhang0304.github.io/Stats_learning_trig/img/Stim/FN_026_g.png""}]","439.20000000001164","https://ziweizhang0304.github.io/Stats_learning_trig/img/Stim/FN_019_g.png","post_prac","","","","","","","","","","","","",""
"","html-keyboard-response","11","64373","0.0-3.0-2.0-2.0","1371.7000000000116","","","<p>Your reaction time for this trial was 439.2 ms.</p><p>Remember that you should only press the SPACEBAR when you see the shape presented at the beginning of the trial. </b> </p><p>Press enter to move on.</p>","13","","","","","","","","","","","","","","","","","",""
"","instructions","12","66082","0.0-4.0","1708.4000000000233","","[{""page_index"":0,""viewing_time"":1707.9000000000233}]","","","","","","","","","","","","","","","","","","","",""
"","image-keyboard-response","13","68181","0.0-5.0-0.0-0.0","2097.4000000000233","","","https://ziweizhang0304.github.io/Stats_learning_trig/img/Stim/FN_016_g.png","13","","","","","","","","","","","","","","","","","",""
"","animation","14","72601","0.0-5.0-0.0-1.0","","","","","","[{""stimulus"":""https://ziweizhang0304.github.io/Stats_learning_trig/img/Stim/FN_021_g.png"",""time"":341},{""stimulus"":""blank"",""time"":643},{""stimulus"":""https://ziweizhang0304.github.io/Stats_learning_trig/img/Stim/FN_012_g.png"",""time"":681.0999999999767},{""stimulus"":""blank"",""time"":982.0999999999767},{""stimulus"":""https://ziweizhang0304.github.io/Stats_learning_trig/img/Stim/FN_024_g.png"",""time"":1022.2000000000116},{""stimulus"":""blank"",""time"":1323.399999999965},{""stimulus"":""https://ziweizhang0304.github.io/Stats_learning_trig/img/Stim/FN_020_g.png"",""time"":1366.2000000000116},{""stimulus"":""blank"",""time"":1667.7999999999884},{""stimulus"":""https://ziweizhang0304.github.io/Stats_learning_trig/img/Stim/FN_016_g.png"",""time"":1701.899999999965},{""stimulus"":""blank"",""time"":2003},{""stimulus"":""https://ziweizhang0304.github.io/Stats_learning_trig/img/Stim/FN_019_g.png"",""time"":2042},{""stimulus"":""blank"",""time"":2345.899999999965},{""stimulus"":""https://ziweizhang0304.github.io/Stats_learning_trig/img/Stim/FN_026_g.png"",""time"":2381.399999999965},{""stimulus"":""blank"",""time"":2682.899999999965},{""stimulus"":""https://ziweizhang0304.github.io/Stats_learning_trig/img/Stim/FN_011_g.png"",""time"":2721},{""stimulus"":""blank"",""time"":3022},{""stimulus"":""https://ziweizhang0304.github.io/Stats_learning_trig/img/Stim/FN_018_g.png"",""time"":3061.0999999999767},{""stimulus"":""blank"",""time"":3367.0999999999767},{""stimulus"":""https://ziweizhang0304.github.io/Stats_learning_trig/img/Stim/FN_022_g.png"",""time"":3401.2000000000116},{""stimulus"":""blank"",""time"":3702.0999999999767},{""stimulus"":""https://ziweizhang0304.github.io/Stats_learning_trig/img/Stim/FN_001_g.png"",""time"":3741.399999999965},{""stimulus"":""blank"",""time"":4050.5},{""stimulus"":""https://ziweizhang0304.github.io/Stats_learning_trig/img/Stim/FN_006_g.png"",""time"":4080.5},{""stimulus"":""blank"",""time"":4393.399999999965}]","[{""key_press"":32,""rt"":2175.7999999999884,""stimulus"":""https://ziweizhang0304.github.io/Stats_learning_trig/img/Stim/FN_019_g.png""}]","473.9000000000233","https://ziweizhang0304.github.io/Stats_learning_trig/img/Stim/FN_016_g.png","post_TD","1","1701.899999999965","2175.7999999999884","fast","5","2","5ff2240a2f567121402762e6","","","","","",""
"","image-keyboard-response","15","74466","0.0-5.0-1.0-0.0","1863.2999999999884","","","https://ziweizhang0304.github.io/Stats_learning_trig/img/Stim/FN_015_g.png","13","","","","","","","","","","","","","","","","","",""
"","animation","16","78888","0.0-5.0-1.0-1.0","","","","","","[{""stimulus"":""https://ziweizhang0304.github.io/Stats_learning_trig/img/Stim/FN_001_g.png"",""time"":342.0999999999767},{""stimulus"":""blank"",""time"":644.2000000000116},{""stimulus"":""https://ziweizhang0304.github.io/Stats_learning_trig/img/Stim/FN_026_g.png"",""time"":682.2999999999884},{""stimulus"":""blank"",""time"":984.2999999999884},{""stimulus"":""https://ziweizhang0304.github.io/Stats_learning_trig/img/Stim/FN_018_g.png"",""time"":1020.4000000000233},{""stimulus"":""blank"",""time"":1321},{""stimulus"":""https://ziweizhang0304.github.io/Stats_learning_trig/img/Stim/FN_015_g.png"",""time"":1361.9000000000233},{""stimulus"":""blank"",""time"":1662.0999999999767},{""stimulus"":""https://ziweizhang0304.github.io/Stats_learning_trig/img/Stim/FN_003_g.png"",""time"":1702.2000000000116},{""stimulus"":""blank"",""time"":2017.2999999999884},{""stimulus"":""https://ziweizhang0304.github.io/Stats_learning_trig/img/Stim/FN_004_g.png"",""time"":2041.4000000000233},{""stimulus"":""blank"",""time"":2343.2000000000116},{""stimulus"":""https://ziweizhang0304.github.io/Stats_learning_trig/img/Stim/FN_012_g.png"",""time"":2381.4000000000233},{""stimulus"":""blank"",""time"":2682.4000000000233},{""stimulus"":""https://ziweizhang0304.github.io/Stats_learning_trig/img/Stim/FN_011_g.png"",""time"":2720.4000000000233},{""stimulus"":""blank"",""time"":3020.5},{""stimulus"":""https://ziweizhang0304.github.io/Stats_learning_trig/img/Stim/FN_024_g.png"",""time"":3060.4000000000233},{""stimulus"":""blank"",""time"":3361.5},{""stimulus"":""https://ziweizhang0304.github.io/Stats_learning_trig/img/Stim/FN_021_g.png"",""time"":3401.0999999999767},{""stimulus"":""blank"",""time"":3702.7000000000116},{""stimulus"":""https://ziweizhang0304.github.io/Stats_learning_trig/img/Stim/FN_022_g.png"",""time"":3741.7999999999884},{""stimulus"":""blank"",""time"":4042.9000000000233},{""stimulus"":""https://ziweizhang0304.github.io/Stats_learning_trig/img/Stim/FN_006_g.png"",""time"":4082},{""stimulus"":""blank"",""time"":4383}]","[{""key_press"":32,""rt"":2036,""stimulus"":""blank""}]","674.0999999999767","https://ziweizhang0304.github.io/Stats_learning_trig/img/Stim/FN_015_g.png","post_TD","2","1361.9000000000233","2036","slow","4","1","5ff2240a2f567121402762e6","","","","","",""
"","image-keyboard-response","17","79950","0.0-5.0-2.0-0.0","1060.2999999999884","","","https://ziweizhang0304.github.io/Stats_learning_trig/img/Stim/FN_019_g.png","13","","","","","","","","","","","","","","","","","",""
"","animation","18","84372","0.0-5.0-2.0-1.0","","","","","","[{""stimulus"":""https://ziweizhang0304.github.io/Stats_learning_trig/img/Stim/FN_022_g.png"",""time"":349.9000000000233},{""stimulus"":""blank"",""time"":651.7000000000116},{""stimulus"":""https://ziweizhang0304.github.io/Stats_learning_trig/img/Stim/FN_018_g.png"",""time"":680.7999999999884},{""stimulus"":""blank"",""time"":983.7999999999884},{""stimulus"":""https://ziweizhang0304.github.io/Stats_learning_trig/img/Stim/FN_006_g.png"",""time"":1020.9000000000233},{""stimulus"":""blank"",""time"":1321.0999999999767},{""stimulus"":""https://ziweizhang0304.github.io/Stats_learning_trig/img/Stim/FN_026_g.png"",""time"":1361.2999999999884},{""stimulus"":""blank"",""time"":1662.7000000000116},{""stimulus"":""https://ziweizhang0304.github.io/Stats_learning_trig/img/Stim/FN_020_g.png"",""time"":1713.7999999999884},{""stimulus"":""blank"",""time"":2028.5},{""stimulus"":""https://ziweizhang0304.github.io/Stats_learning_trig/img/Stim/FN_016_g.png"",""time"":2041.4000000000233},{""stimulus"":""blank"",""time"":2342.7999999999884},{""stimulus"":""https://ziweizhang0304.github.io/Stats_learning_trig/img/Stim/FN_019_g.png"",""time"":2381.7000000000116},{""stimulus"":""blank"",""time"":2684.5},{""stimulus"":""https://ziweizhang0304.github.io/Stats_learning_trig/img/Stim/FN_012_g.png"",""time"":2720.7999999999884},{""stimulus"":""blank"",""time"":3022.4000000000233},{""stimulus"":""https://ziweizhang0304.github.io/Stats_learning_trig/img/Stim/FN_011_g.png"",""time"":3061.4000000000233},{""stimulus"":""blank"",""time"":3362.5999999999767},{""stimulus"":""https://ziweizhang0304.github.io/Stats_learning_trig/img/Stim/FN_024_g.png"",""time"":3401.5999999999767},{""stimulus"":""blank"",""time"":3701.9000000000233},{""stimulus"":""https://ziweizhang0304.github.io/Stats_learning_trig/img/Stim/FN_021_g.png"",""time"":3742.2999999999884},{""stimulus"":""blank"",""time"":4043},{""stimulus"":""https://ziweizhang0304.github.io/Stats_learning_trig/img/Stim/FN_001_g.png"",""time"":4082.0999999999767},{""stimulus"":""blank"",""time"":4386.099999999977}]","[{""key_press"":32,""rt"":2813.3000000000466,""stimulus"":""https://ziweizhang0304.github.io/Stats_learning_trig/img/Stim/FN_012_g.png""}]","431.6000000000349","https://ziweizhang0304.github.io/Stats_learning_trig/img/Stim/FN_019_g.png","post_TD","3","2381.7000000000116","2813.3000000000466","fast","7","3","5ff2240a2f567121402762e6","","","","","",""
"","image-keyboard-response","19","86214","0.0-5.0-3.0-0.0","1838.7000000000116","","","https://ziweizhang0304.github.io/Stats_learning_trig/img/Stim/FN_020_g.png","13","","","","","","","","","","","","","","","","","",""
"","animation","20","90635","0.0-5.0-3.0-1.0","","","","","","[{""stimulus"":""https://ziweizhang0304.github.io/Stats_learning_trig/img/Stim/FN_018_g.png"",""time"":341.79999999998836},{""stimulus"":""blank"",""time"":643.7999999999884},{""stimulus"":""https://ziweizhang0304.github.io/Stats_learning_trig/img/Stim/FN_011_g.png"",""time"":681},{""stimulus"":""blank"",""time"":981.7000000000116},{""stimulus"":""https://ziweizhang0304.github.io/Stats_learning_trig/img/Stim/FN_001_g.png"",""time"":1020.7999999999884},{""stimulus"":""blank"",""time"":1322.0999999999767},{""stimulus"":""https://ziweizhang0304.github.io/Stats_learning_trig/img/Stim/FN_012_g.png"",""time"":1362.2000000000116},{""stimulus"":""blank"",""time"":1662.5},{""stimulus"":""https://ziweizhang0304.github.io/Stats_learning_trig/img/Stim/FN_024_g.png"",""time"":1701.2000000000116},{""stimulus"":""blank"",""time"":2003},{""stimulus"":""https://ziweizhang0304.github.io/Stats_learning_trig/img/Stim/FN_020_g.png"",""time"":2041.0999999999767},{""stimulus"":""blank"",""time"":2341.7000000000116},{""stimulus"":""https://ziweizhang0304.github.io/Stats_learning_trig/img/Stim/FN_016_g.png"",""time"":2381.7000000000116},{""stimulus"":""blank"",""time"":2683.4000000000233},{""stimulus"":""https://ziweizhang0304.github.io/Stats_learning_trig/img/Stim/FN_019_g.png"",""time"":2721.5999999999767},{""stimulus"":""blank"",""time"":3022.9000000000233},{""stimulus"":""https://ziweizhang0304.github.io/Stats_learning_trig/img/Stim/FN_026_g.png"",""time"":3060.9000000000233},{""stimulus"":""blank"",""time"":3368.7999999999884},{""stimulus"":""https://ziweizhang0304.github.io/Stats_learning_trig/img/Stim/FN_021_g.png"",""time"":3401.7999999999884},{""stimulus"":""blank"",""time"":3703.5999999999767},{""stimulus"":""https://ziweizhang0304.github.io/Stats_learning_trig/img/Stim/FN_022_g.png"",""time"":3741.7999999999884},{""stimulus"":""blank"",""time"":4057.0999999999767},{""stimulus"":""https://ziweizhang0304.github.io/Stats_learning_trig/img/Stim/FN_006_g.png"",""time"":4082.2000000000116},{""stimulus"":""blank"",""time"":4382.5}]","[{""key_press"":32,""rt"":2542.7000000000116,""stimulus"":""https://ziweizhang0304.github.io/Stats_learning_trig/img/Stim/FN_016_g.png""}]","501.6000000000349","https://ziweizhang0304.github.io/Stats_learning_trig/img/Stim/FN_020_g.png","post_TD","4","2041.0999999999767","2542.7000000000116","fast","6","1","5ff2240a2f567121402762e6","","","","","",""
"","image-keyboard-response","21","92376","0.0-5.0-4.0-0.0","1739.5","","","https://ziweizhang0304.github.io/Stats_learning_trig/img/Stim/FN_003_g.png","13","","","","","","","","","","","","","","","","","",""
"","animation","22","96797","0.0-5.0-4.0-1.0","","","","","","[{""stimulus"":""https://ziweizhang0304.github.io/Stats_learning_trig/img/Stim/FN_022_g.png"",""time"":342},{""stimulus"":""blank"",""time"":643.5},{""stimulus"":""https://ziweizhang0304.github.io/Stats_learning_trig/img/Stim/FN_026_g.png"",""time"":681.5},{""stimulus"":""blank"",""time"":982.5},{""stimulus"":""https://ziweizhang0304.github.io/Stats_learning_trig/img/Stim/FN_006_g.png"",""time"":1021.7000000000116},{""stimulus"":""blank"",""time"":1323.7000000000116},{""stimulus"":""https://ziweizhang0304.github.io/Stats_learning_trig/img/Stim/FN_011_g.png"",""time"":1360.7000000000116},{""stimulus"":""blank"",""time"":1662.7000000000116},{""stimulus"":""https://ziweizhang0304.github.io/Stats_learning_trig/img/Stim/FN_015_g.png"",""time"":1700.7999999999884},{""stimulus"":""blank"",""time"":2001.7000000000116},{""stimulus"":""https://ziweizhang0304.github.io/Stats_learning_trig/img/Stim/FN_003_g.png"",""time"":2040.7999999999884},{""stimulus"":""blank"",""time"":2341.9000000000233},{""stimulus"":""https://ziweizhang0304.github.io/Stats_learning_trig/img/Stim/FN_004_g.png"",""time"":2380.9000000000233},{""stimulus"":""blank"",""time"":2681.9000000000233},{""stimulus"":""https://ziweizhang0304.github.io/Stats_learning_trig/img/Stim/FN_012_g.png"",""time"":2722},{""stimulus"":""blank"",""time"":3031},{""stimulus"":""https://ziweizhang0304.github.io/Stats_learning_trig/img/Stim/FN_024_g.png"",""time"":3062.2000000000116},{""stimulus"":""blank"",""time"":3374.0999999999767},{""stimulus"":""https://ziweizhang0304.github.io/Stats_learning_trig/img/Stim/FN_018_g.png"",""time"":3401.2000000000116},{""stimulus"":""blank"",""time"":3702.2999999999884},{""stimulus"":""https://ziweizhang0304.github.io/Stats_learning_trig/img/Stim/FN_021_g.png"",""time"":3741.4000000000233},{""stimulus"":""blank"",""time"":4043.2999999999884},{""stimulus"":""https://ziweizhang0304.github.io/Stats_learning_trig/img/Stim/FN_001_g.png"",""time"":4080.7000000000116},{""stimulus"":""blank"",""time"":4381.400000000023}]","[{""key_press"":32,""rt"":2478.8000000000466,""stimulus"":""https://ziweizhang0304.github.io/Stats_learning_trig/img/Stim/FN_004_g.png""}]","438.0000000000582","https://ziweizhang0304.github.io/Stats_learning_trig/img/Stim/FN_003_g.png","post_TD","5","2040.7999999999884","2478.8000000000466","slow","6","2","5ff2240a2f567121402762e6","","","","","",""
"","image-keyboard-response","23","98456","0.0-5.0-5.0-0.0","1658.2999999999884","","","https://ziweizhang0304.github.io/Stats_learning_trig/img/Stim/FN_020_g.png","13","","","","","","","","","","","","","","","","","",""
"","animation","24","102877","0.0-5.0-5.0-1.0","","","","","","[{""stimulus"":""https://ziweizhang0304.github.io/Stats_learning_trig/img/Stim/FN_022_g.png"",""time"":341.20000000001164},{""stimulus"":""blank"",""time"":641.2999999999884},{""stimulus"":""https://ziweizhang0304.github.io/Stats_learning_trig/img/Stim/FN_018_g.png"",""time"":680.2999999999884},{""stimulus"":""blank"",""time"":981.3999999999651},{""stimulus"":""https://ziweizhang0304.github.io/Stats_learning_trig/img/Stim/FN_006_g.png"",""time"":1021.2999999999884},{""stimulus"":""blank"",""time"":1322.2000000000116},{""stimulus"":""https://ziweizhang0304.github.io/Stats_learning_trig/img/Stim/FN_026_g.png"",""time"":1361.399999999965},{""stimulus"":""blank"",""time"":1663.399999999965},{""stimulus"":""https://ziweizhang0304.github.io/Stats_learning_trig/img/Stim/FN_020_g.png"",""time"":1700.5},{""stimulus"":""blank"",""time"":2002.5},{""stimulus"":""https://ziweizhang0304.github.io/Stats_learning_trig/img/Stim/FN_016_g.png"",""time"":2041.5999999999767},{""stimulus"":""blank"",""time"":2346.5999999999767},{""stimulus"":""https://ziweizhang0304.github.io/Stats_learning_trig/img/Stim/FN_019_g.png"",""time"":2380.7999999999884},{""stimulus"":""blank"",""time"":2682.5999999999767},{""stimulus"":""https://ziweizhang0304.github.io/Stats_learning_trig/img/Stim/FN_012_g.png"",""time"":2720.899999999965},{""stimulus"":""blank"",""time"":3033.7000000000116},{""stimulus"":""https://ziweizhang0304.github.io/Stats_learning_trig/img/Stim/FN_011_g.png"",""time"":3060.899999999965},{""stimulus"":""blank"",""time"":3374.899999999965},{""stimulus"":""https://ziweizhang0304.github.io/Stats_learning_trig/img/Stim/FN_024_g.png"",""time"":3401},{""stimulus"":""blank"",""time"":3701.5},{""stimulus"":""https://ziweizhang0304.github.io/Stats_learning_trig/img/Stim/FN_021_g.png"",""time"":3741.899999999965},{""stimulus"":""blank"",""time"":4048.2999999999884},{""stimulus"":""https://ziweizhang0304.github.io/Stats_learning_trig/img/Stim/FN_001_g.png"",""time"":4081.399999999965},{""stimulus"":""blank"",""time"":4381.700000000012}]","[{""key_press"":32,""rt"":2120.7999999999884,""stimulus"":""https://ziweizhang0304.github.io/Stats_learning_trig/img/Stim/FN_016_g.png""}]","420.29999999998836","https://ziweizhang0304.github.io/Stats_learning_trig/img/Stim/FN_020_g.png","post_TD","6","1700.5","2120.7999999999884","fast","5","1","5ff2240a2f567121402762e6","","","","","",""
"","image-keyboard-response","25","103953","0.0-5.0-6.0-0.0","1072.5999999999767","","","https://ziweizhang0304.github.io/Stats_learning_trig/img/Stim/FN_019_g.png","13","","","","","","","","","","","","","","","","","",""
"","animation","26","108374","0.0-5.0-6.0-1.0","","","","","","[{""stimulus"":""https://ziweizhang0304.github.io/Stats_learning_trig/img/Stim/FN_021_g.png"",""time"":342},{""stimulus"":""blank"",""time"":642.1000000000349},{""stimulus"":""https://ziweizhang0304.github.io/Stats_learning_trig/img/Stim/FN_012_g.png"",""time"":681.2000000000116},{""stimulus"":""blank"",""time"":983},{""stimulus"":""https://ziweizhang0304.github.io/Stats_learning_trig/img/Stim/FN_024_g.png"",""time"":1021.1000000000349},{""stimulus"":""blank"",""time"":1331.100000000035},{""stimulus"":""https://ziweizhang0304.github.io/Stats_learning_trig/img/Stim/FN_020_g.png"",""time"":1360.9000000000233},{""stimulus"":""blank"",""time"":1662.9000000000233},{""stimulus"":""https://ziweizhang0304.github.io/Stats_learning_trig/img/Stim/FN_016_g.png"",""time"":1701.7000000000116},{""stimulus"":""blank"",""time"":2003},{""stimulus"":""https://ziweizhang0304.github.io/Stats_learning_trig/img/Stim/FN_019_g.png"",""time"":2042.2000000000116},{""stimulus"":""blank"",""time"":2343.7000000000116},{""stimulus"":""https://ziweizhang0304.github.io/Stats_learning_trig/img/Stim/FN_026_g.png"",""time"":2381.100000000035},{""stimulus"":""blank"",""time"":2681.5},{""stimulus"":""https://ziweizhang0304.github.io/Stats_learning_trig/img/Stim/FN_011_g.png"",""time"":2720.7000000000116},{""stimulus"":""blank"",""time"":3022.4000000000233},{""stimulus"":""https://ziweizhang0304.github.io/Stats_learning_trig/img/Stim/FN_018_g.png"",""time"":3061.3000000000466},{""stimulus"":""blank"",""time"":3363},{""stimulus"":""https://ziweizhang0304.github.io/Stats_learning_trig/img/Stim/FN_022_g.png"",""time"":3401.600000000035},{""stimulus"":""blank"",""time"":3703},{""stimulus"":""https://ziweizhang0304.github.io/Stats_learning_trig/img/Stim/FN_001_g.png"",""time"":3741.600000000035},{""stimulus"":""blank"",""time"":4043.100000000035},{""stimulus"":""https://ziweizhang0304.github.io/Stats_learning_trig/img/Stim/FN_006_g.png"",""time"":4081.600000000035},{""stimulus"":""blank"",""time"":4382.900000000023}]","[{""key_press"":32,""rt"":2441.2000000000116,""stimulus"":""https://ziweizhang0304.github.io/Stats_learning_trig/img/Stim/FN_026_g.png""}]","399","https://ziweizhang0304.github.io/Stats_learning_trig/img/Stim/FN_019_g.png","post_TD","7","2042.2000000000116","2441.2000000000116","fast","6","3","5ff2240a2f567121402762e6","","","","","",""
"","image-keyboard-response","27","109768","0.0-5.0-7.0-0.0","1390.5","","","https://ziweizhang0304.github.io/Stats_learning_trig/img/Stim/FN_004_g.png","13","","","","","","","","","","","","","","","","","",""
"","animation","28","114190","0.0-5.0-7.0-1.0","","","","","","[{""stimulus"":""https://ziweizhang0304.github.io/Stats_learning_trig/img/Stim/FN_026_g.png"",""time"":357.0999999999767},{""stimulus"":""blank"",""time"":658.9000000000233},{""stimulus"":""https://ziweizhang0304.github.io/Stats_learning_trig/img/Stim/FN_012_g.png"",""time"":681.7000000000116},{""stimulus"":""blank"",""time"":997.5999999999767},{""stimulus"":""https://ziweizhang0304.github.io/Stats_learning_trig/img/Stim/FN_021_g.png"",""time"":1028.9000000000233},{""stimulus"":""blank"",""time"":1329.5999999999767},{""stimulus"":""https://ziweizhang0304.github.io/Stats_learning_trig/img/Stim/FN_001_g.png"",""time"":1361.7999999999884},{""stimulus"":""blank"",""time"":1663.5},{""stimulus"":""https://ziweizhang0304.github.io/Stats_learning_trig/img/Stim/FN_024_g.png"",""time"":1701.9000000000233},{""stimulus"":""blank"",""time"":2002.9000000000233},{""stimulus"":""https://ziweizhang0304.github.io/Stats_learning_trig/img/Stim/FN_015_g.png"",""time"":2041.4000000000233},{""stimulus"":""blank"",""time"":2342.5999999999767},{""stimulus"":""https://ziweizhang0304.github.io/Stats_learning_trig/img/Stim/FN_003_g.png"",""time"":2381.4000000000233},{""stimulus"":""blank"",""time"":2684.9000000000233},{""stimulus"":""https://ziweizhang0304.github.io/Stats_learning_trig/img/Stim/FN_004_g.png"",""time"":2726.2000000000116},{""stimulus"":""blank"",""time"":3028.5},{""stimulus"":""https://ziweizhang0304.github.io/Stats_learning_trig/img/Stim/FN_011_g.png"",""time"":3061.7999999999884},{""stimulus"":""blank"",""time"":3362.5999999999767},{""stimulus"":""https://ziweizhang0304.github.io/Stats_learning_trig/img/Stim/FN_018_g.png"",""time"":3401.2000000000116},{""stimulus"":""blank"",""time"":3701.5999999999767},{""stimulus"":""https://ziweizhang0304.github.io/Stats_learning_trig/img/Stim/FN_022_g.png"",""time"":3741.5999999999767},{""stimulus"":""blank"",""time"":4042.2999999999884},{""stimulus"":""https://ziweizhang0304.github.io/Stats_learning_trig/img/Stim/FN_006_g.png"",""time"":4081.2999999999884},{""stimulus"":""blank"",""time"":4392.5}]","[{""key_press"":32,""rt"":3143.5,""stimulus"":""https://ziweizhang0304.github.io/Stats_learning_trig/img/Stim/FN_011_g.png""}]","417.29999999998836","https://ziweizhang0304.github.io/Stats_learning_trig/img/Stim/FN_004_g.png","post_TD","8","2726.2000000000116","3143.5","slow","8","3","5ff2240a2f567121402762e6","","","","","",""
"","image-keyboard-response","29","115680","0.0-5.0-8.0-0.0","1488.5","","","https://ziweizhang0304.github.io/Stats_learning_trig/img/Stim/FN_004_g.png","13","","","","","","","","","","","","","","","","","",""
"","animation","30","120101","0.0-5.0-8.0-1.0","","","","","","[{""stimulus"":""https://ziweizhang0304.github.io/Stats_learning_trig/img/Stim/FN_022_g.png"",""time"":341.19999999995343},{""stimulus"":""blank"",""time"":653.2999999999884},{""stimulus"":""https://ziweizhang0304.github.io/Stats_learning_trig/img/Stim/FN_018_g.png"",""time"":680.7999999999884},{""stimulus"":""blank"",""time"":981.5},{""stimulus"":""https://ziweizhang0304.github.io/Stats_learning_trig/img/Stim/FN_012_g.png"",""time"":1020.8999999999651},{""stimulus"":""blank"",""time"":1322},{""stimulus"":""https://ziweizhang0304.github.io/Stats_learning_trig/img/Stim/FN_001_g.png"",""time"":1360.899999999965},{""stimulus"":""blank"",""time"":1662.1999999999534},{""stimulus"":""https://ziweizhang0304.github.io/Stats_learning_trig/img/Stim/FN_024_g.png"",""time"":1702},{""stimulus"":""blank"",""time"":2009.2999999999884},{""stimulus"":""https://ziweizhang0304.github.io/Stats_learning_trig/img/Stim/FN_011_g.png"",""time"":2041.7999999999884},{""stimulus"":""blank"",""time"":2343.7999999999884},{""stimulus"":""https://ziweizhang0304.github.io/Stats_learning_trig/img/Stim/FN_015_g.png"",""time"":2381.0999999999767},{""stimulus"":""blank"",""time"":2681.7999999999884},{""stimulus"":""https://ziweizhang0304.github.io/Stats_learning_trig/img/Stim/FN_003_g.png"",""time"":2721.2999999999884},{""stimulus"":""blank"",""time"":3025.7999999999884},{""stimulus"":""https://ziweizhang0304.github.io/Stats_learning_trig/img/Stim/FN_004_g.png"",""time"":3061.2999999999884},{""stimulus"":""blank"",""time"":3365.899999999965},{""stimulus"":""https://ziweizhang0304.github.io/Stats_learning_trig/img/Stim/FN_026_g.png"",""time"":3401},{""stimulus"":""blank"",""time"":3702.5},{""stimulus"":""https://ziweizhang0304.github.io/Stats_learning_trig/img/Stim/FN_021_g.png"",""time"":3741.899999999965},{""stimulus"":""blank"",""time"":4043},{""stimulus"":""https://ziweizhang0304.github.io/Stats_learning_trig/img/Stim/FN_006_g.png"",""time"":4080.899999999965},{""stimulus"":""blank"",""time"":4382}]","[{""key_press"":32,""rt"":3457.7999999999884,""stimulus"":""https://ziweizhang0304.github.io/Stats_learning_trig/img/Stim/FN_026_g.png""}]","396.5","https://ziweizhang0304.github.io/Stats_learning_trig/img/Stim/FN_004_g.png","post_TD","9","3061.2999999999884","3457.7999999999884","slow","9","3","5ff2240a2f567121402762e6","","","","","",""
"","image-keyboard-response","31","121421","0.0-5.0-9.0-0.0","1317.7999999999884","","","https://ziweizhang0304.github.io/Stats_learning_trig/img/Stim/FN_020_g.png","13","","","","","","","","","","","","","","","","","",""
"","animation","32","125843","0.0-5.0-9.0-1.0","","","","","","[{""stimulus"":""https://ziweizhang0304.github.io/Stats_learning_trig/img/Stim/FN_022_g.png"",""time"":341.5},{""stimulus"":""blank"",""time"":642.5},{""stimulus"":""https://ziweizhang0304.github.io/Stats_learning_trig/img/Stim/FN_006_g.png"",""time"":680.7999999999884},{""stimulus"":""blank"",""time"":984.0999999999767},{""stimulus"":""https://ziweizhang0304.github.io/Stats_learning_trig/img/Stim/FN_001_g.png"",""time"":1022.0999999999767},{""stimulus"":""blank"",""time"":1328.2000000000116},{""stimulus"":""https://ziweizhang0304.github.io/Stats_learning_trig/img/Stim/FN_018_g.png"",""time"":1361.0999999999767},{""stimulus"":""blank"",""time"":1672.2999999999884},{""stimulus"":""https://ziweizhang0304.github.io/Stats_learning_trig/img/Stim/FN_012_g.png"",""time"":1703},{""stimulus"":""blank"",""time"":2004.0999999999767},{""stimulus"":""https://ziweizhang0304.github.io/Stats_learning_trig/img/Stim/FN_011_g.png"",""time"":2041.7000000000116},{""stimulus"":""blank"",""time"":2342.7999999999884},{""stimulus"":""https://ziweizhang0304.github.io/Stats_learning_trig/img/Stim/FN_020_g.png"",""time"":2381},{""stimulus"":""blank"",""time"":2682.5999999999767},{""stimulus"":""https://ziweizhang0304.github.io/Stats_learning_trig/img/Stim/FN_016_g.png"",""time"":2722},{""stimulus"":""blank"",""time"":3022.0999999999767},{""stimulus"":""https://ziweizhang0304.github.io/Stats_learning_trig/img/Stim/FN_019_g.png"",""time"":3061},{""stimulus"":""blank"",""time"":3369.2999999999884},{""stimulus"":""https://ziweizhang0304.github.io/Stats_learning_trig/img/Stim/FN_026_g.png"",""time"":3400.7999999999884},{""stimulus"":""blank"",""time"":3702.399999999965},{""stimulus"":""https://ziweizhang0304.github.io/Stats_learning_trig/img/Stim/FN_024_g.png"",""time"":3743.0999999999767},{""stimulus"":""blank"",""time"":4044.399999999965},{""stimulus"":""https://ziweizhang0304.github.io/Stats_learning_trig/img/Stim/FN_021_g.png"",""time"":4081.899999999965},{""stimulus"":""blank"",""time"":4383}]","[{""key_press"":32,""rt"":2910.100000000035,""stimulus"":""https://ziweizhang0304.github.io/Stats_learning_trig/img/Stim/FN_016_g.png""}]","529.1000000000349","https://ziweizhang0304.github.io/Stats_learning_trig/img/Stim/FN_020_g.png","post_TD","10","2381","2910.100000000035","fast","7","1","5ff2240a2f567121402762e6","","","","","",""
"","image-keyboard-response","33","126931","0.0-5.0-10.0-0.0","1085.7999999999884","","","https://ziweizhang0304.github.io/Stats_learning_trig/img/Stim/FN_004_g.png","13","","","","","","","","","","","","","","","","","",""
"","animation","34","131352","0.0-5.0-10.0-1.0","","","","","","[{""stimulus"":""https://ziweizhang0304.github.io/Stats_learning_trig/img/Stim/FN_022_g.png"",""time"":341.79999999998836},{""stimulus"":""blank"",""time"":642.6999999999534},{""stimulus"":""https://ziweizhang0304.github.io/Stats_learning_trig/img/Stim/FN_026_g.png"",""time"":682.1999999999534},{""stimulus"":""blank"",""time"":983},{""stimulus"":""https://ziweizhang0304.github.io/Stats_learning_trig/img/Stim/FN_006_g.png"",""time"":1022.0999999999767},{""stimulus"":""blank"",""time"":1323.399999999965},{""stimulus"":""https://ziweizhang0304.github.io/Stats_learning_trig/img/Stim/FN_011_g.png"",""time"":1371.6999999999534},{""stimulus"":""blank"",""time"":1672.5},{""stimulus"":""https://ziweizhang0304.github.io/Stats_learning_trig/img/Stim/FN_015_g.png"",""time"":1701.6999999999534},{""stimulus"":""blank"",""time"":2002.2999999999884},{""stimulus"":""https://ziweizhang0304.github.io/Stats_learning_trig/img/Stim/FN_003_g.png"",""time"":2040.7999999999884},{""stimulus"":""blank"",""time"":2342.1999999999534},{""stimulus"":""https://ziweizhang0304.github.io/Stats_learning_trig/img/Stim/FN_004_g.png"",""time"":2380.899999999965},{""stimulus"":""blank"",""time"":2682.5999999999767},{""stimulus"":""https://ziweizhang0304.github.io/Stats_learning_trig/img/Stim/FN_012_g.png"",""time"":2721.5},{""stimulus"":""blank"",""time"":3022.6999999999534},{""stimulus"":""https://ziweizhang0304.github.io/Stats_learning_trig/img/Stim/FN_024_g.png"",""time"":3064.0999999999767},{""stimulus"":""blank"",""time"":3379.5999999999767},{""stimulus"":""https://ziweizhang0304.github.io/Stats_learning_trig/img/Stim/FN_018_g.png"",""time"":3401.6999999999534},{""stimulus"":""blank"",""time"":3702.6999999999534},{""stimulus"":""https://ziweizhang0304.github.io/Stats_learning_trig/img/Stim/FN_021_g.png"",""time"":3741.899999999965},{""stimulus"":""blank"",""time"":4042.2999999999884},{""stimulus"":""https://ziweizhang0304.github.io/Stats_learning_trig/img/Stim/FN_001_g.png"",""time"":4081.2999999999884},{""stimulus"":""blank"",""time"":4381.899999999965}]","[{""key_press"":32,""rt"":2777.0999999999767,""stimulus"":""https://ziweizhang0304.github.io/Stats_learning_trig/img/Stim/FN_012_g.png""}]","396.20000000001164","https://ziweizhang0304.github.io/Stats_learning_trig/img/Stim/FN_004_g.png","post_TD","11","2380.899999999965","2777.0999999999767","slow","7","3","5ff2240a2f567121402762e6","","","","","",""
"","image-keyboard-response","35","132324","0.0-5.0-11.0-0.0","967.9000000000233","","","https://ziweizhang0304.github.io/Stats_learning_trig/img/Stim/FN_015_g.png","13","","","","","","","","","","","","","","","","","",""
"","animation","36","136744","0.0-5.0-11.0-1.0","","","","","","[{""stimulus"":""https://ziweizhang0304.github.io/Stats_learning_trig/img/Stim/FN_026_g.png"",""time"":342.20000000001164},{""stimulus"":""blank"",""time"":650.5999999999767},{""stimulus"":""https://ziweizhang0304.github.io/Stats_learning_trig/img/Stim/FN_012_g.png"",""time"":682.2999999999884},{""stimulus"":""blank"",""time"":983.2000000000116},{""stimulus"":""https://ziweizhang0304.github.io/Stats_learning_trig/img/Stim/FN_021_g.png"",""time"":1021.7999999999884},{""stimulus"":""blank"",""time"":1322.2000000000116},{""stimulus"":""https://ziweizhang0304.github.io/Stats_learning_trig/img/Stim/FN_001_g.png"",""time"":1361.2000000000116},{""stimulus"":""blank"",""time"":1662},{""stimulus"":""https://ziweizhang0304.github.io/Stats_learning_trig/img/Stim/FN_024_g.png"",""time"":1701.9000000000233},{""stimulus"":""blank"",""time"":2004},{""stimulus"":""https://ziweizhang0304.github.io/Stats_learning_trig/img/Stim/FN_015_g.png"",""time"":2041.2999999999884},{""stimulus"":""blank"",""time"":2347.9000000000233},{""stimulus"":""https://ziweizhang0304.github.io/Stats_learning_trig/img/Stim/FN_003_g.png"",""time"":2382.7999999999884},{""stimulus"":""blank"",""time"":2684},{""stimulus"":""https://ziweizhang0304.github.io/Stats_learning_trig/img/Stim/FN_004_g.png"",""time"":2721.7999999999884},{""stimulus"":""blank"",""time"":3035.2000000000116},{""stimulus"":""https://ziweizhang0304.github.io/Stats_learning_trig/img/Stim/FN_011_g.png"",""time"":3062},{""stimulus"":""blank"",""time"":3362.4000000000233},{""stimulus"":""https://ziweizhang0304.github.io/Stats_learning_trig/img/Stim/FN_018_g.png"",""time"":3401.7000000000116},{""stimulus"":""blank"",""time"":3702.2000000000116},{""stimulus"":""https://ziweizhang0304.github.io/Stats_learning_trig/img/Stim/FN_022_g.png"",""time"":3741.7000000000116},{""stimulus"":""blank"",""time"":4042.2999999999884},{""stimulus"":""https://ziweizhang0304.github.io/Stats_learning_trig/img/Stim/FN_006_g.png"",""time"":4080.2999999999884},{""stimulus"":""blank"",""time"":4388.599999999977}]","[{""key_press"":32,""rt"":2477,""stimulus"":""https://ziweizhang0304.github.io/Stats_learning_trig/img/Stim/FN_003_g.png""}]","435.70000000001164","https://ziweizhang0304.github.io/Stats_learning_trig/img/Stim/FN_015_g.png","post_TD","12","2041.2999999999884","2477","slow","6","1","5ff2240a2f567121402762e6","","","","","",""
"","image-keyboard-response","37","137788","0.0-5.0-12.0-0.0","1041.1999999999534","","","https://ziweizhang0304.github.io/Stats_learning_trig/img/Stim/FN_019_g.png","13","","","","","","","","","","","","","","","","","",""
"","animation","38","142209","0.0-5.0-12.0-1.0","","","","","","[{""stimulus"":""https://ziweizhang0304.github.io/Stats_learning_trig/img/Stim/FN_018_g.png"",""time"":342.0999999999767},{""stimulus"":""blank"",""time"":642.7000000000116},{""stimulus"":""https://ziweizhang0304.github.io/Stats_learning_trig/img/Stim/FN_011_g.png"",""time"":681.7999999999884},{""stimulus"":""blank"",""time"":983.4000000000233},{""stimulus"":""https://ziweizhang0304.github.io/Stats_learning_trig/img/Stim/FN_001_g.png"",""time"":1020.7999999999884},{""stimulus"":""blank"",""time"":1322.0999999999767},{""stimulus"":""https://ziweizhang0304.github.io/Stats_learning_trig/img/Stim/FN_012_g.png"",""time"":1361.7000000000116},{""stimulus"":""blank"",""time"":1670.0999999999767},{""stimulus"":""https://ziweizhang0304.github.io/Stats_learning_trig/img/Stim/FN_024_g.png"",""time"":1701.9000000000233},{""stimulus"":""blank"",""time"":2003},{""stimulus"":""https://ziweizhang0304.github.io/Stats_learning_trig/img/Stim/FN_020_g.png"",""time"":2041.2000000000116},{""stimulus"":""blank"",""time"":2342.4000000000233},{""stimulus"":""https://ziweizhang0304.github.io/Stats_learning_trig/img/Stim/FN_016_g.png"",""time"":2381.7000000000116},{""stimulus"":""blank"",""time"":2697},{""stimulus"":""https://ziweizhang0304.github.io/Stats_learning_trig/img/Stim/FN_019_g.png"",""time"":2720.2999999999884},{""stimulus"":""blank"",""time"":3021.4000000000233},{""stimulus"":""https://ziweizhang0304.github.io/Stats_learning_trig/img/Stim/FN_026_g.png"",""time"":3061.5},{""stimulus"":""blank"",""time"":3363},{""stimulus"":""https://ziweizhang0304.github.io/Stats_learning_trig/img/Stim/FN_021_g.png"",""time"":3401.7000000000116},{""stimulus"":""blank"",""time"":3712.0999999999767},{""stimulus"":""https://ziweizhang0304.github.io/Stats_learning_trig/img/Stim/FN_022_g.png"",""time"":3740.5999999999767},{""stimulus"":""blank"",""time"":4041.9000000000233},{""stimulus"":""https://ziweizhang0304.github.io/Stats_learning_trig/img/Stim/FN_006_g.png"",""time"":4082},{""stimulus"":""blank"",""time"":4383}]","[{""key_press"":32,""rt"":3181.9000000000233,""stimulus"":""https://ziweizhang0304.github.io/Stats_learning_trig/img/Stim/FN_026_g.png""}]","461.6000000000349","https://ziweizhang0304.github.io/Stats_learning_trig/img/Stim/FN_019_g.png","post_TD","13","2720.2999999999884","3181.9000000000233","fast","8","3","5ff2240a2f567121402762e6","","","","","",""
"","image-keyboard-response","39","143092","0.0-5.0-13.0-0.0","879.2000000000116","","","https://ziweizhang0304.github.io/Stats_learning_trig/img/Stim/FN_015_g.png","13","","","","","","","","","","","","","","","","","",""
"","animation","40","147514","0.0-5.0-13.0-1.0","","","","","","[{""stimulus"":""https://ziweizhang0304.github.io/Stats_learning_trig/img/Stim/FN_022_g.png"",""time"":341.5},{""stimulus"":""blank"",""time"":643.4000000000233},{""stimulus"":""https://ziweizhang0304.github.io/Stats_learning_trig/img/Stim/FN_026_g.png"",""time"":680.7000000000116},{""stimulus"":""blank"",""time"":982.3000000000466},{""stimulus"":""https://ziweizhang0304.github.io/Stats_learning_trig/img/Stim/FN_006_g.png"",""time"":1020.6000000000349},{""stimulus"":""blank"",""time"":1321.3000000000466},{""stimulus"":""https://ziweizhang0304.github.io/Stats_learning_trig/img/Stim/FN_011_g.png"",""time"":1362.2000000000116},{""stimulus"":""blank"",""time"":1673.4000000000233},{""stimulus"":""https://ziweizhang0304.github.io/Stats_learning_trig/img/Stim/FN_015_g.png"",""time"":1702.100000000035},{""stimulus"":""blank"",""time"":2017.8000000000466},{""stimulus"":""https://ziweizhang0304.github.io/Stats_learning_trig/img/Stim/FN_003_g.png"",""time"":2041.5},{""stimulus"":""blank"",""time"":2342.600000000035},{""stimulus"":""https://ziweizhang0304.github.io/Stats_learning_trig/img/Stim/FN_004_g.png"",""time"":2381},{""stimulus"":""blank"",""time"":2681.8000000000466},{""stimulus"":""https://ziweizhang0304.github.io/Stats_learning_trig/img/Stim/FN_012_g.png"",""time"":2721.600000000035},{""stimulus"":""blank"",""time"":3022.3000000000466},{""stimulus"":""https://ziweizhang0304.github.io/Stats_learning_trig/img/Stim/FN_024_g.png"",""time"":3060.7000000000116},{""stimulus"":""blank"",""time"":3361.8000000000466},{""stimulus"":""https://ziweizhang0304.github.io/Stats_learning_trig/img/Stim/FN_018_g.png"",""time"":3401},{""stimulus"":""blank"",""time"":3701.9000000000233},{""stimulus"":""https://ziweizhang0304.github.io/Stats_learning_trig/img/Stim/FN_021_g.png"",""time"":3741.7000000000116},{""stimulus"":""blank"",""time"":4042.5},{""stimulus"":""https://ziweizhang0304.github.io/Stats_learning_trig/img/Stim/FN_001_g.png"",""time"":4081.600000000035},{""stimulus"":""blank"",""time"":4385}]","[{""key_press"":32,""rt"":2132,""stimulus"":""https://ziweizhang0304.github.io/Stats_learning_trig/img/Stim/FN_003_g.png""}]","429.8999999999651","https://ziweizhang0304.github.io/Stats_learning_trig/img/Stim/FN_015_g.png","post_TD","14","1702.100000000035","2132","slow","5","1","5ff2240a2f567121402762e6","","","","","",""
"","image-keyboard-response","41","148423","0.0-5.0-14.0-0.0","908.0999999999767","","","https://ziweizhang0304.github.io/Stats_learning_trig/img/Stim/FN_019_g.png","13","","","","","","","","","","","","","","","","","",""
"","animation","42","152844","0.0-5.0-14.0-1.0","","","","","","[{""stimulus"":""https://ziweizhang0304.github.io/Stats_learning_trig/img/Stim/FN_022_g.png"",""time"":349.29999999998836},{""stimulus"":""blank"",""time"":661.4000000000233},{""stimulus"":""https://ziweizhang0304.github.io/Stats_learning_trig/img/Stim/FN_006_g.png"",""time"":680.9000000000233},{""stimulus"":""blank"",""time"":982.7000000000116},{""stimulus"":""https://ziweizhang0304.github.io/Stats_learning_trig/img/Stim/FN_001_g.png"",""time"":1033.4000000000233},{""stimulus"":""blank"",""time"":1335.2000000000116},{""stimulus"":""https://ziweizhang0304.github.io/Stats_learning_trig/img/Stim/FN_018_g.png"",""time"":1361.2000000000116},{""stimulus"":""blank"",""time"":1662.7000000000116},{""stimulus"":""https://ziweizhang0304.github.io/Stats_learning_trig/img/Stim/FN_012_g.png"",""time"":1701.9000000000233},{""stimulus"":""blank"",""time"":2003.2000000000116},{""stimulus"":""https://ziweizhang0304.github.io/Stats_learning_trig/img/Stim/FN_011_g.png"",""time"":2041.2999999999884},{""stimulus"":""blank"",""time"":2356.7999999999884},{""stimulus"":""https://ziweizhang0304.github.io/Stats_learning_trig/img/Stim/FN_020_g.png"",""time"":2389},{""stimulus"":""blank"",""time"":2700.5},{""stimulus"":""https://ziweizhang0304.github.io/Stats_learning_trig/img/Stim/FN_016_g.png"",""time"":2721.600000000035},{""stimulus"":""blank"",""time"":3032.7000000000116},{""stimulus"":""https://ziweizhang0304.github.io/Stats_learning_trig/img/Stim/FN_019_g.png"",""time"":3061.100000000035},{""stimulus"":""blank"",""time"":3361.4000000000233},{""stimulus"":""https://ziweizhang0304.github.io/Stats_learning_trig/img/Stim/FN_026_g.png"",""time"":3401.2000000000116},{""stimulus"":""blank"",""time"":3701.2999999999884},{""stimulus"":""https://ziweizhang0304.github.io/Stats_learning_trig/img/Stim/FN_024_g.png"",""time"":3741},{""stimulus"":""blank"",""time"":4044.9000000000233},{""stimulus"":""https://ziweizhang0304.github.io/Stats_learning_trig/img/Stim/FN_021_g.png"",""time"":4081.4000000000233},{""stimulus"":""blank"",""time"":4382.600000000035}]","[{""key_press"":32,""rt"":3505.4000000000233,""stimulus"":""https://ziweizhang0304.github.io/Stats_learning_trig/img/Stim/FN_026_g.png""}]","444.29999999998836","https://ziweizhang0304.github.io/Stats_learning_trig/img/Stim/FN_019_g.png","post_TD","15","3061.100000000035","3505.4000000000233","fast","9","3","5ff2240a2f567121402762e6","","","","","",""
"","image-keyboard-response","43","153907","0.0-5.0-15.0-0.0","1059.5","","","https://ziweizhang0304.github.io/Stats_learning_trig/img/Stim/FN_003_g.png","13","","","","","","","","","","","","","","","","","",""
"","animation","44","158328","0.0-5.0-15.0-1.0","","","","","","[{""stimulus"":""https://ziweizhang0304.github.io/Stats_learning_trig/img/Stim/FN_022_g.png"",""time"":341.6000000000349},{""stimulus"":""blank"",""time"":656},{""stimulus"":""https://ziweizhang0304.github.io/Stats_learning_trig/img/Stim/FN_018_g.png"",""time"":681.6000000000349},{""stimulus"":""blank"",""time"":983.2000000000116},{""stimulus"":""https://ziweizhang0304.github.io/Stats_learning_trig/img/Stim/FN_012_g.png"",""time"":1020.7999999999884},{""stimulus"":""blank"",""time"":1321.2999999999884},{""stimulus"":""https://ziweizhang0304.github.io/Stats_learning_trig/img/Stim/FN_001_g.png"",""time"":1361.2999999999884},{""stimulus"":""blank"",""time"":1663.2999999999884},{""stimulus"":""https://ziweizhang0304.github.io/Stats_learning_trig/img/Stim/FN_024_g.png"",""time"":1700.9000000000233},{""stimulus"":""blank"",""time"":2002.100000000035},{""stimulus"":""https://ziweizhang0304.github.io/Stats_learning_trig/img/Stim/FN_011_g.png"",""time"":2041.4000000000233},{""stimulus"":""blank"",""time"":2342.2999999999884},{""stimulus"":""https://ziweizhang0304.github.io/Stats_learning_trig/img/Stim/FN_015_g.png"",""time"":2381},{""stimulus"":""blank"",""time"":2686.600000000035},{""stimulus"":""https://ziweizhang0304.github.io/Stats_learning_trig/img/Stim/FN_003_g.png"",""time"":2720.600000000035},{""stimulus"":""blank"",""time"":3021.2000000000116},{""stimulus"":""https://ziweizhang0304.github.io/Stats_learning_trig/img/Stim/FN_004_g.png"",""time"":3062.100000000035},{""stimulus"":""blank"",""time"":3363},{""stimulus"":""https://ziweizhang0304.github.io/Stats_learning_trig/img/Stim/FN_026_g.png"",""time"":3401.7000000000116},{""stimulus"":""blank"",""time"":3714.2999999999884},{""stimulus"":""https://ziweizhang0304.github.io/Stats_learning_trig/img/Stim/FN_021_g.png"",""time"":3741.5},{""stimulus"":""blank"",""time"":4042},{""stimulus"":""https://ziweizhang0304.github.io/Stats_learning_trig/img/Stim/FN_006_g.png"",""time"":4091.2000000000116},{""stimulus"":""blank"",""time"":4402.299999999988}]","[{""key_press"":32,""rt"":3165.7000000000116,""stimulus"":""https://ziweizhang0304.github.io/Stats_learning_trig/img/Stim/FN_004_g.png""}]","445.0999999999767","https://ziweizhang0304.github.io/Stats_learning_trig/img/Stim/FN_003_g.png","post_TD","16","2720.600000000035","3165.7000000000116","slow","8","2","5ff2240a2f567121402762e6","","","","","",""
"","image-keyboard-response","45","159423","0.0-5.0-16.0-0.0","1093","","","https://ziweizhang0304.github.io/Stats_learning_trig/img/Stim/FN_003_g.png","13","","","","","","","","","","","","","","","","","",""
"","animation","46","163846","0.0-5.0-16.0-1.0","","","","","","[{""stimulus"":""https://ziweizhang0304.github.io/Stats_learning_trig/img/Stim/FN_026_g.png"",""time"":342.0999999999767},{""stimulus"":""blank"",""time"":654.2999999999884},{""stimulus"":""https://ziweizhang0304.github.io/Stats_learning_trig/img/Stim/FN_012_g.png"",""time"":681.2000000000116},{""stimulus"":""blank"",""time"":982},{""stimulus"":""https://ziweizhang0304.github.io/Stats_learning_trig/img/Stim/FN_021_g.png"",""time"":1021.5},{""stimulus"":""blank"",""time"":1322.7000000000116},{""stimulus"":""https://ziweizhang0304.github.io/Stats_learning_trig/img/Stim/FN_001_g.png"",""time"":1361.899999999965},{""stimulus"":""blank"",""time"":1672.2000000000116},{""stimulus"":""https://ziweizhang0304.github.io/Stats_learning_trig/img/Stim/FN_024_g.png"",""time"":1700.5999999999767},{""stimulus"":""blank"",""time"":2001.5999999999767},{""stimulus"":""https://ziweizhang0304.github.io/Stats_learning_trig/img/Stim/FN_015_g.png"",""time"":2041.2000000000116},{""stimulus"":""blank"",""time"":2342.2999999999884},{""stimulus"":""https://ziweizhang0304.github.io/Stats_learning_trig/img/Stim/FN_003_g.png"",""time"":2381},{""stimulus"":""blank"",""time"":2684.5999999999767},{""stimulus"":""https://ziweizhang0304.github.io/Stats_learning_trig/img/Stim/FN_004_g.png"",""time"":2721.5},{""stimulus"":""blank"",""time"":3026.7999999999884},{""stimulus"":""https://ziweizhang0304.github.io/Stats_learning_trig/img/Stim/FN_011_g.png"",""time"":3062},{""stimulus"":""blank"",""time"":3368.5999999999767},{""stimulus"":""https://ziweizhang0304.github.io/Stats_learning_trig/img/Stim/FN_018_g.png"",""time"":3401.5},{""stimulus"":""blank"",""time"":3702.399999999965},{""stimulus"":""https://ziweizhang0304.github.io/Stats_learning_trig/img/Stim/FN_022_g.png"",""time"":3742},{""stimulus"":""blank"",""time"":4042.5},{""stimulus"":""https://ziweizhang0304.github.io/Stats_learning_trig/img/Stim/FN_006_g.png"",""time"":4081.2000000000116},{""stimulus"":""blank"",""time"":4381.899999999965}]","[{""key_press"":32,""rt"":2812.7000000000116,""stimulus"":""https://ziweizhang0304.github.io/Stats_learning_trig/img/Stim/FN_004_g.png""}]","431.70000000001164","https://ziweizhang0304.github.io/Stats_learning_trig/img/Stim/FN_003_g.png","post_TD","17","2381","2812.7000000000116","slow","7","2","5ff2240a2f567121402762e6","","","","","",""
"","image-keyboard-response","47","164763","0.0-5.0-17.0-0.0","914.5","","","https://ziweizhang0304.github.io/Stats_learning_trig/img/Stim/FN_015_g.png","13","","","","","","","","","","","","","","","","","",""
"","animation","48","169184","0.0-5.0-17.0-1.0","","","","","","[{""stimulus"":""https://ziweizhang0304.github.io/Stats_learning_trig/img/Stim/FN_022_g.png"",""time"":345.69999999995343},{""stimulus"":""blank"",""time"":646.6999999999534},{""stimulus"":""https://ziweizhang0304.github.io/Stats_learning_trig/img/Stim/FN_018_g.png"",""time"":680.8999999999651},{""stimulus"":""blank"",""time"":985.5999999999767},{""stimulus"":""https://ziweizhang0304.github.io/Stats_learning_trig/img/Stim/FN_012_g.png"",""time"":1021.3999999999651},{""stimulus"":""blank"",""time"":1327.5},{""stimulus"":""https://ziweizhang0304.github.io/Stats_learning_trig/img/Stim/FN_001_g.png"",""time"":1362.0999999999767},{""stimulus"":""blank"",""time"":1663},{""stimulus"":""https://ziweizhang0304.github.io/Stats_learning_trig/img/Stim/FN_024_g.png"",""time"":1700.899999999965},{""stimulus"":""blank"",""time"":2001.899999999965},{""stimulus"":""https://ziweizhang0304.github.io/Stats_learning_trig/img/Stim/FN_011_g.png"",""time"":2041.399999999965},{""stimulus"":""blank"",""time"":2346.7999999999884},{""stimulus"":""https://ziweizhang0304.github.io/Stats_learning_trig/img/Stim/FN_015_g.png"",""time"":2381.0999999999767},{""stimulus"":""blank"",""time"":2682.2999999999884},{""stimulus"":""https://ziweizhang0304.github.io/Stats_learning_trig/img/Stim/FN_003_g.png"",""time"":2720.899999999965},{""stimulus"":""blank"",""time"":3030},{""stimulus"":""https://ziweizhang0304.github.io/Stats_learning_trig/img/Stim/FN_004_g.png"",""time"":3061.2999999999884},{""stimulus"":""blank"",""time"":3361.7999999999884},{""stimulus"":""https://ziweizhang0304.github.io/Stats_learning_trig/img/Stim/FN_026_g.png"",""time"":3400.899999999965},{""stimulus"":""blank"",""time"":3701.5999999999767},{""stimulus"":""https://ziweizhang0304.github.io/Stats_learning_trig/img/Stim/FN_021_g.png"",""time"":3741.5},{""stimulus"":""blank"",""time"":4044.6999999999534},{""stimulus"":""https://ziweizhang0304.github.io/Stats_learning_trig/img/Stim/FN_006_g.png"",""time"":4081.399999999965},{""stimulus"":""blank"",""time"":4382.899999999965}]","[{""key_press"":32,""rt"":2832.899999999965,""stimulus"":""https://ziweizhang0304.github.io/Stats_learning_trig/img/Stim/FN_003_g.png""}]","451.79999999998836","https://ziweizhang0304.github.io/Stats_learning_trig/img/Stim/FN_015_g.png","post_TD","18","2381.0999999999767","2832.899999999965","slow","7","1","5ff2240a2f567121402762e6","","","","","",""
"","image-keyboard-response","49","170414","0.0-5.0-18.0-0.0","1229","","","https://ziweizhang0304.github.io/Stats_learning_trig/img/Stim/FN_016_g.png","13","","","","","","","","","","","","","","","","","",""
"","animation","50","174835","0.0-5.0-18.0-1.0","","","","","","[{""stimulus"":""https://ziweizhang0304.github.io/Stats_learning_trig/img/Stim/FN_022_g.png"",""time"":347.1000000000349},{""stimulus"":""blank"",""time"":649},{""stimulus"":""https://ziweizhang0304.github.io/Stats_learning_trig/img/Stim/FN_006_g.png"",""time"":680.8000000000466},{""stimulus"":""blank"",""time"":982.2000000000116},{""stimulus"":""https://ziweizhang0304.github.io/Stats_learning_trig/img/Stim/FN_001_g.png"",""time"":1021.2000000000116},{""stimulus"":""blank"",""time"":1324.2000000000116},{""stimulus"":""https://ziweizhang0304.github.io/Stats_learning_trig/img/Stim/FN_018_g.png"",""time"":1361.8000000000466},{""stimulus"":""blank"",""time"":1668.5},{""stimulus"":""https://ziweizhang0304.github.io/Stats_learning_trig/img/Stim/FN_012_g.png"",""time"":1701.4000000000233},{""stimulus"":""blank"",""time"":2003.4000000000233},{""stimulus"":""https://ziweizhang0304.github.io/Stats_learning_trig/img/Stim/FN_011_g.png"",""time"":2041.8000000000466},{""stimulus"":""blank"",""time"":2343.4000000000233},{""stimulus"":""https://ziweizhang0304.github.io/Stats_learning_trig/img/Stim/FN_020_g.png"",""time"":2381},{""stimulus"":""blank"",""time"":2695.7000000000116},{""stimulus"":""https://ziweizhang0304.github.io/Stats_learning_trig/img/Stim/FN_016_g.png"",""time"":2720.8000000000466},{""stimulus"":""blank"",""time"":3022.9000000000233},{""stimulus"":""https://ziweizhang0304.github.io/Stats_learning_trig/img/Stim/FN_019_g.png"",""time"":3061.100000000035},{""stimulus"":""blank"",""time"":3365.3000000000466},{""stimulus"":""https://ziweizhang0304.github.io/Stats_learning_trig/img/Stim/FN_026_g.png"",""time"":3400.5},{""stimulus"":""blank"",""time"":3701.4000000000233},{""stimulus"":""https://ziweizhang0304.github.io/Stats_learning_trig/img/Stim/FN_024_g.png"",""time"":3740.8000000000466},{""stimulus"":""blank"",""time"":4041},{""stimulus"":""https://ziweizhang0304.github.io/Stats_learning_trig/img/Stim/FN_021_g.png"",""time"":4082.100000000035},{""stimulus"":""blank"",""time"":4383}]","[{""key_press"":32,""rt"":3171.7999999999884,""stimulus"":""https://ziweizhang0304.github.io/Stats_learning_trig/img/Stim/FN_019_g.png""}]","450.9999999999418","https://ziweizhang0304.github.io/Stats_learning_trig/img/Stim/FN_016_g.png","post_TD","19","2720.8000000000466","3171.7999999999884","fast","8","2","5ff2240a2f567121402762e6","","","","","",""
"","image-keyboard-response","51","175600","0.0-5.0-19.0-0.0","761.7000000000116","","","https://ziweizhang0304.github.io/Stats_learning_trig/img/Stim/FN_016_g.png","13","","","","","","","","","","","","","","","","","",""
"","animation","52","180021","0.0-5.0-19.0-1.0","","","","","","[{""stimulus"":""https://ziweizhang0304.github.io/Stats_learning_trig/img/Stim/FN_022_g.png"",""time"":343.5999999999767},{""stimulus"":""blank"",""time"":645},{""stimulus"":""https://ziweizhang0304.github.io/Stats_learning_trig/img/Stim/FN_018_g.png"",""time"":681.0999999999767},{""stimulus"":""blank"",""time"":981.7999999999884},{""stimulus"":""https://ziweizhang0304.github.io/Stats_learning_trig/img/Stim/FN_006_g.png"",""time"":1021.0999999999767},{""stimulus"":""blank"",""time"":1322.7999999999884},{""stimulus"":""https://ziweizhang0304.github.io/Stats_learning_trig/img/Stim/FN_026_g.png"",""time"":1361.7999999999884},{""stimulus"":""blank"",""time"":1662.0999999999767},{""stimulus"":""https://ziweizhang0304.github.io/Stats_learning_trig/img/Stim/FN_020_g.png"",""time"":1701.399999999965},{""stimulus"":""blank"",""time"":2002.1999999999534},{""stimulus"":""https://ziweizhang0304.github.io/Stats_learning_trig/img/Stim/FN_016_g.png"",""time"":2041.0999999999767},{""stimulus"":""blank"",""time"":2342.7999999999884},{""stimulus"":""https://ziweizhang0304.github.io/Stats_learning_trig/img/Stim/FN_019_g.png"",""time"":2380.6999999999534},{""stimulus"":""blank"",""time"":2682},{""stimulus"":""https://ziweizhang0304.github.io/Stats_learning_trig/img/Stim/FN_012_g.png"",""time"":2720.5999999999767},{""stimulus"":""blank"",""time"":3021.6999999999534},{""stimulus"":""https://ziweizhang0304.github.io/Stats_learning_trig/img/Stim/FN_011_g.png"",""time"":3062.0999999999767},{""stimulus"":""blank"",""time"":3370.6999999999534},{""stimulus"":""https://ziweizhang0304.github.io/Stats_learning_trig/img/Stim/FN_024_g.png"",""time"":3401.5},{""stimulus"":""blank"",""time"":3713.5999999999767},{""stimulus"":""https://ziweizhang0304.github.io/Stats_learning_trig/img/Stim/FN_021_g.png"",""time"":3741.6999999999534},{""stimulus"":""blank"",""time"":4043.2999999999884},{""stimulus"":""https://ziweizhang0304.github.io/Stats_learning_trig/img/Stim/FN_001_g.png"",""time"":4081.5999999999767},{""stimulus"":""blank"",""time"":4382.099999999977}]","[{""key_press"":32,""rt"":2509.6999999999534,""stimulus"":""https://ziweizhang0304.github.io/Stats_learning_trig/img/Stim/FN_019_g.png""}]","468.5999999999767","https://ziweizhang0304.github.io/Stats_learning_trig/img/Stim/FN_016_g.png","post_TD","20","2041.0999999999767","2509.6999999999534","fast","6","2","5ff2240a2f567121402762e6","","","","","",""
"","image-keyboard-response","53","180895","0.0-5.0-20.0-0.0","870.2999999999884","","","https://ziweizhang0304.github.io/Stats_learning_trig/img/Stim/FN_016_g.png","13","","","","","","","","","","","","","","","","","",""
"","animation","54","185316","0.0-5.0-20.0-1.0","","","","","","[{""stimulus"":""https://ziweizhang0304.github.io/Stats_learning_trig/img/Stim/FN_018_g.png"",""time"":341.30000000004657},{""stimulus"":""blank"",""time"":641.4000000000233},{""stimulus"":""https://ziweizhang0304.github.io/Stats_learning_trig/img/Stim/FN_011_g.png"",""time"":681.1000000000349},{""stimulus"":""blank"",""time"":982.4000000000233},{""stimulus"":""https://ziweizhang0304.github.io/Stats_learning_trig/img/Stim/FN_001_g.png"",""time"":1021.1000000000349},{""stimulus"":""blank"",""time"":1321.9000000000233},{""stimulus"":""https://ziweizhang0304.github.io/Stats_learning_trig/img/Stim/FN_012_g.png"",""time"":1360.8000000000466},{""stimulus"":""blank"",""time"":1662.7000000000116},{""stimulus"":""https://ziweizhang0304.github.io/Stats_learning_trig/img/Stim/FN_024_g.png"",""time"":1700.5},{""stimulus"":""blank"",""time"":2001.8000000000466},{""stimulus"":""https://ziweizhang0304.github.io/Stats_learning_trig/img/Stim/FN_020_g.png"",""time"":2041.9000000000233},{""stimulus"":""blank"",""time"":2346.5},{""stimulus"":""https://ziweizhang0304.github.io/Stats_learning_trig/img/Stim/FN_016_g.png"",""time"":2380.8000000000466},{""stimulus"":""blank"",""time"":2682},{""stimulus"":""https://ziweizhang0304.github.io/Stats_learning_trig/img/Stim/FN_019_g.png"",""time"":2720.9000000000233},{""stimulus"":""blank"",""time"":3031.3000000000466},{""stimulus"":""https://ziweizhang0304.github.io/Stats_learning_trig/img/Stim/FN_026_g.png"",""time"":3061.2000000000116},{""stimulus"":""blank"",""time"":3362.8000000000466},{""stimulus"":""https://ziweizhang0304.github.io/Stats_learning_trig/img/Stim/FN_021_g.png"",""time"":3404.4000000000233},{""stimulus"":""blank"",""time"":3717.3000000000466},{""stimulus"":""https://ziweizhang0304.github.io/Stats_learning_trig/img/Stim/FN_022_g.png"",""time"":3740.3000000000466},{""stimulus"":""blank"",""time"":4041.100000000035},{""stimulus"":""https://ziweizhang0304.github.io/Stats_learning_trig/img/Stim/FN_006_g.png"",""time"":4081.8000000000466},{""stimulus"":""blank"",""time"":4389.5}]","[{""key_press"":32,""rt"":2812,""stimulus"":""https://ziweizhang0304.github.io/Stats_learning_trig/img/Stim/FN_019_g.png""}]","431.19999999995343","https://ziweizhang0304.github.io/Stats_learning_trig/img/Stim/FN_016_g.png","post_TD","21","2380.8000000000466","2812","fast","7","2","5ff2240a2f567121402762e6","","","","","",""
"","image-keyboard-response","55","186118","0.0-5.0-21.0-0.0","799.5","","","https://ziweizhang0304.github.io/Stats_learning_trig/img/Stim/FN_020_g.png","13","","","","","","","","","","","","","","","","","",""
"","animation","56","190540","0.0-5.0-21.0-1.0","","","","","","[{""stimulus"":""https://ziweizhang0304.github.io/Stats_learning_trig/img/Stim/FN_021_g.png"",""time"":341.29999999998836},{""stimulus"":""blank"",""time"":642.2999999999884},{""stimulus"":""https://ziweizhang0304.github.io/Stats_learning_trig/img/Stim/FN_012_g.png"",""time"":681.5999999999767},{""stimulus"":""blank"",""time"":982.7999999999884},{""stimulus"":""https://ziweizhang0304.github.io/Stats_learning_trig/img/Stim/FN_024_g.png"",""time"":1023.5},{""stimulus"":""blank"",""time"":1327.7000000000116},{""stimulus"":""https://ziweizhang0304.github.io/Stats_learning_trig/img/Stim/FN_020_g.png"",""time"":1361.0999999999767},{""stimulus"":""blank"",""time"":1661.4000000000233},{""stimulus"":""https://ziweizhang0304.github.io/Stats_learning_trig/img/Stim/FN_016_g.png"",""time"":1701.2000000000116},{""stimulus"":""blank"",""time"":2001.5999999999767},{""stimulus"":""https://ziweizhang0304.github.io/Stats_learning_trig/img/Stim/FN_019_g.png"",""time"":2041.0999999999767},{""stimulus"":""blank"",""time"":2342.0999999999767},{""stimulus"":""https://ziweizhang0304.github.io/Stats_learning_trig/img/Stim/FN_026_g.png"",""time"":2382.2000000000116},{""stimulus"":""blank"",""time"":2683},{""stimulus"":""https://ziweizhang0304.github.io/Stats_learning_trig/img/Stim/FN_011_g.png"",""time"":2721.9000000000233},{""stimulus"":""blank"",""time"":3023.2000000000116},{""stimulus"":""https://ziweizhang0304.github.io/Stats_learning_trig/img/Stim/FN_018_g.png"",""time"":3060.4000000000233},{""stimulus"":""blank"",""time"":3374},{""stimulus"":""https://ziweizhang0304.github.io/Stats_learning_trig/img/Stim/FN_022_g.png"",""time"":3400.5999999999767},{""stimulus"":""blank"",""time"":3701.0999999999767},{""stimulus"":""https://ziweizhang0304.github.io/Stats_learning_trig/img/Stim/FN_001_g.png"",""time"":3741.4000000000233},{""stimulus"":""blank"",""time"":4041.7999999999884},{""stimulus"":""https://ziweizhang0304.github.io/Stats_learning_trig/img/Stim/FN_006_g.png"",""time"":4082.9000000000233},{""stimulus"":""blank"",""time"":4388.400000000023}]","[{""key_press"":32,""rt"":2062.0999999999767,""stimulus"":""https://ziweizhang0304.github.io/Stats_learning_trig/img/Stim/FN_019_g.png""}]","701","https://ziweizhang0304.github.io/Stats_learning_trig/img/Stim/FN_020_g.png","post_TD","22","1361.0999999999767","2062.0999999999767","fast","4","1","5ff2240a2f567121402762e6","","","","","",""
"","image-keyboard-response","57","191315","0.0-5.0-22.0-0.0","771.2000000000116","","","https://ziweizhang0304.github.io/Stats_learning_trig/img/Stim/FN_004_g.png","13","","","","","","","","","","","","","","","","","",""
"","animation","58","195735","0.0-5.0-22.0-1.0","","","","","","[{""stimulus"":""https://ziweizhang0304.github.io/Stats_learning_trig/img/Stim/FN_001_g.png"",""time"":342.4000000000233},{""stimulus"":""blank"",""time"":644.2000000000116},{""stimulus"":""https://ziweizhang0304.github.io/Stats_learning_trig/img/Stim/FN_026_g.png"",""time"":680.5},{""stimulus"":""blank"",""time"":984.3000000000466},{""stimulus"":""https://ziweizhang0304.github.io/Stats_learning_trig/img/Stim/FN_018_g.png"",""time"":1021.2000000000116},{""stimulus"":""blank"",""time"":1326.7000000000116},{""stimulus"":""https://ziweizhang0304.github.io/Stats_learning_trig/img/Stim/FN_015_g.png"",""time"":1361.600000000035},{""stimulus"":""blank"",""time"":1662.100000000035},{""stimulus"":""https://ziweizhang0304.github.io/Stats_learning_trig/img/Stim/FN_003_g.png"",""time"":1700.9000000000233},{""stimulus"":""blank"",""time"":2002},{""stimulus"":""https://ziweizhang0304.github.io/Stats_learning_trig/img/Stim/FN_004_g.png"",""time"":2041.100000000035},{""stimulus"":""blank"",""time"":2341.7000000000116},{""stimulus"":""https://ziweizhang0304.github.io/Stats_learning_trig/img/Stim/FN_012_g.png"",""time"":2382.100000000035},{""stimulus"":""blank"",""time"":2683.7000000000116},{""stimulus"":""https://ziweizhang0304.github.io/Stats_learning_trig/img/Stim/FN_011_g.png"",""time"":2720.8000000000466},{""stimulus"":""blank"",""time"":3021.100000000035},{""stimulus"":""https://ziweizhang0304.github.io/Stats_learning_trig/img/Stim/FN_024_g.png"",""time"":3061.8000000000466},{""stimulus"":""blank"",""time"":3362.7000000000116},{""stimulus"":""https://ziweizhang0304.github.io/Stats_learning_trig/img/Stim/FN_021_g.png"",""time"":3402.100000000035},{""stimulus"":""blank"",""time"":3712},{""stimulus"":""https://ziweizhang0304.github.io/Stats_learning_trig/img/Stim/FN_022_g.png"",""time"":3740.8000000000466},{""stimulus"":""blank"",""time"":4041.600000000035},{""stimulus"":""https://ziweizhang0304.github.io/Stats_learning_trig/img/Stim/FN_006_g.png"",""time"":4089.3000000000466},{""stimulus"":""blank"",""time"":4390.400000000023}]","[{""key_press"":32,""rt"":2414.899999999965,""stimulus"":""https://ziweizhang0304.github.io/Stats_learning_trig/img/Stim/FN_012_g.png""}]","373.79999999993015","https://ziweizhang0304.github.io/Stats_learning_trig/img/Stim/FN_004_g.png","post_TD","23","2041.100000000035","2414.899999999965","slow","6","3","5ff2240a2f567121402762e6","","","","","",""
"","image-keyboard-response","59","196290","0.0-5.0-23.0-0.0","552.0999999999767","","","https://ziweizhang0304.github.io/Stats_learning_trig/img/Stim/FN_003_g.png","13","","","","","","","","","","","","","","","","","",""
"","animation","60","200712","0.0-5.0-23.0-1.0","","","","","","[{""stimulus"":""https://ziweizhang0304.github.io/Stats_learning_trig/img/Stim/FN_001_g.png"",""time"":340.5999999999767},{""stimulus"":""blank"",""time"":644},{""stimulus"":""https://ziweizhang0304.github.io/Stats_learning_trig/img/Stim/FN_026_g.png"",""time"":681.7000000000116},{""stimulus"":""blank"",""time"":982.2999999999884},{""stimulus"":""https://ziweizhang0304.github.io/Stats_learning_trig/img/Stim/FN_018_g.png"",""time"":1023.7000000000116},{""stimulus"":""blank"",""time"":1324.5},{""stimulus"":""https://ziweizhang0304.github.io/Stats_learning_trig/img/Stim/FN_015_g.png"",""time"":1361.5999999999767},{""stimulus"":""blank"",""time"":1663.7000000000116},{""stimulus"":""https://ziweizhang0304.github.io/Stats_learning_trig/img/Stim/FN_003_g.png"",""time"":1701},{""stimulus"":""blank"",""time"":2002.399999999965},{""stimulus"":""https://ziweizhang0304.github.io/Stats_learning_trig/img/Stim/FN_004_g.png"",""time"":2042},{""stimulus"":""blank"",""time"":2342.899999999965},{""stimulus"":""https://ziweizhang0304.github.io/Stats_learning_trig/img/Stim/FN_012_g.png"",""time"":2381.5999999999767},{""stimulus"":""blank"",""time"":2682.5},{""stimulus"":""https://ziweizhang0304.github.io/Stats_learning_trig/img/Stim/FN_011_g.png"",""time"":2720.7000000000116},{""stimulus"":""blank"",""time"":3025.5},{""stimulus"":""https://ziweizhang0304.github.io/Stats_learning_trig/img/Stim/FN_024_g.png"",""time"":3061.2000000000116},{""stimulus"":""blank"",""time"":3362.399999999965},{""stimulus"":""https://ziweizhang0304.github.io/Stats_learning_trig/img/Stim/FN_021_g.png"",""time"":3414.0999999999767},{""stimulus"":""blank"",""time"":3714.7999999999884},{""stimulus"":""https://ziweizhang0304.github.io/Stats_learning_trig/img/Stim/FN_022_g.png"",""time"":3741.5},{""stimulus"":""blank"",""time"":4042.399999999965},{""stimulus"":""https://ziweizhang0304.github.io/Stats_learning_trig/img/Stim/FN_006_g.png"",""time"":4081.5999999999767},{""stimulus"":""blank"",""time"":4382.700000000012}]","[{""key_press"":32,""rt"":2186,""stimulus"":""https://ziweizhang0304.github.io/Stats_learning_trig/img/Stim/FN_004_g.png""}]","485","https://ziweizhang0304.github.io/Stats_learning_trig/img/Stim/FN_003_g.png","post_TD","24","1701","2186","slow","5","2","5ff2240a2f567121402762e6","3fe7e","","","","",""
"","survey-text","61","228909","0.0-6.0","28180.29999999993","","","","","","","","","","","","","","","","","","{""Q0"":""I had my hand on the spacebar ready to go. I also repeated the shape in my mind""}","","","",""
"","survey-text","62","241450","0.0-7.0","12534.099999999977","","","","","","","","","","","","","","","","","","{""[object Object]"":""some shapes came earier than others""}","","","",""
"","instructions","63","252745","0.0-8.0","11295.400000000023","","[{""page_index"":0,""viewing_time"":11294.800000000047}]","","","","","","","","","","","","","","","","","","","",""
"","free-sort","64","269013","0.0-9.0","16263.5","","","","","","","","","post_drag","","","","fast","","","","","","[{""src"":""https://ziweizhang0304.github.io/Stats_learning_trig/img/Stim/FN_016_g.png"",""x"":475,""y"":0},{""src"":""https://ziweizhang0304.github.io/Stats_learning_trig/img/Stim/FN_020_g.png"",""x"":-225,""y"":50},{""src"":""https://ziweizhang0304.github.io/Stats_learning_trig/img/Stim/FN_019_g.png"",""x"":475,""y"":50}]","[{""src"":""https://ziweizhang0304.github.io/Stats_learning_trig/img/Stim/FN_020_g.png"",""x"":-150,""y"":41},{""src"":""https://ziweizhang0304.github.io/Stats_learning_trig/img/Stim/FN_019_g.png"",""x"":227,""y"":23},{""src"":""https://ziweizhang0304.github.io/Stats_learning_trig/img/Stim/FN_016_g.png"",""x"":11,""y"":18},{""src"":""https://ziweizhang0304.github.io/Stats_learning_trig/img/Stim/FN_020_g.png"",""x"":140,""y"":25}]","[{""src"":""https://ziweizhang0304.github.io/Stats_learning_trig/img/Stim/FN_016_g.png"",""x"":11,""y"":18},{""src"":""https://ziweizhang0304.github.io/Stats_learning_trig/img/Stim/FN_020_g.png"",""x"":140,""y"":25},{""src"":""https://ziweizhang0304.github.io/Stats_learning_trig/img/Stim/FN_019_g.png"",""x"":227,""y"":23}]",""
"","free-sort","65","276918","0.0-10.0","7902.800000000047","","","","","","","","","post_drag","","","","slow","","","","","","[{""src"":""https://ziweizhang0304.github.io/Stats_learning_trig/img/Stim/FN_015_g.png"",""x"":475,""y"":0},{""src"":""https://ziweizhang0304.github.io/Stats_learning_trig/img/Stim/FN_003_g.png"",""x"":-225,""y"":50},{""src"":""https://ziweizhang0304.github.io/Stats_learning_trig/img/Stim/FN_004_g.png"",""x"":475,""y"":50}]","[{""src"":""https://ziweizhang0304.github.io/Stats_learning_trig/img/Stim/FN_004_g.png"",""x"":36,""y"":27},{""src"":""https://ziweizhang0304.github.io/Stats_learning_trig/img/Stim/FN_003_g.png"",""x"":94,""y"":40},{""src"":""https://ziweizhang0304.github.io/Stats_learning_trig/img/Stim/FN_015_g.png"",""x"":198,""y"":11}]","[{""src"":""https://ziweizhang0304.github.io/Stats_learning_trig/img/Stim/FN_015_g.png"",""x"":198,""y"":11},{""src"":""https://ziweizhang0304.github.io/Stats_learning_trig/img/Stim/FN_003_g.png"",""x"":94,""y"":40},{""src"":""https://ziweizhang0304.github.io/Stats_learning_trig/img/Stim/FN_004_g.png"",""x"":36,""y"":27}]",""
"","survey-multi-choice","66","292760","0.0-11.0","15833.699999999953","","","","","","","","","","","","","","","","5ff2240a2f567121402762e6","","{""awareness"":""Not sure"",""attention_check"":""Press SPACEBAR to a target""}","","","","[0,1]"
