"success","trial_type","trial_index","time_elapsed","internal_node_id","rt","url","view_history","stimulus","key_press","animation_sequence","response","TD_rt","TD_target","test_part","TD_trial_number","onset","offset","attention_state","TD_target_position","TD_within_triplet_counter","participant","yoke_participant","responses","init_locations","moves","final_locations","question_order"
"true","fullscreen","0","6393","0.0-0.0","","","","","","","","","","","","","","","","","","","","","","",""
"","external-html","1","31946","0.0-1.0","25401.76000003703","https://ziweizhang0304.github.io/Stats_learning_trig/content/consent.html","","","","","","","","","","","","","","","","","","","","",""
"","instructions","2","70646","0.0-2.0","38694.73500002641","","[{""page_index"":0,""viewing_time"":3276.1699999682605},{""page_index"":1,""viewing_time"":17903.69000006467},{""page_index"":2,""viewing_time"":14633.59500002116},{""page_index"":3,""viewing_time"":2880.3899999475107}]","","","","","","","","","","","","","","","","","","","",""
"","image-keyboard-response","3","86865","0.0-3.0-0.0-0.0","16216.039999970235","","","https://ziweizhang0304.github.io/Stats_learning_trig/img/Stim/FN_006_g.png","13","","","","","","","","","","","","","","","","","",""
"","animation","4","91291","0.0-3.0-0.0-1.0","","","","","","[{""stimulus"":""https://ziweizhang0304.github.io/Stats_learning_trig/img/Stim/FN_004_g.png"",""time"":346.2099999887869},{""stimulus"":""blank"",""time"":650.4450000356883},{""stimulus"":""https://ziweizhang0304.github.io/Stats_learning_trig/img/Stim/FN_008_g.png"",""time"":681.2500000232831},{""stimulus"":""blank"",""time"":983.2600000081584},{""stimulus"":""https://ziweizhang0304.github.io/Stats_learning_trig/img/Stim/FN_006_g.png"",""time"":1021.8449999811128},{""stimulus"":""blank"",""time"":1324.735000031069},{""stimulus"":""https://ziweizhang0304.github.io/Stats_learning_trig/img/Stim/FN_013_g.png"",""time"":1361.559999990277},{""stimulus"":""blank"",""time"":1662.6799999503419},{""stimulus"":""https://ziweizhang0304.github.io/Stats_learning_trig/img/Stim/FN_025_g.png"",""time"":1703.525000018999},{""stimulus"":""blank"",""time"":2004.4350000098348},{""stimulus"":""https://ziweizhang0304.github.io/Stats_learning_trig/img/Stim/FN_012_g.png"",""time"":2043.4100000420585},{""stimulus"":""blank"",""time"":2345.6950000254437},{""stimulus"":""https://ziweizhang0304.github.io/Stats_learning_trig/img/Stim/FN_015_g.png"",""time"":2382.274999981746},{""stimulus"":""blank"",""time"":2685.0000000558794},{""stimulus"":""https://ziweizhang0304.github.io/Stats_learning_trig/img/Stim/FN_022_g.png"",""time"":2721.7749999836087},{""stimulus"":""blank"",""time"":3025.5350000225008},{""stimulus"":""https://ziweizhang0304.github.io/Stats_learning_trig/img/Stim/FN_005_g.png"",""time"":3061.6650000447407},{""stimulus"":""blank"",""time"":3362.014999962412},{""stimulus"":""https://ziweizhang0304.github.io/Stats_learning_trig/img/Stim/FN_009_g.png"",""time"":3404.9850000301376},{""stimulus"":""blank"",""time"":3708.2050000317395},{""stimulus"":""https://ziweizhang0304.github.io/Stats_learning_trig/img/Stim/FN_001_g.png"",""time"":3741.535000037402},{""stimulus"":""blank"",""time"":4043.015000061132},{""stimulus"":""https://ziweizhang0304.github.io/Stats_learning_trig/img/Stim/FN_003_g.png"",""time"":4081.9749999791384},{""stimulus"":""blank"",""time"":4384.575000032783}]","[{""key_press"":32,""rt"":1547.7950000204146,""stimulus"":""https://ziweizhang0304.github.io/Stats_learning_trig/img/Stim/FN_013_g.png""}]","525.9500000393018","https://ziweizhang0304.github.io/Stats_learning_trig/img/Stim/FN_006_g.png","post_prac","","","","","","","","","","","","",""
"","html-keyboard-response","5","98552","0.0-3.0-0.0-2.0","7246.160000097007","","","<p>Your reaction time for this trial was 525.95 ms.</p><p>Remember that you should only press the SPACEBAR when you see the shape presented at the beginning of the trial. </b> </p><p>Press enter to move on.</p>","13","","","","","","","","","","","","","","","","","",""
"","image-keyboard-response","6","105417","0.0-3.0-1.0-0.0","6863.635000074282","","","https://ziweizhang0304.github.io/Stats_learning_trig/img/Stim/FN_002_g.png","13","","","","","","","","","","","","","","","","","",""
"","animation","7","109848","0.0-3.0-1.0-1.0","","","","","","[{""stimulus"":""https://ziweizhang0304.github.io/Stats_learning_trig/img/Stim/FN_022_g.png"",""time"":344.60000006947666},{""stimulus"":""blank"",""time"":646.5350000653416},{""stimulus"":""https://ziweizhang0304.github.io/Stats_learning_trig/img/Stim/FN_013_g.png"",""time"":681.9600000744686},{""stimulus"":""blank"",""time"":982.2500000009313},{""stimulus"":""https://ziweizhang0304.github.io/Stats_learning_trig/img/Stim/FN_005_g.png"",""time"":1022.7350000059232},{""stimulus"":""blank"",""time"":1323.16000002902},{""stimulus"":""https://ziweizhang0304.github.io/Stats_learning_trig/img/Stim/FN_004_g.png"",""time"":1361.570000066422},{""stimulus"":""blank"",""time"":1662.2000000206754},{""stimulus"":""https://ziweizhang0304.github.io/Stats_learning_trig/img/Stim/FN_015_g.png"",""time"":1705.1350000547245},{""stimulus"":""blank"",""time"":2006.7500000586733},{""stimulus"":""https://ziweizhang0304.github.io/Stats_learning_trig/img/Stim/FN_026_g.png"",""time"":2041.9850000180304},{""stimulus"":""blank"",""time"":2344.9750000145286},{""stimulus"":""https://ziweizhang0304.github.io/Stats_learning_trig/img/Stim/FN_019_g.png"",""time"":2381.7249999847263},{""stimulus"":""blank"",""time"":2685.950000071898},{""stimulus"":""https://ziweizhang0304.github.io/Stats_learning_trig/img/Stim/FN_002_g.png"",""time"":2723.1550000142306},{""stimulus"":""blank"",""time"":3027.9800000134856},{""stimulus"":""https://ziweizhang0304.github.io/Stats_learning_trig/img/Stim/FN_009_g.png"",""time"":3061.170000000857},{""stimulus"":""blank"",""time"":3361.625000019558},{""stimulus"":""https://ziweizhang0304.github.io/Stats_learning_trig/img/Stim/FN_025_g.png"",""time"":3402.4099999805912},{""stimulus"":""blank"",""time"":3702.9200000688434},{""stimulus"":""https://ziweizhang0304.github.io/Stats_learning_trig/img/Stim/FN_001_g.png"",""time"":3742.339999997057},{""stimulus"":""blank"",""time"":4047.7950000204146},{""stimulus"":""https://ziweizhang0304.github.io/Stats_learning_trig/img/Stim/FN_012_g.png"",""time"":4081.265000044368},{""stimulus"":""blank"",""time"":4381.610000040382}]","[{""key_press"":32,""rt"":3129.034999990836,""stimulus"":""https://ziweizhang0304.github.io/Stats_learning_trig/img/Stim/FN_009_g.png""}]","405.8799999766052","https://ziweizhang0304.github.io/Stats_learning_trig/img/Stim/FN_002_g.png","post_prac","","","","","","","","","","","","",""
"","html-keyboard-response","8","114672","0.0-3.0-1.0-2.0","4820.165000041015","","","<p>Your reaction time for this trial was 405.88 ms.</p><p>Remember that you should only press the SPACEBAR when you see the shape presented at the beginning of the trial. </b> </p><p>Press enter to move on.</p>","13","","","","","","","","","","","","","","","","","",""
"","image-keyboard-response","9","118096","0.0-3.0-2.0-0.0","3422.620000084862","","","https://ziweizhang0304.github.io/Stats_learning_trig/img/Stim/FN_019_g.png","13","","","","","","","","","","","","","","","","","",""
"","animation","10","122521","0.0-3.0-2.0-1.0","","","","","","[{""stimulus"":""https://ziweizhang0304.github.io/Stats_learning_trig/img/Stim/FN_022_g.png"",""time"":343.0200000293553},{""stimulus"":""blank"",""time"":645.310000050813},{""stimulus"":""https://ziweizhang0304.github.io/Stats_learning_trig/img/Stim/FN_013_g.png"",""time"":685.9349999576807},{""stimulus"":""blank"",""time"":986.3699999405071},{""stimulus"":""https://ziweizhang0304.github.io/Stats_learning_trig/img/Stim/FN_005_g.png"",""time"":1020.795000018552},{""stimulus"":""blank"",""time"":1321.4999999618158},{""stimulus"":""https://ziweizhang0304.github.io/Stats_learning_trig/img/Stim/FN_004_g.png"",""time"":1362.154999980703},{""stimulus"":""blank"",""time"":1664.145000046119},{""stimulus"":""https://ziweizhang0304.github.io/Stats_learning_trig/img/Stim/FN_015_g.png"",""time"":1701.0299999965355},{""stimulus"":""blank"",""time"":2001.2949999654666},{""stimulus"":""https://ziweizhang0304.github.io/Stats_learning_trig/img/Stim/FN_026_g.png"",""time"":2040.8700000261888},{""stimulus"":""blank"",""time"":2343.639999977313},{""stimulus"":""https://ziweizhang0304.github.io/Stats_learning_trig/img/Stim/FN_019_g.png"",""time"":2381.1749999877065},{""stimulus"":""blank"",""time"":2685.3650000412017},{""stimulus"":""https://ziweizhang0304.github.io/Stats_learning_trig/img/Stim/FN_002_g.png"",""time"":2721.6649999609217},{""stimulus"":""blank"",""time"":3026.4850000385195},{""stimulus"":""https://ziweizhang0304.github.io/Stats_learning_trig/img/Stim/FN_009_g.png"",""time"":3062.0399999897927},{""stimulus"":""blank"",""time"":3362.444999977015},{""stimulus"":""https://ziweizhang0304.github.io/Stats_learning_trig/img/Stim/FN_025_g.png"",""time"":3401.509999996051},{""stimulus"":""blank"",""time"":3702.915000030771},{""stimulus"":""https://ziweizhang0304.github.io/Stats_learning_trig/img/Stim/FN_001_g.png"",""time"":3741.0600000293925},{""stimulus"":""blank"",""time"":4042.754999944009},{""stimulus"":""https://ziweizhang0304.github.io/Stats_learning_trig/img/Stim/FN_012_g.png"",""time"":4082.0850000018254},{""stimulus"":""blank"",""time"":4382.77999998536}]","[{""key_press"":32,""rt"":2716.874999925494,""stimulus"":""blank""}]","335.69999993778765","https://ziweizhang0304.github.io/Stats_learning_trig/img/Stim/FN_019_g.png","post_prac","","","","","","","","","","","","",""
"","html-keyboard-response","11","127980","0.0-3.0-2.0-2.0","5454.879999975674","","","<p>Your reaction time for this trial was 335.7 ms.</p><p>Remember that you should only press the SPACEBAR when you see the shape presented at the beginning of the trial. </b> </p><p>Press enter to move on.</p>","13","","","","","","","","","","","","","","","","","",""
"","instructions","12","132394","0.0-4.0","4412.844999926165","","[{""page_index"":0,""viewing_time"":4412.499999976717}]","","","","","","","","","","","","","","","","","","","",""
"","image-keyboard-response","13","136201","0.0-5.0-0.0-0.0","3805.625000037253","","","https://ziweizhang0304.github.io/Stats_learning_trig/img/Stim/FN_002_g.png","13","","","","","","","","","","","","","","","","","",""
"","animation","14","140624","0.0-5.0-0.0-1.0","","","","","","[{""stimulus"":""https://ziweizhang0304.github.io/Stats_learning_trig/img/Stim/FN_022_g.png"",""time"":343.04000006522983},{""stimulus"":""blank"",""time"":645.5150000983849},{""stimulus"":""https://ziweizhang0304.github.io/Stats_learning_trig/img/Stim/FN_013_g.png"",""time"":681.2149999896064},{""stimulus"":""blank"",""time"":982.1150000207126},{""stimulus"":""https://ziweizhang0304.github.io/Stats_learning_trig/img/Stim/FN_005_g.png"",""time"":1021.2700000265613},{""stimulus"":""blank"",""time"":1324.030000017956},{""stimulus"":""https://ziweizhang0304.github.io/Stats_learning_trig/img/Stim/FN_004_g.png"",""time"":1365.9800000023097},{""stimulus"":""blank"",""time"":1669.8500000638887},{""stimulus"":""https://ziweizhang0304.github.io/Stats_learning_trig/img/Stim/FN_015_g.png"",""time"":1702.2950000828132},{""stimulus"":""blank"",""time"":2002.7850000187755},{""stimulus"":""https://ziweizhang0304.github.io/Stats_learning_trig/img/Stim/FN_026_g.png"",""time"":2043.9650000771508},{""stimulus"":""blank"",""time"":2346.925000078045},{""stimulus"":""https://ziweizhang0304.github.io/Stats_learning_trig/img/Stim/FN_019_g.png"",""time"":2381.67999999132},{""stimulus"":""blank"",""time"":2683.210000046529},{""stimulus"":""https://ziweizhang0304.github.io/Stats_learning_trig/img/Stim/FN_002_g.png"",""time"":2723.090000101365},{""stimulus"":""blank"",""time"":3028.470000019297},{""stimulus"":""https://ziweizhang0304.github.io/Stats_learning_trig/img/Stim/FN_009_g.png"",""time"":3062.4350000871345},{""stimulus"":""blank"",""time"":3365.7550000352785},{""stimulus"":""https://ziweizhang0304.github.io/Stats_learning_trig/img/Stim/FN_025_g.png"",""time"":3401.460000080988},{""stimulus"":""blank"",""time"":3702.900000032969},{""stimulus"":""https://ziweizhang0304.github.io/Stats_learning_trig/img/Stim/FN_001_g.png"",""time"":3742.865000036545},{""stimulus"":""blank"",""time"":4045.0699999928474},{""stimulus"":""https://ziweizhang0304.github.io/Stats_learning_trig/img/Stim/FN_012_g.png"",""time"":4080.8900000993162},{""stimulus"":""blank"",""time"":4382.405000040308}]","[{""key_press"":32,""rt"":3093.9500000094995,""stimulus"":""https://ziweizhang0304.github.io/Stats_learning_trig/img/Stim/FN_009_g.png""}]","370.85999990813434","https://ziweizhang0304.github.io/Stats_learning_trig/img/Stim/FN_002_g.png","post_TD","1","2723.090000101365","3093.9500000094995","slow","8","3","6111581348437c57e275bc60","","","","","",""
"","image-keyboard-response","15","142738","0.0-5.0-1.0-0.0","2111.3449999829754","","","https://ziweizhang0304.github.io/Stats_learning_trig/img/Stim/FN_019_g.png","13","","","","","","","","","","","","","","","","","",""
"","animation","16","147160","0.0-5.0-1.0-1.0","","","","","","[{""stimulus"":""https://ziweizhang0304.github.io/Stats_learning_trig/img/Stim/FN_022_g.png"",""time"":343.265000032261},{""stimulus"":""blank"",""time"":643.8799999887124},{""stimulus"":""https://ziweizhang0304.github.io/Stats_learning_trig/img/Stim/FN_012_g.png"",""time"":681.0350000159815},{""stimulus"":""blank"",""time"":985.660000005737},{""stimulus"":""https://ziweizhang0304.github.io/Stats_learning_trig/img/Stim/FN_025_g.png"",""time"":1022.4450000096112},{""stimulus"":""blank"",""time"":1323.1549999909475},{""stimulus"":""https://ziweizhang0304.github.io/Stats_learning_trig/img/Stim/FN_015_g.png"",""time"":1361.739999963902},{""stimulus"":""blank"",""time"":1663.0749999312684},{""stimulus"":""https://ziweizhang0304.github.io/Stats_learning_trig/img/Stim/FN_026_g.png"",""time"":1703.0350000131875},{""stimulus"":""blank"",""time"":2006.2949999701232},{""stimulus"":""https://ziweizhang0304.github.io/Stats_learning_trig/img/Stim/FN_019_g.png"",""time"":2045.9699999773875},{""stimulus"":""blank"",""time"":2346.4849999872968},{""stimulus"":""https://ziweizhang0304.github.io/Stats_learning_trig/img/Stim/FN_002_g.png"",""time"":2380.8549999957904},{""stimulus"":""blank"",""time"":2681.5499999793246},{""stimulus"":""https://ziweizhang0304.github.io/Stats_learning_trig/img/Stim/FN_009_g.png"",""time"":2721.9899999909103},{""stimulus"":""blank"",""time"":3024.2200000211596},{""stimulus"":""https://ziweizhang0304.github.io/Stats_learning_trig/img/Stim/FN_013_g.png"",""time"":3060.979999951087},{""stimulus"":""blank"",""time"":3362.5400000019},{""stimulus"":""https://ziweizhang0304.github.io/Stats_learning_trig/img/Stim/FN_005_g.png"",""time"":3403.249999973923},{""stimulus"":""blank"",""time"":3705.089999944903},{""stimulus"":""https://ziweizhang0304.github.io/Stats_learning_trig/img/Stim/FN_004_g.png"",""time"":3741.3399999495596},{""stimulus"":""blank"",""time"":4045.4850000096485},{""stimulus"":""https://ziweizhang0304.github.io/Stats_learning_trig/img/Stim/FN_001_g.png"",""time"":4082.494999980554},{""stimulus"":""blank"",""time"":4386.479999986477}]","[{""key_press"":32,""rt"":2437.9350000526756,""stimulus"":""https://ziweizhang0304.github.io/Stats_learning_trig/img/Stim/FN_002_g.png""}]","391.9650000752881","https://ziweizhang0304.github.io/Stats_learning_trig/img/Stim/FN_019_g.png","post_TD","2","2045.9699999773875","2437.9350000526756","slow","6","2","6111581348437c57e275bc60","","","","","",""
"","image-keyboard-response","17","150966","0.0-5.0-2.0-0.0","3802.834999980405","","","https://ziweizhang0304.github.io/Stats_learning_trig/img/Stim/FN_006_g.png","13","","","","","","","","","","","","","","","","","",""
"","animation","18","155388","0.0-5.0-2.0-1.0","","","","","","[{""stimulus"":""https://ziweizhang0304.github.io/Stats_learning_trig/img/Stim/FN_005_g.png"",""time"":342.7199999568984},{""stimulus"":""blank"",""time"":643.114999984391},{""stimulus"":""https://ziweizhang0304.github.io/Stats_learning_trig/img/Stim/FN_015_g.png"",""time"":681.7649999866262},{""stimulus"":""blank"",""time"":984.6350000007078},{""stimulus"":""https://ziweizhang0304.github.io/Stats_learning_trig/img/Stim/FN_022_g.png"",""time"":1021.8500000191852},{""stimulus"":""blank"",""time"":1323.7850000150502},{""stimulus"":""https://ziweizhang0304.github.io/Stats_learning_trig/img/Stim/FN_004_g.png"",""time"":1365.3700000140816},{""stimulus"":""blank"",""time"":1665.6349999830127},{""stimulus"":""https://ziweizhang0304.github.io/Stats_learning_trig/img/Stim/FN_001_g.png"",""time"":1701.7350000096485},{""stimulus"":""blank"",""time"":2002.379999961704},{""stimulus"":""https://ziweizhang0304.github.io/Stats_learning_trig/img/Stim/FN_025_g.png"",""time"":2043.5399999842048},{""stimulus"":""blank"",""time"":2344.6599999442697},{""stimulus"":""https://ziweizhang0304.github.io/Stats_learning_trig/img/Stim/FN_003_g.png"",""time"":2383.7599999969825},{""stimulus"":""blank"",""time"":2684.3949999893084},{""stimulus"":""https://ziweizhang0304.github.io/Stats_learning_trig/img/Stim/FN_006_g.png"",""time"":2720.8749999990687},{""stimulus"":""blank"",""time"":3021.7150000389665},{""stimulus"":""https://ziweizhang0304.github.io/Stats_learning_trig/img/Stim/FN_008_g.png"",""time"":3062.0099999941885},{""stimulus"":""blank"",""time"":3365.5900000594556},{""stimulus"":""https://ziweizhang0304.github.io/Stats_learning_trig/img/Stim/FN_009_g.png"",""time"":3400.8250000188127},{""stimulus"":""blank"",""time"":3701.8450000323355},{""stimulus"":""https://ziweizhang0304.github.io/Stats_learning_trig/img/Stim/FN_013_g.png"",""time"":3741.775000002235},{""stimulus"":""blank"",""time"":4042.875000042841},{""stimulus"":""https://ziweizhang0304.github.io/Stats_learning_trig/img/Stim/FN_012_g.png"",""time"":4083.6200000485405},{""stimulus"":""blank"",""time"":4387.54499994684}]","[{""key_press"":32,""rt"":3145.409999997355,""stimulus"":""https://ziweizhang0304.github.io/Stats_learning_trig/img/Stim/FN_008_g.png""}]","424.53499999828637","https://ziweizhang0304.github.io/Stats_learning_trig/img/Stim/FN_006_g.png","post_TD","3","2720.8749999990687","3145.409999997355","fast","8","2","6111581348437c57e275bc60","","","","","",""
"","image-keyboard-response","19","159256","0.0-5.0-3.0-0.0","3864.670000039041","","","https://ziweizhang0304.github.io/Stats_learning_trig/img/Stim/FN_006_g.png","13","","","","","","","","","","","","","","","","","",""
"","animation","20","163683","0.0-5.0-3.0-1.0","","","","","","[{""stimulus"":""https://ziweizhang0304.github.io/Stats_learning_trig/img/Stim/FN_013_g.png"",""time"":342.7600000286475},{""stimulus"":""blank"",""time"":643.2000000495464},{""stimulus"":""https://ziweizhang0304.github.io/Stats_learning_trig/img/Stim/FN_009_g.png"",""time"":681.5550000173971},{""stimulus"":""blank"",""time"":983.7950000073761},{""stimulus"":""https://ziweizhang0304.github.io/Stats_learning_trig/img/Stim/FN_015_g.png"",""time"":1022.0700000645593},{""stimulus"":""blank"",""time"":1323.9250000333413},{""stimulus"":""https://ziweizhang0304.github.io/Stats_learning_trig/img/Stim/FN_025_g.png"",""time"":1363.6150000384077},{""stimulus"":""blank"",""time"":1664.2600001068786},{""stimulus"":""https://ziweizhang0304.github.io/Stats_learning_trig/img/Stim/FN_003_g.png"",""time"":1701.8850001040846},{""stimulus"":""blank"",""time"":2004.3400001013651},{""stimulus"":""https://ziweizhang0304.github.io/Stats_learning_trig/img/Stim/FN_006_g.png"",""time"":2041.2700000451878},{""stimulus"":""blank"",""time"":2342.020000098273},{""stimulus"":""https://ziweizhang0304.github.io/Stats_learning_trig/img/Stim/FN_008_g.png"",""time"":2381.6700000315905},{""stimulus"":""blank"",""time"":2682.590000098571},{""stimulus"":""https://ziweizhang0304.github.io/Stats_learning_trig/img/Stim/FN_022_g.png"",""time"":2723.490000003949},{""stimulus"":""blank"",""time"":3025.370000046678},{""stimulus"":""https://ziweizhang0304.github.io/Stats_learning_trig/img/Stim/FN_005_g.png"",""time"":3061.8250000989065},{""stimulus"":""blank"",""time"":3367.2150000929832},{""stimulus"":""https://ziweizhang0304.github.io/Stats_learning_trig/img/Stim/FN_004_g.png"",""time"":3401.6350000165403},{""stimulus"":""blank"",""time"":3702.7400000952184},{""stimulus"":""https://ziweizhang0304.github.io/Stats_learning_trig/img/Stim/FN_001_g.png"",""time"":3741.3900000974536},{""stimulus"":""blank"",""time"":4041.8200000422075},{""stimulus"":""https://ziweizhang0304.github.io/Stats_learning_trig/img/Stim/FN_012_g.png"",""time"":4080.755000002682},{""stimulus"":""blank"",""time"":4381.215000059456}]","[{""key_press"":32,""rt"":2434.194999979809,""stimulus"":""https://ziweizhang0304.github.io/Stats_learning_trig/img/Stim/FN_008_g.png""}]","392.92499993462116","https://ziweizhang0304.github.io/Stats_learning_trig/img/Stim/FN_006_g.png","post_TD","4","2041.2700000451878","2434.194999979809","fast","6","2","6111581348437c57e275bc60","","","","","",""
"","image-keyboard-response","21","165944","0.0-5.0-4.0-0.0","2257.4999999487773","","","https://ziweizhang0304.github.io/Stats_learning_trig/img/Stim/FN_002_g.png","13","","","","","","","","","","","","","","","","","",""
"","animation","22","170366","0.0-5.0-4.0-1.0","","","","","","[{""stimulus"":""https://ziweizhang0304.github.io/Stats_learning_trig/img/Stim/FN_005_g.png"",""time"":343.13499997369945},{""stimulus"":""blank"",""time"":643.735000048764},{""stimulus"":""https://ziweizhang0304.github.io/Stats_learning_trig/img/Stim/FN_015_g.png"",""time"":681.1699999962002},{""stimulus"":""blank"",""time"":982.3999999789521},{""stimulus"":""https://ziweizhang0304.github.io/Stats_learning_trig/img/Stim/FN_013_g.png"",""time"":1022.8500000666827},{""stimulus"":""blank"",""time"":1327.6850000256673},{""stimulus"":""https://ziweizhang0304.github.io/Stats_learning_trig/img/Stim/FN_026_g.png"",""time"":1362.485000048764},{""stimulus"":""blank"",""time"":1663.2499999832362},{""stimulus"":""https://ziweizhang0304.github.io/Stats_learning_trig/img/Stim/FN_019_g.png"",""time"":1701.160000055097},{""stimulus"":""blank"",""time"":2003.8349999813363},{""stimulus"":""https://ziweizhang0304.github.io/Stats_learning_trig/img/Stim/FN_002_g.png"",""time"":2041.425000061281},{""stimulus"":""blank"",""time"":2342.2049999935552},{""stimulus"":""https://ziweizhang0304.github.io/Stats_learning_trig/img/Stim/FN_022_g.png"",""time"":2381.829999969341},{""stimulus"":""blank"",""time"":2682.0750000188127},{""stimulus"":""https://ziweizhang0304.github.io/Stats_learning_trig/img/Stim/FN_009_g.png"",""time"":2721.8400000128895},{""stimulus"":""blank"",""time"":3025.915000005625},{""stimulus"":""https://ziweizhang0304.github.io/Stats_learning_trig/img/Stim/FN_025_g.png"",""time"":3062.2849999926984},{""stimulus"":""blank"",""time"":3365.4350000433624},{""stimulus"":""https://ziweizhang0304.github.io/Stats_learning_trig/img/Stim/FN_004_g.png"",""time"":3402.985000051558},{""stimulus"":""blank"",""time"":3705.5249999975786},{""stimulus"":""https://ziweizhang0304.github.io/Stats_learning_trig/img/Stim/FN_001_g.png"",""time"":3741.165000014007},{""stimulus"":""blank"",""time"":4042.0399999711663},{""stimulus"":""https://ziweizhang0304.github.io/Stats_learning_trig/img/Stim/FN_012_g.png"",""time"":4083.860000013374},{""stimulus"":""blank"",""time"":4389.265000005253}]","[{""key_press"":32,""rt"":2318.150000064634,""stimulus"":""https://ziweizhang0304.github.io/Stats_learning_trig/img/Stim/FN_002_g.png""}]","276.72500000335276","https://ziweizhang0304.github.io/Stats_learning_trig/img/Stim/FN_002_g.png","post_TD","5","2041.425000061281","2318.150000064634","slow","6","3","6111581348437c57e275bc60","","","","","",""
"","image-keyboard-response","23","176691","0.0-5.0-5.0-0.0","6320.700000040233","","","https://ziweizhang0304.github.io/Stats_learning_trig/img/Stim/FN_026_g.png","13","","","","","","","","","","","","","","","","","",""
"","animation","24","181113","0.0-5.0-5.0-1.0","","","","","","[{""stimulus"":""https://ziweizhang0304.github.io/Stats_learning_trig/img/Stim/FN_005_g.png"",""time"":346.4799999492243},{""stimulus"":""blank"",""time"":647.3449999466538},{""stimulus"":""https://ziweizhang0304.github.io/Stats_learning_trig/img/Stim/FN_015_g.png"",""time"":685.3000000119209},{""stimulus"":""blank"",""time"":985.5899999383837},{""stimulus"":""https://ziweizhang0304.github.io/Stats_learning_trig/img/Stim/FN_013_g.png"",""time"":1022.4249999737367},{""stimulus"":""blank"",""time"":1325.470000039786},{""stimulus"":""https://ziweizhang0304.github.io/Stats_learning_trig/img/Stim/FN_026_g.png"",""time"":1361.254999996163},{""stimulus"":""blank"",""time"":1663.884999928996},{""stimulus"":""https://ziweizhang0304.github.io/Stats_learning_trig/img/Stim/FN_019_g.png"",""time"":1702.6700000278652},{""stimulus"":""blank"",""time"":2004.5399999944493},{""stimulus"":""https://ziweizhang0304.github.io/Stats_learning_trig/img/Stim/FN_002_g.png"",""time"":2042.9999999469146},{""stimulus"":""blank"",""time"":2343.639999977313},{""stimulus"":""https://ziweizhang0304.github.io/Stats_learning_trig/img/Stim/FN_022_g.png"",""time"":2381.8099999334663},{""stimulus"":""blank"",""time"":2684.4750000163913},{""stimulus"":""https://ziweizhang0304.github.io/Stats_learning_trig/img/Stim/FN_009_g.png"",""time"":2722.2250000340864},{""stimulus"":""blank"",""time"":3022.980000008829},{""stimulus"":""https://ziweizhang0304.github.io/Stats_learning_trig/img/Stim/FN_025_g.png"",""time"":3062.180000008084},{""stimulus"":""blank"",""time"":3367.175000021234},{""stimulus"":""https://ziweizhang0304.github.io/Stats_learning_trig/img/Stim/FN_004_g.png"",""time"":3402.189999935217},{""stimulus"":""blank"",""time"":3703.2849999377504},{""stimulus"":""https://ziweizhang0304.github.io/Stats_learning_trig/img/Stim/FN_001_g.png"",""time"":3740.819999948144},{""stimulus"":""blank"",""time"":4042.5650000106543},{""stimulus"":""https://ziweizhang0304.github.io/Stats_learning_trig/img/Stim/FN_012_g.png"",""time"":4082.4850000208244},{""stimulus"":""blank"",""time"":4383.200000040233}]","[{""key_press"":32,""rt"":1918.974999920465,""stimulus"":""https://ziweizhang0304.github.io/Stats_learning_trig/img/Stim/FN_019_g.png""}]","557.7199999243021","https://ziweizhang0304.github.io/Stats_learning_trig/img/Stim/FN_026_g.png","post_TD","6","1361.254999996163","1918.974999920465","slow","4","1","6111581348437c57e275bc60","","","","","",""
"","image-keyboard-response","25","184397","0.0-5.0-6.0-0.0","3280.1249999320135","","","https://ziweizhang0304.github.io/Stats_learning_trig/img/Stim/FN_003_g.png","13","","","","","","","","","","","","","","","","","",""
"","animation","26","188824","0.0-5.0-6.0-1.0","","","","","","[{""stimulus"":""https://ziweizhang0304.github.io/Stats_learning_trig/img/Stim/FN_013_g.png"",""time"":343.8399999868125},{""stimulus"":""blank"",""time"":645.2950000530109},{""stimulus"":""https://ziweizhang0304.github.io/Stats_learning_trig/img/Stim/FN_022_g.png"",""time"":681.1349999625236},{""stimulus"":""blank"",""time"":981.9500000448897},{""stimulus"":""https://ziweizhang0304.github.io/Stats_learning_trig/img/Stim/FN_009_g.png"",""time"":1021.1999999592081},{""stimulus"":""blank"",""time"":1321.5400000335649},{""stimulus"":""https://ziweizhang0304.github.io/Stats_learning_trig/img/Stim/FN_001_g.png"",""time"":1361.0000000335276},{""stimulus"":""blank"",""time"":1665.5500000342727},{""stimulus"":""https://ziweizhang0304.github.io/Stats_learning_trig/img/Stim/FN_025_g.png"",""time"":1700.734999962151},{""stimulus"":""blank"",""time"":2001.1950000189245},{""stimulus"":""https://ziweizhang0304.github.io/Stats_learning_trig/img/Stim/FN_003_g.png"",""time"":2042.1250000363216},{""stimulus"":""blank"",""time"":2344.234999967739},{""stimulus"":""https://ziweizhang0304.github.io/Stats_learning_trig/img/Stim/FN_006_g.png"",""time"":2382.6650000410154},{""stimulus"":""blank"",""time"":2684.2549999710172},{""stimulus"":""https://ziweizhang0304.github.io/Stats_learning_trig/img/Stim/FN_008_g.png"",""time"":2722.219999996014},{""stimulus"":""blank"",""time"":3024.2899999720976},{""stimulus"":""https://ziweizhang0304.github.io/Stats_learning_trig/img/Stim/FN_015_g.png"",""time"":3062.359999981709},{""stimulus"":""blank"",""time"":3365.8500000601634},{""stimulus"":""https://ziweizhang0304.github.io/Stats_learning_trig/img/Stim/FN_005_g.png"",""time"":3401.5849999850616},{""stimulus"":""blank"",""time"":3702.170000062324},{""stimulus"":""https://ziweizhang0304.github.io/Stats_learning_trig/img/Stim/FN_004_g.png"",""time"":3741.4649999700487},{""stimulus"":""blank"",""time"":4042.81000001356},{""stimulus"":""https://ziweizhang0304.github.io/Stats_learning_trig/img/Stim/FN_012_g.png"",""time"":4082.3749999981374},{""stimulus"":""blank"",""time"":4385.869999998249}]","[{""key_press"":32,""rt"":2418.3450000127777,""stimulus"":""https://ziweizhang0304.github.io/Stats_learning_trig/img/Stim/FN_006_g.png""}]","376.21999997645617","https://ziweizhang0304.github.io/Stats_learning_trig/img/Stim/FN_003_g.png","post_TD","7","2042.1250000363216","2418.3450000127777","fast","6","1","6111581348437c57e275bc60","","","","","",""
"","image-keyboard-response","27","191789","0.0-5.0-7.0-0.0","2961.9399999501184","","","https://ziweizhang0304.github.io/Stats_learning_trig/img/Stim/FN_003_g.png","13","","","","","","","","","","","","","","","","","",""
"","animation","28","196213","0.0-5.0-7.0-1.0","","","","","","[{""stimulus"":""https://ziweizhang0304.github.io/Stats_learning_trig/img/Stim/FN_013_g.png"",""time"":345.3999999910593},{""stimulus"":""blank"",""time"":646.1650000419468},{""stimulus"":""https://ziweizhang0304.github.io/Stats_learning_trig/img/Stim/FN_009_g.png"",""time"":684.5050000119954},{""stimulus"":""blank"",""time"":986.1800000071526},{""stimulus"":""https://ziweizhang0304.github.io/Stats_learning_trig/img/Stim/FN_015_g.png"",""time"":1023.5399999655783},{""stimulus"":""blank"",""time"":1324.6100000105798},{""stimulus"":""https://ziweizhang0304.github.io/Stats_learning_trig/img/Stim/FN_025_g.png"",""time"":1361.4700000034645},{""stimulus"":""blank"",""time"":1664.2899999860674},{""stimulus"":""https://ziweizhang0304.github.io/Stats_learning_trig/img/Stim/FN_003_g.png"",""time"":1700.9150000521913},{""stimulus"":""blank"",""time"":2001.2450000504032},{""stimulus"":""https://ziweizhang0304.github.io/Stats_learning_trig/img/Stim/FN_006_g.png"",""time"":2045.8400000352412},{""stimulus"":""blank"",""time"":2346.7599999858066},{""stimulus"":""https://ziweizhang0304.github.io/Stats_learning_trig/img/Stim/FN_008_g.png"",""time"":2381.6550000337884},{""stimulus"":""blank"",""time"":2684.129999950528},{""stimulus"":""https://ziweizhang0304.github.io/Stats_learning_trig/img/Stim/FN_022_g.png"",""time"":2722.2850000252947},{""stimulus"":""blank"",""time"":3023.0000000447035},{""stimulus"":""https://ziweizhang0304.github.io/Stats_learning_trig/img/Stim/FN_005_g.png"",""time"":3062.294999952428},{""stimulus"":""blank"",""time"":3364.4700000295416},{""stimulus"":""https://ziweizhang0304.github.io/Stats_learning_trig/img/Stim/FN_004_g.png"",""time"":3402.4350000545382},{""stimulus"":""blank"",""time"":3703.190000029281},{""stimulus"":""https://ziweizhang0304.github.io/Stats_learning_trig/img/Stim/FN_001_g.png"",""time"":3741.32999998983},{""stimulus"":""blank"",""time"":4045.07500003092},{""stimulus"":""https://ziweizhang0304.github.io/Stats_learning_trig/img/Stim/FN_012_g.png"",""time"":4081.819999963045},{""stimulus"":""blank"",""time"":4382.560000056401}]","[{""key_press"":32,""rt"":2114.33999997098,""stimulus"":""https://ziweizhang0304.github.io/Stats_learning_trig/img/Stim/FN_006_g.png""}]","413.42499991878867","https://ziweizhang0304.github.io/Stats_learning_trig/img/Stim/FN_003_g.png","post_TD","8","1700.9150000521913","2114.33999997098","fast","5","1","6111581348437c57e275bc60","","","","","",""
"","image-keyboard-response","29","201770","0.0-5.0-8.0-0.0","5554.125000024214","","","https://ziweizhang0304.github.io/Stats_learning_trig/img/Stim/FN_003_g.png","13","","","","","","","","","","","","","","","","","",""
"","animation","30","206193","0.0-5.0-8.0-1.0","","","","","","[{""stimulus"":""https://ziweizhang0304.github.io/Stats_learning_trig/img/Stim/FN_005_g.png"",""time"":342.7199999568984},{""stimulus"":""blank"",""time"":644.6549999527633},{""stimulus"":""https://ziweizhang0304.github.io/Stats_learning_trig/img/Stim/FN_025_g.png"",""time"":684.5699999248609},{""stimulus"":""blank"",""time"":985.5449999449775},{""stimulus"":""https://ziweizhang0304.github.io/Stats_learning_trig/img/Stim/FN_012_g.png"",""time"":1022.0499999122694},{""stimulus"":""blank"",""time"":1323.9599999506027},{""stimulus"":""https://ziweizhang0304.github.io/Stats_learning_trig/img/Stim/FN_003_g.png"",""time"":1363.0750000011176},{""stimulus"":""blank"",""time"":1663.5999999707565},{""stimulus"":""https://ziweizhang0304.github.io/Stats_learning_trig/img/Stim/FN_006_g.png"",""time"":1703.9050000021234},{""stimulus"":""blank"",""time"":2005.5949999950826},{""stimulus"":""https://ziweizhang0304.github.io/Stats_learning_trig/img/Stim/FN_008_g.png"",""time"":2043.5899998992682},{""stimulus"":""blank"",""time"":2346.7499999096617},{""stimulus"":""https://ziweizhang0304.github.io/Stats_learning_trig/img/Stim/FN_022_g.png"",""time"":2382.4749999912456},{""stimulus"":""blank"",""time"":2684.224999975413},{""stimulus"":""https://ziweizhang0304.github.io/Stats_learning_trig/img/Stim/FN_009_g.png"",""time"":2722.719999961555},{""stimulus"":""blank"",""time"":3023.739999975078},{""stimulus"":""https://ziweizhang0304.github.io/Stats_learning_trig/img/Stim/FN_013_g.png"",""time"":3065.0799999712035},{""stimulus"":""blank"",""time"":3365.889999899082},{""stimulus"":""https://ziweizhang0304.github.io/Stats_learning_trig/img/Stim/FN_015_g.png"",""time"":3401.084999903105},{""stimulus"":""blank"",""time"":3703.6450000014156},{""stimulus"":""https://ziweizhang0304.github.io/Stats_learning_trig/img/Stim/FN_004_g.png"",""time"":3743.519999901764},{""stimulus"":""blank"",""time"":4044.0499999094754},{""stimulus"":""https://ziweizhang0304.github.io/Stats_learning_trig/img/Stim/FN_001_g.png"",""time"":4082.079999963753},{""stimulus"":""blank"",""time"":4382.419999921694}]","[{""key_press"":32,""rt"":1732.3799999430776,""stimulus"":""https://ziweizhang0304.github.io/Stats_learning_trig/img/Stim/FN_006_g.png""}]","369.30499994196","https://ziweizhang0304.github.io/Stats_learning_trig/img/Stim/FN_003_g.png","post_TD","9","1363.0750000011176","1732.3799999430776","fast","4","1","6111581348437c57e275bc60","","","","","",""
"","image-keyboard-response","31","209980","0.0-5.0-9.0-0.0","3784.1199999675155","","","https://ziweizhang0304.github.io/Stats_learning_trig/img/Stim/FN_019_g.png","13","","","","","","","","","","","","","","","","","",""
"","animation","32","214402","0.0-5.0-9.0-1.0","","","","","","[{""stimulus"":""https://ziweizhang0304.github.io/Stats_learning_trig/img/Stim/FN_005_g.png"",""time"":342.9799999576062},{""stimulus"":""blank"",""time"":647.8249999927357},{""stimulus"":""https://ziweizhang0304.github.io/Stats_learning_trig/img/Stim/FN_015_g.png"",""time"":681.1549999983981},{""stimulus"":""blank"",""time"":981.6100000170991},{""stimulus"":""https://ziweizhang0304.github.io/Stats_learning_trig/img/Stim/FN_013_g.png"",""time"":1020.9150000009686},{""stimulus"":""blank"",""time"":1321.7099999310449},{""stimulus"":""https://ziweizhang0304.github.io/Stats_learning_trig/img/Stim/FN_026_g.png"",""time"":1362.059999955818},{""stimulus"":""blank"",""time"":1664.5949999801815},{""stimulus"":""https://ziweizhang0304.github.io/Stats_learning_trig/img/Stim/FN_019_g.png"",""time"":1705.8849999448285},{""stimulus"":""blank"",""time"":2006.67999999132},{""stimulus"":""https://ziweizhang0304.github.io/Stats_learning_trig/img/Stim/FN_002_g.png"",""time"":2041.069999919273},{""stimulus"":""blank"",""time"":2345.729999942705},{""stimulus"":""https://ziweizhang0304.github.io/Stats_learning_trig/img/Stim/FN_022_g.png"",""time"":2383.975000004284},{""stimulus"":""blank"",""time"":2684.209999977611},{""stimulus"":""https://ziweizhang0304.github.io/Stats_learning_trig/img/Stim/FN_009_g.png"",""time"":2721.269999979995},{""stimulus"":""blank"",""time"":3021.68000000529},{""stimulus"":""https://ziweizhang0304.github.io/Stats_learning_trig/img/Stim/FN_025_g.png"",""time"":3060.8449999708682},{""stimulus"":""blank"",""time"":3362.459999974817},{""stimulus"":""https://ziweizhang0304.github.io/Stats_learning_trig/img/Stim/FN_004_g.png"",""time"":3405.504999915138},{""stimulus"":""blank"",""time"":3705.74000000488},{""stimulus"":""https://ziweizhang0304.github.io/Stats_learning_trig/img/Stim/FN_001_g.png"",""time"":3743.6499999603257},{""stimulus"":""blank"",""time"":4044.1199999768287},{""stimulus"":""https://ziweizhang0304.github.io/Stats_learning_trig/img/Stim/FN_012_g.png"",""time"":4084.2849999899045},{""stimulus"":""blank"",""time"":4385.6299999170005}]","[{""key_press"":32,""rt"":2055.999999982305,""stimulus"":""https://ziweizhang0304.github.io/Stats_learning_trig/img/Stim/FN_002_g.png""}]","350.1150000374764","https://ziweizhang0304.github.io/Stats_learning_trig/img/Stim/FN_019_g.png","post_TD","10","1705.8849999448285","2055.999999982305","slow","5","2","6111581348437c57e275bc60","","","","","",""
"","image-keyboard-response","33","217364","0.0-5.0-10.0-0.0","2958.255000063218","","","https://ziweizhang0304.github.io/Stats_learning_trig/img/Stim/FN_026_g.png","13","","","","","","","","","","","","","","","","","",""
"","animation","34","221789","0.0-5.0-10.0-1.0","","","","","","[{""stimulus"":""https://ziweizhang0304.github.io/Stats_learning_trig/img/Stim/FN_022_g.png"",""time"":344.9300000211224},{""stimulus"":""blank"",""time"":646.0900000529364},{""stimulus"":""https://ziweizhang0304.github.io/Stats_learning_trig/img/Stim/FN_013_g.png"",""time"":681.940000038594},{""stimulus"":""blank"",""time"":984.4499999890104},{""stimulus"":""https://ziweizhang0304.github.io/Stats_learning_trig/img/Stim/FN_005_g.png"",""time"":1021.6800000052899},{""stimulus"":""blank"",""time"":1322.7099999785423},{""stimulus"":""https://ziweizhang0304.github.io/Stats_learning_trig/img/Stim/FN_004_g.png"",""time"":1365.4800000367686},{""stimulus"":""blank"",""time"":1667.3500000033528},{""stimulus"":""https://ziweizhang0304.github.io/Stats_learning_trig/img/Stim/FN_015_g.png"",""time"":1701.5649999957532},{""stimulus"":""blank"",""time"":2002.8699999675155},{""stimulus"":""https://ziweizhang0304.github.io/Stats_learning_trig/img/Stim/FN_026_g.png"",""time"":2042.0300000114366},{""stimulus"":""blank"",""time"":2344.2000000504777},{""stimulus"":""https://ziweizhang0304.github.io/Stats_learning_trig/img/Stim/FN_019_g.png"",""time"":2380.8500000741333},{""stimulus"":""blank"",""time"":2683.3699999842793},{""stimulus"":""https://ziweizhang0304.github.io/Stats_learning_trig/img/Stim/FN_002_g.png"",""time"":2723.660000017844},{""stimulus"":""blank"",""time"":3024.7550000203773},{""stimulus"":""https://ziweizhang0304.github.io/Stats_learning_trig/img/Stim/FN_009_g.png"",""time"":3061.1750000389293},{""stimulus"":""blank"",""time"":3365.055000060238},{""stimulus"":""https://ziweizhang0304.github.io/Stats_learning_trig/img/Stim/FN_025_g.png"",""time"":3401.7499999608845},{""stimulus"":""blank"",""time"":3702.404999989085},{""stimulus"":""https://ziweizhang0304.github.io/Stats_learning_trig/img/Stim/FN_001_g.png"",""time"":3742.1099999919534},{""stimulus"":""blank"",""time"":4043.36000001058},{""stimulus"":""https://ziweizhang0304.github.io/Stats_learning_trig/img/Stim/FN_012_g.png"",""time"":4083.2899999804795},{""stimulus"":""blank"",""time"":4385.415000026114}]","[{""key_press"":32,""rt"":2435.189999989234,""stimulus"":""https://ziweizhang0304.github.io/Stats_learning_trig/img/Stim/FN_019_g.png""}]","393.15999997779727","https://ziweizhang0304.github.io/Stats_learning_trig/img/Stim/FN_026_g.png","post_TD","11","2042.0300000114366","2435.189999989234","slow","6","1","6111581348437c57e275bc60","","","","","",""
"","image-keyboard-response","35","229232","0.0-5.0-11.0-0.0","7439.7749999770895","","","https://ziweizhang0304.github.io/Stats_learning_trig/img/Stim/FN_008_g.png","13","","","","","","","","","","","","","","","","","",""
"","animation","36","233655","0.0-5.0-11.0-1.0","","","","","","[{""stimulus"":""https://ziweizhang0304.github.io/Stats_learning_trig/img/Stim/FN_005_g.png"",""time"":345.7150000613183},{""stimulus"":""blank"",""time"":647.2699999576434},{""stimulus"":""https://ziweizhang0304.github.io/Stats_learning_trig/img/Stim/FN_025_g.png"",""time"":681.0749999713153},{""stimulus"":""blank"",""time"":982.0700000273064},{""stimulus"":""https://ziweizhang0304.github.io/Stats_learning_trig/img/Stim/FN_012_g.png"",""time"":1021.1950000375509},{""stimulus"":""blank"",""time"":1322.4199999822304},{""stimulus"":""https://ziweizhang0304.github.io/Stats_learning_trig/img/Stim/FN_003_g.png"",""time"":1360.8600000152364},{""stimulus"":""blank"",""time"":1661.0700000310317},{""stimulus"":""https://ziweizhang0304.github.io/Stats_learning_trig/img/Stim/FN_006_g.png"",""time"":1701.8450000323355},{""stimulus"":""blank"",""time"":2003.290000022389},{""stimulus"":""https://ziweizhang0304.github.io/Stats_learning_trig/img/Stim/FN_008_g.png"",""time"":2042.7449999842793},{""stimulus"":""blank"",""time"":2343.875000020489},{""stimulus"":""https://ziweizhang0304.github.io/Stats_learning_trig/img/Stim/FN_022_g.png"",""time"":2383.4799999604},{""stimulus"":""blank"",""time"":2684.639999992214},{""stimulus"":""https://ziweizhang0304.github.io/Stats_learning_trig/img/Stim/FN_009_g.png"",""time"":2724.915000027977},{""stimulus"":""blank"",""time"":3025.8499999763444},{""stimulus"":""https://ziweizhang0304.github.io/Stats_learning_trig/img/Stim/FN_013_g.png"",""time"":3061.4399999612942},{""stimulus"":""blank"",""time"":3363.8450000435114},{""stimulus"":""https://ziweizhang0304.github.io/Stats_learning_trig/img/Stim/FN_015_g.png"",""time"":3403.344999998808},{""stimulus"":""blank"",""time"":3706.2300000106916},{""stimulus"":""https://ziweizhang0304.github.io/Stats_learning_trig/img/Stim/FN_004_g.png"",""time"":3742.560000042431},{""stimulus"":""blank"",""time"":4047.855000011623},{""stimulus"":""https://ziweizhang0304.github.io/Stats_learning_trig/img/Stim/FN_001_g.png"",""time"":4081.1300000641495},{""stimulus"":""blank"",""time"":4382.869999972172}]","[{""key_press"":32,""rt"":2362.9349999828264,""stimulus"":""blank""}]","320.18999999854714","https://ziweizhang0304.github.io/Stats_learning_trig/img/Stim/FN_008_g.png","post_TD","12","2042.7449999842793","2362.9349999828264","fast","6","3","6111581348437c57e275bc60","","","","","",""
"","image-keyboard-response","37","238102","0.0-5.0-12.0-0.0","4444.034999934956","","","https://ziweizhang0304.github.io/Stats_learning_trig/img/Stim/FN_006_g.png","13","","","","","","","","","","","","","","","","","",""
"","animation","38","242524","0.0-5.0-12.0-1.0","","","","","","[{""stimulus"":""https://ziweizhang0304.github.io/Stats_learning_trig/img/Stim/FN_005_g.png"",""time"":343.7099999282509},{""stimulus"":""blank"",""time"":644.2549999337643},{""stimulus"":""https://ziweizhang0304.github.io/Stats_learning_trig/img/Stim/FN_025_g.png"",""time"":681.4500000327826},{""stimulus"":""blank"",""time"":982.869999948889},{""stimulus"":""https://ziweizhang0304.github.io/Stats_learning_trig/img/Stim/FN_012_g.png"",""time"":1020.7350000273436},{""stimulus"":""blank"",""time"":1321.6999999713153},{""stimulus"":""https://ziweizhang0304.github.io/Stats_learning_trig/img/Stim/FN_003_g.png"",""time"":1361.1950000049546},{""stimulus"":""blank"",""time"":1661.4599999738857},{""stimulus"":""https://ziweizhang0304.github.io/Stats_learning_trig/img/Stim/FN_006_g.png"",""time"":1700.8599999826401},{""stimulus"":""blank"",""time"":2001.1399999493733},{""stimulus"":""https://ziweizhang0304.github.io/Stats_learning_trig/img/Stim/FN_008_g.png"",""time"":2041.7400000151247},{""stimulus"":""blank"",""time"":2343.269999953918},{""stimulus"":""https://ziweizhang0304.github.io/Stats_learning_trig/img/Stim/FN_022_g.png"",""time"":2381.0499999672174},{""stimulus"":""blank"",""time"":2682.574999984354},{""stimulus"":""https://ziweizhang0304.github.io/Stats_learning_trig/img/Stim/FN_009_g.png"",""time"":2723.3499999856576},{""stimulus"":""blank"",""time"":3025.7099999580532},{""stimulus"":""https://ziweizhang0304.github.io/Stats_learning_trig/img/Stim/FN_013_g.png"",""time"":3063.6849999427795},{""stimulus"":""blank"",""time"":3365.0200000265613},{""stimulus"":""https://ziweizhang0304.github.io/Stats_learning_trig/img/Stim/FN_015_g.png"",""time"":3400.7099999580532},{""stimulus"":""blank"",""time"":3701.4649999327958},{""stimulus"":""https://ziweizhang0304.github.io/Stats_learning_trig/img/Stim/FN_004_g.png"",""time"":3741.425000014715},{""stimulus"":""blank"",""time"":4043.8399999402463},{""stimulus"":""https://ziweizhang0304.github.io/Stats_learning_trig/img/Stim/FN_001_g.png"",""time"":4082.719999947585},{""stimulus"":""blank"",""time"":4383.224999997765}]","[{""key_press"":32,""rt"":2092.5150000257418,""stimulus"":""https://ziweizhang0304.github.io/Stats_learning_trig/img/Stim/FN_008_g.png""}]","391.6550000431016","https://ziweizhang0304.github.io/Stats_learning_trig/img/Stim/FN_006_g.png","post_TD","13","1700.8599999826401","2092.5150000257418","fast","5","2","6111581348437c57e275bc60","","","","","",""
"","image-keyboard-response","39","247813","0.0-5.0-13.0-0.0","5286.3199999555945","","","https://ziweizhang0304.github.io/Stats_learning_trig/img/Stim/FN_008_g.png","13","","","","","","","","","","","","","","","","","",""
"","animation","40","252239","0.0-5.0-13.0-1.0","","","","","","[{""stimulus"":""https://ziweizhang0304.github.io/Stats_learning_trig/img/Stim/FN_013_g.png"",""time"":343.1400000117719},{""stimulus"":""blank"",""time"":646.015000063926},{""stimulus"":""https://ziweizhang0304.github.io/Stats_learning_trig/img/Stim/FN_009_g.png"",""time"":682.53500002902},{""stimulus"":""blank"",""time"":983.2650000462309},{""stimulus"":""https://ziweizhang0304.github.io/Stats_learning_trig/img/Stim/FN_015_g.png"",""time"":1024.6449999976903},{""stimulus"":""blank"",""time"":1325.5900000222027},{""stimulus"":""https://ziweizhang0304.github.io/Stats_learning_trig/img/Stim/FN_025_g.png"",""time"":1361.9849999668077},{""stimulus"":""blank"",""time"":1662.5200000125915},{""stimulus"":""https://ziweizhang0304.github.io/Stats_learning_trig/img/Stim/FN_003_g.png"",""time"":1703.5900000482798},{""stimulus"":""blank"",""time"":2006.374999997206},{""stimulus"":""https://ziweizhang0304.github.io/Stats_learning_trig/img/Stim/FN_006_g.png"",""time"":2041.3950000656769},{""stimulus"":""blank"",""time"":2341.8300000485033},{""stimulus"":""https://ziweizhang0304.github.io/Stats_learning_trig/img/Stim/FN_008_g.png"",""time"":2381.210000021383},{""stimulus"":""blank"",""time"":2681.8549999734387},{""stimulus"":""https://ziweizhang0304.github.io/Stats_learning_trig/img/Stim/FN_022_g.png"",""time"":2721.6499999631196},{""stimulus"":""blank"",""time"":3023.784999968484},{""stimulus"":""https://ziweizhang0304.github.io/Stats_learning_trig/img/Stim/FN_005_g.png"",""time"":3063.410000060685},{""stimulus"":""blank"",""time"":3367.7649999735877},{""stimulus"":""https://ziweizhang0304.github.io/Stats_learning_trig/img/Stim/FN_004_g.png"",""time"":3402.680000057444},{""stimulus"":""blank"",""time"":3703.0800000065938},{""stimulus"":""https://ziweizhang0304.github.io/Stats_learning_trig/img/Stim/FN_001_g.png"",""time"":3743.1199999991804},{""stimulus"":""blank"",""time"":4047.465000068769},{""stimulus"":""https://ziweizhang0304.github.io/Stats_learning_trig/img/Stim/FN_012_g.png"",""time"":4080.9649999719113},{""stimulus"":""blank"",""time"":4381.3800000352785}]","[{""key_press"":32,""rt"":2655.97500000149,""stimulus"":""https://ziweizhang0304.github.io/Stats_learning_trig/img/Stim/FN_008_g.png""}]","274.76499998010695","https://ziweizhang0304.github.io/Stats_learning_trig/img/Stim/FN_008_g.png","post_TD","14","2381.210000021383","2655.97500000149","fast","7","3","6111581348437c57e275bc60","","","","","",""
"","image-keyboard-response","41","257380","0.0-5.0-14.0-0.0","5137.125000008382","","","https://ziweizhang0304.github.io/Stats_learning_trig/img/Stim/FN_003_g.png","13","","","","","","","","","","","","","","","","","",""
"","animation","42","261804","0.0-5.0-14.0-1.0","","","","","","[{""stimulus"":""https://ziweizhang0304.github.io/Stats_learning_trig/img/Stim/FN_005_g.png"",""time"":343.7350000021979},{""stimulus"":""blank"",""time"":648.1049999129027},{""stimulus"":""https://ziweizhang0304.github.io/Stats_learning_trig/img/Stim/FN_015_g.png"",""time"":682.6799999689683},{""stimulus"":""blank"",""time"":983.7350000161678},{""stimulus"":""https://ziweizhang0304.github.io/Stats_learning_trig/img/Stim/FN_022_g.png"",""time"":1023.1349999085069},{""stimulus"":""blank"",""time"":1323.8300000084564},{""stimulus"":""https://ziweizhang0304.github.io/Stats_learning_trig/img/Stim/FN_004_g.png"",""time"":1360.8249999815598},{""stimulus"":""blank"",""time"":1661.4999999292195},{""stimulus"":""https://ziweizhang0304.github.io/Stats_learning_trig/img/Stim/FN_001_g.png"",""time"":1700.7549999980256},{""stimulus"":""blank"",""time"":2004.744999925606},{""stimulus"":""https://ziweizhang0304.github.io/Stats_learning_trig/img/Stim/FN_025_g.png"",""time"":2043.7999999849126},{""stimulus"":""blank"",""time"":2347.609999938868},{""stimulus"":""https://ziweizhang0304.github.io/Stats_learning_trig/img/Stim/FN_003_g.png"",""time"":2383.549999911338},{""stimulus"":""blank"",""time"":2688.0599999567494},{""stimulus"":""https://ziweizhang0304.github.io/Stats_learning_trig/img/Stim/FN_006_g.png"",""time"":2721.7199999140576},{""stimulus"":""blank"",""time"":3025.1999999163672},{""stimulus"":""https://ziweizhang0304.github.io/Stats_learning_trig/img/Stim/FN_008_g.png"",""time"":3061.5149999503046},{""stimulus"":""blank"",""time"":3362.0849999133497},{""stimulus"":""https://ziweizhang0304.github.io/Stats_learning_trig/img/Stim/FN_009_g.png"",""time"":3405.239999992773},{""stimulus"":""blank"",""time"":3706.7449999740347},{""stimulus"":""https://ziweizhang0304.github.io/Stats_learning_trig/img/Stim/FN_013_g.png"",""time"":3742.714999942109},{""stimulus"":""blank"",""time"":4043.4249999234453},{""stimulus"":""https://ziweizhang0304.github.io/Stats_learning_trig/img/Stim/FN_012_g.png"",""time"":4085.1300000213087},{""stimulus"":""blank"",""time"":4386.324999970384}]","[{""key_press"":32,""rt"":2731.75999999512,""stimulus"":""https://ziweizhang0304.github.io/Stats_learning_trig/img/Stim/FN_006_g.png""}]","348.2100000837818","https://ziweizhang0304.github.io/Stats_learning_trig/img/Stim/FN_003_g.png","post_TD","15","2383.549999911338","2731.75999999512","fast","7","1","6111581348437c57e275bc60","","","","","",""
"","image-keyboard-response","43","272180","0.0-5.0-15.0-0.0","10371.395000023767","","","https://ziweizhang0304.github.io/Stats_learning_trig/img/Stim/FN_019_g.png","13","","","","","","","","","","","","","","","","","",""
"","animation","44","276603","0.0-5.0-15.0-1.0","","","","","","[{""stimulus"":""https://ziweizhang0304.github.io/Stats_learning_trig/img/Stim/FN_022_g.png"",""time"":344.79499992448837},{""stimulus"":""blank"",""time"":648.5999999567866},{""stimulus"":""https://ziweizhang0304.github.io/Stats_learning_trig/img/Stim/FN_012_g.png"",""time"":683.6200000252575},{""stimulus"":""blank"",""time"":985.0200000219047},{""stimulus"":""https://ziweizhang0304.github.io/Stats_learning_trig/img/Stim/FN_005_g.png"",""time"":1023.8499999977648},{""stimulus"":""blank"",""time"":1325.3900000127032},{""stimulus"":""https://ziweizhang0304.github.io/Stats_learning_trig/img/Stim/FN_001_g.png"",""time"":1361.2649999558926},{""stimulus"":""blank"",""time"":1661.534999962896},{""stimulus"":""https://ziweizhang0304.github.io/Stats_learning_trig/img/Stim/FN_015_g.png"",""time"":1701.6799999400973},{""stimulus"":""blank"",""time"":2003.4149999264628},{""stimulus"":""https://ziweizhang0304.github.io/Stats_learning_trig/img/Stim/FN_004_g.png"",""time"":2042.0249999733642},{""stimulus"":""blank"",""time"":2342.5999999744818},{""stimulus"":""https://ziweizhang0304.github.io/Stats_learning_trig/img/Stim/FN_026_g.png"",""time"":2385.0749999983236},{""stimulus"":""blank"",""time"":2685.730000026524},{""stimulus"":""https://ziweizhang0304.github.io/Stats_learning_trig/img/Stim/FN_019_g.png"",""time"":2721.709999954328},{""stimulus"":""blank"",""time"":3024.725000024773},{""stimulus"":""https://ziweizhang0304.github.io/Stats_learning_trig/img/Stim/FN_002_g.png"",""time"":3060.8899999642745},{""stimulus"":""blank"",""time"":3361.795000033453},{""stimulus"":""https://ziweizhang0304.github.io/Stats_learning_trig/img/Stim/FN_009_g.png"",""time"":3403.3999999519438},{""stimulus"":""blank"",""time"":3708.574999938719},{""stimulus"":""https://ziweizhang0304.github.io/Stats_learning_trig/img/Stim/FN_013_g.png"",""time"":3740.9800000023097},{""stimulus"":""blank"",""time"":4041.605000034906},{""stimulus"":""https://ziweizhang0304.github.io/Stats_learning_trig/img/Stim/FN_025_g.png"",""time"":4085.064999992028},{""stimulus"":""blank"",""time"":4388.464999967255}]","[{""key_press"":32,""rt"":3035.1699999300763,""stimulus"":""blank""}]","313.45999997574836","https://ziweizhang0304.github.io/Stats_learning_trig/img/Stim/FN_019_g.png","post_TD","16","2721.709999954328","3035.1699999300763","slow","8","2","6111581348437c57e275bc60","","","","","",""
"","image-keyboard-response","45","285072","0.0-5.0-16.0-0.0","8466.080000041984","","","https://ziweizhang0304.github.io/Stats_learning_trig/img/Stim/FN_008_g.png","13","","","","","","","","","","","","","","","","","",""
"","animation","46","289495","0.0-5.0-16.0-1.0","","","","","","[{""stimulus"":""https://ziweizhang0304.github.io/Stats_learning_trig/img/Stim/FN_013_g.png"",""time"":343.51000003516674},{""stimulus"":""blank"",""time"":645.0950000435114},{""stimulus"":""https://ziweizhang0304.github.io/Stats_learning_trig/img/Stim/FN_022_g.png"",""time"":682.0900000166148},{""stimulus"":""blank"",""time"":982.7450000448152},{""stimulus"":""https://ziweizhang0304.github.io/Stats_learning_trig/img/Stim/FN_009_g.png"",""time"":1021.5600000228733},{""stimulus"":""blank"",""time"":1322.0200000796467},{""stimulus"":""https://ziweizhang0304.github.io/Stats_learning_trig/img/Stim/FN_001_g.png"",""time"":1365.9100000513718},{""stimulus"":""blank"",""time"":1666.8449999997392},{""stimulus"":""https://ziweizhang0304.github.io/Stats_learning_trig/img/Stim/FN_025_g.png"",""time"":1702.4100000271574},{""stimulus"":""blank"",""time"":2002.8800000436604},{""stimulus"":""https://ziweizhang0304.github.io/Stats_learning_trig/img/Stim/FN_003_g.png"",""time"":2043.0700000142679},{""stimulus"":""blank"",""time"":2346.28000005614},{""stimulus"":""https://ziweizhang0304.github.io/Stats_learning_trig/img/Stim/FN_006_g.png"",""time"":2380.905000027269},{""stimulus"":""blank"",""time"":2681.330000050366},{""stimulus"":""https://ziweizhang0304.github.io/Stats_learning_trig/img/Stim/FN_008_g.png"",""time"":2720.964999985881},{""stimulus"":""blank"",""time"":3021.7300000367686},{""stimulus"":""https://ziweizhang0304.github.io/Stats_learning_trig/img/Stim/FN_015_g.png"",""time"":3064.280000049621},{""stimulus"":""blank"",""time"":3365.510000032373},{""stimulus"":""https://ziweizhang0304.github.io/Stats_learning_trig/img/Stim/FN_005_g.png"",""time"":3401.960000046529},{""stimulus"":""blank"",""time"":3705.7000000495464},{""stimulus"":""https://ziweizhang0304.github.io/Stats_learning_trig/img/Stim/FN_004_g.png"",""time"":3740.940000046976},{""stimulus"":""blank"",""time"":4043.62500004936},{""stimulus"":""https://ziweizhang0304.github.io/Stats_learning_trig/img/Stim/FN_012_g.png"",""time"":4081.8500000750646},{""stimulus"":""blank"",""time"":4385.995000018738}]","[{""key_press"":32,""rt"":3119.1749999998137,""stimulus"":""https://ziweizhang0304.github.io/Stats_learning_trig/img/Stim/FN_015_g.png""}]","398.2100000139326","https://ziweizhang0304.github.io/Stats_learning_trig/img/Stim/FN_008_g.png","post_TD","17","2720.964999985881","3119.1749999998137","fast","8","3","6111581348437c57e275bc60","","","","","",""
"","image-keyboard-response","47","298080","0.0-5.0-17.0-0.0","8581.234999932349","","","https://ziweizhang0304.github.io/Stats_learning_trig/img/Stim/FN_002_g.png","13","","","","","","","","","","","","","","","","","",""
"","animation","48","302504","0.0-5.0-17.0-1.0","","","","","","[{""stimulus"":""https://ziweizhang0304.github.io/Stats_learning_trig/img/Stim/FN_022_g.png"",""time"":343.3650000952184},{""stimulus"":""blank"",""time"":643.8150000758469},{""stimulus"":""https://ziweizhang0304.github.io/Stats_learning_trig/img/Stim/FN_012_g.png"",""time"":681.5900000510737},{""stimulus"":""blank"",""time"":984.5400000922382},{""stimulus"":""https://ziweizhang0304.github.io/Stats_learning_trig/img/Stim/FN_005_g.png"",""time"":1021.5850000968203},{""stimulus"":""blank"",""time"":1322.2300000488758},{""stimulus"":""https://ziweizhang0304.github.io/Stats_learning_trig/img/Stim/FN_001_g.png"",""time"":1361.0150000313297},{""stimulus"":""blank"",""time"":1661.6750000976026},{""stimulus"":""https://ziweizhang0304.github.io/Stats_learning_trig/img/Stim/FN_015_g.png"",""time"":1701.645000022836},{""stimulus"":""blank"",""time"":2002.1500000730157},{""stimulus"":""https://ziweizhang0304.github.io/Stats_learning_trig/img/Stim/FN_004_g.png"",""time"":2041.0550000378862},{""stimulus"":""blank"",""time"":2341.885000001639},{""stimulus"":""https://ziweizhang0304.github.io/Stats_learning_trig/img/Stim/FN_026_g.png"",""time"":2381.275000050664},{""stimulus"":""blank"",""time"":2682.0700000971556},{""stimulus"":""https://ziweizhang0304.github.io/Stats_learning_trig/img/Stim/FN_019_g.png"",""time"":2720.919999992475},{""stimulus"":""blank"",""time"":3022.6400000974536},{""stimulus"":""https://ziweizhang0304.github.io/Stats_learning_trig/img/Stim/FN_002_g.png"",""time"":3061.1250000074506},{""stimulus"":""blank"",""time"":3361.6900000488386},{""stimulus"":""https://ziweizhang0304.github.io/Stats_learning_trig/img/Stim/FN_009_g.png"",""time"":3400.8500000927597},{""stimulus"":""blank"",""time"":3702.1750001003966},{""stimulus"":""https://ziweizhang0304.github.io/Stats_learning_trig/img/Stim/FN_013_g.png"",""time"":3741.1100000608712},{""stimulus"":""blank"",""time"":4045.130000100471},{""stimulus"":""https://ziweizhang0304.github.io/Stats_learning_trig/img/Stim/FN_025_g.png"",""time"":4080.830000108108},{""stimulus"":""blank"",""time"":4381.365000037476}]","[{""key_press"":32,""rt"":3067.1650000149384,""stimulus"":""https://ziweizhang0304.github.io/Stats_learning_trig/img/Stim/FN_002_g.png""}]","6.0400000074878335","https://ziweizhang0304.github.io/Stats_learning_trig/img/Stim/FN_002_g.png","post_TD","18","3061.1250000074506","3067.1650000149384","slow","9","3","6111581348437c57e275bc60","","","","","",""
"","image-keyboard-response","49","308895","0.0-5.0-18.0-0.0","6387.784999911673","","","https://ziweizhang0304.github.io/Stats_learning_trig/img/Stim/FN_019_g.png","13","","","","","","","","","","","","","","","","","",""
"","animation","50","313317","0.0-5.0-18.0-1.0","","","","","","[{""stimulus"":""https://ziweizhang0304.github.io/Stats_learning_trig/img/Stim/FN_022_g.png"",""time"":343.45499996561557},{""stimulus"":""blank"",""time"":644.3750000325963},{""stimulus"":""https://ziweizhang0304.github.io/Stats_learning_trig/img/Stim/FN_013_g.png"",""time"":681.5299999434501},{""stimulus"":""blank"",""time"":982.7450000448152},{""stimulus"":""https://ziweizhang0304.github.io/Stats_learning_trig/img/Stim/FN_005_g.png"",""time"":1021.5399999869987},{""stimulus"":""blank"",""time"":1323.644999996759},{""stimulus"":""https://ziweizhang0304.github.io/Stats_learning_trig/img/Stim/FN_004_g.png"",""time"":1364.2799999797717},{""stimulus"":""blank"",""time"":1665.4900000430644},{""stimulus"":""https://ziweizhang0304.github.io/Stats_learning_trig/img/Stim/FN_015_g.png"",""time"":1701.5250000404194},{""stimulus"":""blank"",""time"":2003.400000045076},{""stimulus"":""https://ziweizhang0304.github.io/Stats_learning_trig/img/Stim/FN_026_g.png"",""time"":2041.9599999440834},{""stimulus"":""blank"",""time"":2347.2949999850243},{""stimulus"":""https://ziweizhang0304.github.io/Stats_learning_trig/img/Stim/FN_019_g.png"",""time"":2381.1299999943003},{""stimulus"":""blank"",""time"":2685.825000051409},{""stimulus"":""https://ziweizhang0304.github.io/Stats_learning_trig/img/Stim/FN_002_g.png"",""time"":2723.134999978356},{""stimulus"":""blank"",""time"":3023.780000046827},{""stimulus"":""https://ziweizhang0304.github.io/Stats_learning_trig/img/Stim/FN_009_g.png"",""time"":3062.3849999392405},{""stimulus"":""blank"",""time"":3363.8150000479072},{""stimulus"":""https://ziweizhang0304.github.io/Stats_learning_trig/img/Stim/FN_025_g.png"",""time"":3401.4850000385195},{""stimulus"":""blank"",""time"":3702.2649999707937},{""stimulus"":""https://ziweizhang0304.github.io/Stats_learning_trig/img/Stim/FN_001_g.png"",""time"":3743.6499999603257},{""stimulus"":""blank"",""time"":4046.8650000402704},{""stimulus"":""https://ziweizhang0304.github.io/Stats_learning_trig/img/Stim/FN_012_g.png"",""time"":4081.3299999572337},{""stimulus"":""blank"",""time"":4386.1650000326335}]","[{""key_press"":32,""rt"":2777.8300000354648,""stimulus"":""https://ziweizhang0304.github.io/Stats_learning_trig/img/Stim/FN_002_g.png""}]","396.70000004116446","https://ziweizhang0304.github.io/Stats_learning_trig/img/Stim/FN_019_g.png","post_TD","19","2381.1299999943003","2777.8300000354648","slow","7","2","6111581348437c57e275bc60","","","","","",""
"","image-keyboard-response","51","315463","0.0-5.0-19.0-0.0","2142.7099999273196","","","https://ziweizhang0304.github.io/Stats_learning_trig/img/Stim/FN_008_g.png","13","","","","","","","","","","","","","","","","","",""
"","animation","52","319885","0.0-5.0-19.0-1.0","","","","","","[{""stimulus"":""https://ziweizhang0304.github.io/Stats_learning_trig/img/Stim/FN_005_g.png"",""time"":344.64000002481043},{""stimulus"":""blank"",""time"":645.2950000530109},{""stimulus"":""https://ziweizhang0304.github.io/Stats_learning_trig/img/Stim/FN_015_g.png"",""time"":681.4950000261888},{""stimulus"":""blank"",""time"":982.6350000221282},{""stimulus"":""https://ziweizhang0304.github.io/Stats_learning_trig/img/Stim/FN_022_g.png"",""time"":1025.6400000071153},{""stimulus"":""blank"",""time"":1331.0950000304729},{""stimulus"":""https://ziweizhang0304.github.io/Stats_learning_trig/img/Stim/FN_004_g.png"",""time"":1362.2200000099838},{""stimulus"":""blank"",""time"":1663.1599999964237},{""stimulus"":""https://ziweizhang0304.github.io/Stats_learning_trig/img/Stim/FN_001_g.png"",""time"":1700.9000000543892},{""stimulus"":""blank"",""time"":2005.185000016354},{""stimulus"":""https://ziweizhang0304.github.io/Stats_learning_trig/img/Stim/FN_025_g.png"",""time"":2041.8550000758842},{""stimulus"":""blank"",""time"":2344.2950000753626},{""stimulus"":""https://ziweizhang0304.github.io/Stats_learning_trig/img/Stim/FN_003_g.png"",""time"":2380.8699999935925},{""stimulus"":""blank"",""time"":2681.8050000583753},{""stimulus"":""https://ziweizhang0304.github.io/Stats_learning_trig/img/Stim/FN_006_g.png"",""time"":2723.7850000383332},{""stimulus"":""blank"",""time"":3025.179999996908},{""stimulus"":""https://ziweizhang0304.github.io/Stats_learning_trig/img/Stim/FN_008_g.png"",""time"":3062.485000002198},{""stimulus"":""blank"",""time"":3367.5400000065565},{""stimulus"":""https://ziweizhang0304.github.io/Stats_learning_trig/img/Stim/FN_009_g.png"",""time"":3402.265000040643},{""stimulus"":""blank"",""time"":3706.5750000765547},{""stimulus"":""https://ziweizhang0304.github.io/Stats_learning_trig/img/Stim/FN_013_g.png"",""time"":3741.290000034496},{""stimulus"":""blank"",""time"":4041.715000057593},{""stimulus"":""https://ziweizhang0304.github.io/Stats_learning_trig/img/Stim/FN_012_g.png"",""time"":4081.3649999909103},{""stimulus"":""blank"",""time"":4382.1699999971315}]","[{""key_press"":32,""rt"":3489.919999963604,""stimulus"":""https://ziweizhang0304.github.io/Stats_learning_trig/img/Stim/FN_009_g.png""}]","427.434999961406","https://ziweizhang0304.github.io/Stats_learning_trig/img/Stim/FN_008_g.png","post_TD","20","3062.485000002198","3489.919999963604","fast","9","3","6111581348437c57e275bc60","","","","","",""
"","image-keyboard-response","53","324412","0.0-5.0-20.0-0.0","4522.920000017621","","","https://ziweizhang0304.github.io/Stats_learning_trig/img/Stim/FN_002_g.png","13","","","","","","","","","","","","","","","","","",""
"","animation","54","328834","0.0-5.0-20.0-1.0","","","","","","[{""stimulus"":""https://ziweizhang0304.github.io/Stats_learning_trig/img/Stim/FN_022_g.png"",""time"":342.8299999795854},{""stimulus"":""blank"",""time"":643.8149999594316},{""stimulus"":""https://ziweizhang0304.github.io/Stats_learning_trig/img/Stim/FN_012_g.png"",""time"":680.9849999845028},{""stimulus"":""blank"",""time"":981.705000041984},{""stimulus"":""https://ziweizhang0304.github.io/Stats_learning_trig/img/Stim/FN_025_g.png"",""time"":1025.19499999471},{""stimulus"":""blank"",""time"":1330.0599999492988},{""stimulus"":""https://ziweizhang0304.github.io/Stats_learning_trig/img/Stim/FN_015_g.png"",""time"":1361.350000021048},{""stimulus"":""blank"",""time"":1661.9250000221655},{""stimulus"":""https://ziweizhang0304.github.io/Stats_learning_trig/img/Stim/FN_026_g.png"",""time"":1702.199999941513},{""stimulus"":""blank"",""time"":2002.8099999763072},{""stimulus"":""https://ziweizhang0304.github.io/Stats_learning_trig/img/Stim/FN_019_g.png"",""time"":2043.485000031069},{""stimulus"":""blank"",""time"":2345.0149999698624},{""stimulus"":""https://ziweizhang0304.github.io/Stats_learning_trig/img/Stim/FN_002_g.png"",""time"":2384.805000037886},{""stimulus"":""blank"",""time"":2685.2400000207126},{""stimulus"":""https://ziweizhang0304.github.io/Stats_learning_trig/img/Stim/FN_009_g.png"",""time"":2725.7550000213087},{""stimulus"":""blank"",""time"":3028.7150000222027},{""stimulus"":""https://ziweizhang0304.github.io/Stats_learning_trig/img/Stim/FN_013_g.png"",""time"":3062.045000027865},{""stimulus"":""blank"",""time"":3363.050000043586},{""stimulus"":""https://ziweizhang0304.github.io/Stats_learning_trig/img/Stim/FN_005_g.png"",""time"":3402.129999944009},{""stimulus"":""blank"",""time"":3702.3150000022724},{""stimulus"":""https://ziweizhang0304.github.io/Stats_learning_trig/img/Stim/FN_004_g.png"",""time"":3741.909999982454},{""stimulus"":""blank"",""time"":4043.214999954216},{""stimulus"":""https://ziweizhang0304.github.io/Stats_learning_trig/img/Stim/FN_001_g.png"",""time"":4081.529999966733},{""stimulus"":""blank"",""time"":4382.590000052005}]","[{""key_press"":32,""rt"":2761.0700000077486,""stimulus"":""https://ziweizhang0304.github.io/Stats_learning_trig/img/Stim/FN_009_g.png""}]","376.2649999698624","https://ziweizhang0304.github.io/Stats_learning_trig/img/Stim/FN_002_g.png","post_TD","21","2384.805000037886","2761.0700000077486","slow","7","3","6111581348437c57e275bc60","","","","","",""
"","image-keyboard-response","55","330996","0.0-5.0-21.0-0.0","2158.350000041537","","","https://ziweizhang0304.github.io/Stats_learning_trig/img/Stim/FN_026_g.png","13","","","","","","","","","","","","","","","","","",""
"","animation","56","335419","0.0-5.0-21.0-1.0","","","","","","[{""stimulus"":""https://ziweizhang0304.github.io/Stats_learning_trig/img/Stim/FN_022_g.png"",""time"":343.45499996561557},{""stimulus"":""blank"",""time"":646.4299999643117},{""stimulus"":""https://ziweizhang0304.github.io/Stats_learning_trig/img/Stim/FN_012_g.png"",""time"":681.1649999581277},{""stimulus"":""blank"",""time"":985.9350000042468},{""stimulus"":""https://ziweizhang0304.github.io/Stats_learning_trig/img/Stim/FN_005_g.png"",""time"":1021.7600000323728},{""stimulus"":""blank"",""time"":1324.1500000003725},{""stimulus"":""https://ziweizhang0304.github.io/Stats_learning_trig/img/Stim/FN_001_g.png"",""time"":1361.0099999932572},{""stimulus"":""blank"",""time"":1664.310000021942},{""stimulus"":""https://ziweizhang0304.github.io/Stats_learning_trig/img/Stim/FN_015_g.png"",""time"":1701.4600000111386},{""stimulus"":""blank"",""time"":2002.2599999792874},{""stimulus"":""https://ziweizhang0304.github.io/Stats_learning_trig/img/Stim/FN_004_g.png"",""time"":2042.4349999520928},{""stimulus"":""blank"",""time"":2347.8249999461696},{""stimulus"":""https://ziweizhang0304.github.io/Stats_learning_trig/img/Stim/FN_026_g.png"",""time"":2380.959999980405},{""stimulus"":""blank"",""time"":2684.8499999614432},{""stimulus"":""https://ziweizhang0304.github.io/Stats_learning_trig/img/Stim/FN_019_g.png"",""time"":2720.8600000012666},{""stimulus"":""blank"",""time"":3021.7300000367686},{""stimulus"":""https://ziweizhang0304.github.io/Stats_learning_trig/img/Stim/FN_002_g.png"",""time"":3062.5399999553338},{""stimulus"":""blank"",""time"":3366.3800000213087},{""stimulus"":""https://ziweizhang0304.github.io/Stats_learning_trig/img/Stim/FN_009_g.png"",""time"":3401.2349999975413},{""stimulus"":""blank"",""time"":3701.520000002347},{""stimulus"":""https://ziweizhang0304.github.io/Stats_learning_trig/img/Stim/FN_013_g.png"",""time"":3741.2550000008196},{""stimulus"":""blank"",""time"":4043.044999940321},{""stimulus"":""https://ziweizhang0304.github.io/Stats_learning_trig/img/Stim/FN_025_g.png"",""time"":4082.1449999930337},{""stimulus"":""blank"",""time"":4383.174999966286}]","[{""key_press"":32,""rt"":2775.915000005625,""stimulus"":""https://ziweizhang0304.github.io/Stats_learning_trig/img/Stim/FN_019_g.png""}]","394.9550000252202","https://ziweizhang0304.github.io/Stats_learning_trig/img/Stim/FN_026_g.png","post_TD","22","2380.959999980405","2775.915000005625","slow","7","1","6111581348437c57e275bc60","","","","","",""
"","image-keyboard-response","57","337334","0.0-5.0-22.0-0.0","1913.215000065975","","","https://ziweizhang0304.github.io/Stats_learning_trig/img/Stim/FN_006_g.png","13","","","","","","","","","","","","","","","","","",""
"","animation","58","341758","0.0-5.0-22.0-1.0","","","","","","[{""stimulus"":""https://ziweizhang0304.github.io/Stats_learning_trig/img/Stim/FN_013_g.png"",""time"":342.69999992102385},{""stimulus"":""blank"",""time"":643.5749999945983},{""stimulus"":""https://ziweizhang0304.github.io/Stats_learning_trig/img/Stim/FN_022_g.png"",""time"":681.8249999778345},{""stimulus"":""blank"",""time"":983.6349999532104},{""stimulus"":""https://ziweizhang0304.github.io/Stats_learning_trig/img/Stim/FN_009_g.png"",""time"":1022.1749999327585},{""stimulus"":""blank"",""time"":1325.1899998867884},{""stimulus"":""https://ziweizhang0304.github.io/Stats_learning_trig/img/Stim/FN_001_g.png"",""time"":1360.7999999076128},{""stimulus"":""blank"",""time"":1662.6549999928102},{""stimulus"":""https://ziweizhang0304.github.io/Stats_learning_trig/img/Stim/FN_025_g.png"",""time"":1704.7549999551848},{""stimulus"":""blank"",""time"":2005.064999917522},{""stimulus"":""https://ziweizhang0304.github.io/Stats_learning_trig/img/Stim/FN_003_g.png"",""time"":2042.009999975562},{""stimulus"":""blank"",""time"":2343.304999987595},{""stimulus"":""https://ziweizhang0304.github.io/Stats_learning_trig/img/Stim/FN_006_g.png"",""time"":2381.0499999672174},{""stimulus"":""blank"",""time"":2682.494999957271},{""stimulus"":""https://ziweizhang0304.github.io/Stats_learning_trig/img/Stim/FN_008_g.png"",""time"":2721.72499995213},{""stimulus"":""blank"",""time"":3023.6549999099225},{""stimulus"":""https://ziweizhang0304.github.io/Stats_learning_trig/img/Stim/FN_015_g.png"",""time"":3063.20999993477},{""stimulus"":""blank"",""time"":3364.0749999321997},{""stimulus"":""https://ziweizhang0304.github.io/Stats_learning_trig/img/Stim/FN_005_g.png"",""time"":3404.1399999987334},{""stimulus"":""blank"",""time"":3707.8499998897314},{""stimulus"":""https://ziweizhang0304.github.io/Stats_learning_trig/img/Stim/FN_004_g.png"",""time"":3741.429999936372},{""stimulus"":""blank"",""time"":4043.4299999615178},{""stimulus"":""https://ziweizhang0304.github.io/Stats_learning_trig/img/Stim/FN_012_g.png"",""time"":4082.259999937378},{""stimulus"":""blank"",""time"":4383.634999976493}]","[{""key_press"":32,""rt"":2806.235000025481,""stimulus"":""https://ziweizhang0304.github.io/Stats_learning_trig/img/Stim/FN_008_g.png""}]","425.18500005826354","https://ziweizhang0304.github.io/Stats_learning_trig/img/Stim/FN_006_g.png","post_TD","23","2381.0499999672174","2806.235000025481","fast","7","2","6111581348437c57e275bc60","","","","","",""
"","image-keyboard-response","59","380797","0.0-5.0-23.0-0.0","39198.59000004362","","","https://ziweizhang0304.github.io/Stats_learning_trig/img/Stim/FN_026_g.png","13","","","","","","","","","","","","","","","","","",""
"","animation","60","385219","0.0-5.0-23.0-1.0","","","","","","[{""stimulus"":""https://ziweizhang0304.github.io/Stats_learning_trig/img/Stim/FN_022_g.png"",""time"":343.3950000908226},{""stimulus"":""blank"",""time"":645.0550000881776},{""stimulus"":""https://ziweizhang0304.github.io/Stats_learning_trig/img/Stim/FN_012_g.png"",""time"":683.725000009872},{""stimulus"":""blank"",""time"":986.6300000576302},{""stimulus"":""https://ziweizhang0304.github.io/Stats_learning_trig/img/Stim/FN_025_g.png"",""time"":1022.9800000088289},{""stimulus"":""blank"",""time"":1323.4300001058728},{""stimulus"":""https://ziweizhang0304.github.io/Stats_learning_trig/img/Stim/FN_015_g.png"",""time"":1361.6650000913069},{""stimulus"":""blank"",""time"":1662.3950001085177},{""stimulus"":""https://ziweizhang0304.github.io/Stats_learning_trig/img/Stim/FN_026_g.png"",""time"":1701.8750000279397},{""stimulus"":""blank"",""time"":2002.6750001125038},{""stimulus"":""https://ziweizhang0304.github.io/Stats_learning_trig/img/Stim/FN_019_g.png"",""time"":2042.020000051707},{""stimulus"":""blank"",""time"":2343.970000045374},{""stimulus"":""https://ziweizhang0304.github.io/Stats_learning_trig/img/Stim/FN_002_g.png"",""time"":2385.095000034198},{""stimulus"":""blank"",""time"":2685.715000028722},{""stimulus"":""https://ziweizhang0304.github.io/Stats_learning_trig/img/Stim/FN_009_g.png"",""time"":2722.2850000252947},{""stimulus"":""blank"",""time"":3022.6300000213087},{""stimulus"":""https://ziweizhang0304.github.io/Stats_learning_trig/img/Stim/FN_013_g.png"",""time"":3061.6600000066683},{""stimulus"":""blank"",""time"":3362.5450000399724},{""stimulus"":""https://ziweizhang0304.github.io/Stats_learning_trig/img/Stim/FN_005_g.png"",""time"":3402.80999999959},{""stimulus"":""blank"",""time"":3704.3350000167266},{""stimulus"":""https://ziweizhang0304.github.io/Stats_learning_trig/img/Stim/FN_004_g.png"",""time"":3740.9200000111014},{""stimulus"":""blank"",""time"":4041.830000001937},{""stimulus"":""https://ziweizhang0304.github.io/Stats_learning_trig/img/Stim/FN_001_g.png"",""time"":4082.02000008896},{""stimulus"":""blank"",""time"":4385.395000106655}]","[{""key_press"":32,""rt"":2200.375000014901,""stimulus"":""https://ziweizhang0304.github.io/Stats_learning_trig/img/Stim/FN_019_g.png""}]","498.4999999869615","https://ziweizhang0304.github.io/Stats_learning_trig/img/Stim/FN_026_g.png","post_TD","24","1701.8750000279397","2200.375000014901","slow","5","1","6111581348437c57e275bc60","0ad6c","","","","",""
"","survey-text","61","397476","0.0-6.0","12222.825000062585","","","","","","","","","","","","","","","","","","{""Q0"":""No, just tried to pay attention.""}","","","",""
"","survey-text","62","406158","0.0-7.0","8674.505000002682","","","","","","","","","","","","","","","","","","{""[object Object]"":""No""}","","","",""
"","instructions","63","428447","0.0-8.0","22287.164999987","","[{""page_index"":0,""viewing_time"":22286.75500000827}]","","","","","","","","","","","","","","","","","","","",""
"","free-sort","64","474178","0.0-9.0","45716.32000000682","","","","","","","","","post_drag","","","","fast","","","","","","[{""src"":""https://ziweizhang0304.github.io/Stats_learning_trig/img/Stim/FN_006_g.png"",""x"":475,""y"":0},{""src"":""https://ziweizhang0304.github.io/Stats_learning_trig/img/Stim/FN_003_g.png"",""x"":-225,""y"":50},{""src"":""https://ziweizhang0304.github.io/Stats_learning_trig/img/Stim/FN_008_g.png"",""x"":475,""y"":50}]","[{""src"":""https://ziweizhang0304.github.io/Stats_learning_trig/img/Stim/FN_006_g.png"",""x"":45,""y"":23},{""src"":""https://ziweizhang0304.github.io/Stats_learning_trig/img/Stim/FN_003_g.png"",""x"":113,""y"":26},{""src"":""https://ziweizhang0304.github.io/Stats_learning_trig/img/Stim/FN_008_g.png"",""x"":210,""y"":19}]","[{""src"":""https://ziweizhang0304.github.io/Stats_learning_trig/img/Stim/FN_006_g.png"",""x"":45,""y"":23},{""src"":""https://ziweizhang0304.github.io/Stats_learning_trig/img/Stim/FN_003_g.png"",""x"":113,""y"":26},{""src"":""https://ziweizhang0304.github.io/Stats_learning_trig/img/Stim/FN_008_g.png"",""x"":210,""y"":19}]",""
"","free-sort","65","492708","0.0-10.0","18527.314999955706","","","","","","","","","post_drag","","","","slow","","","","","","[{""src"":""https://ziweizhang0304.github.io/Stats_learning_trig/img/Stim/FN_026_g.png"",""x"":475,""y"":0},{""src"":""https://ziweizhang0304.github.io/Stats_learning_trig/img/Stim/FN_019_g.png"",""x"":-225,""y"":50},{""src"":""https://ziweizhang0304.github.io/Stats_learning_trig/img/Stim/FN_002_g.png"",""x"":475,""y"":50}]","[{""src"":""https://ziweizhang0304.github.io/Stats_learning_trig/img/Stim/FN_019_g.png"",""x"":131,""y"":19},{""src"":""https://ziweizhang0304.github.io/Stats_learning_trig/img/Stim/FN_026_g.png"",""x"":30,""y"":23},{""src"":""https://ziweizhang0304.github.io/Stats_learning_trig/img/Stim/FN_002_g.png"",""x"":212,""y"":20}]","[{""src"":""https://ziweizhang0304.github.io/Stats_learning_trig/img/Stim/FN_026_g.png"",""x"":30,""y"":23},{""src"":""https://ziweizhang0304.github.io/Stats_learning_trig/img/Stim/FN_019_g.png"",""x"":131,""y"":19},{""src"":""https://ziweizhang0304.github.io/Stats_learning_trig/img/Stim/FN_002_g.png"",""x"":212,""y"":20}]",""
"","survey-multi-choice","66","511718","0.0-11.0","18991.88999994658","","","","","","","","","","","","","","","","6111581348437c57e275bc60","","{""awareness"":""No"",""attention_check"":""Press SPACEBAR to a target""}","","","","[0,1]"
