"success","trial_type","trial_index","time_elapsed","internal_node_id","rt","url","view_history","stimulus","key_press","animation_sequence","response","TD_rt","TD_target","test_part","TD_trial_number","onset","offset","attention_state","TD_target_position","TD_within_triplet_counter","participant","yoke_participant","responses","init_locations","moves","final_locations","question_order"
"true","fullscreen","0","2361","0.0-0.0","","","","","","","","","","","","","","","","","","","","","","",""
"","external-html","1","6194","0.0-1.0","3686.9000000953674","https://ziweizhang0304.github.io/Stats_learning_trig/content/consent.html","","","","","","","","","","","","","","","","","","","","",""
"","instructions","2","31854","0.0-2.0","25659.799999952316","","[{""page_index"":0,""viewing_time"":1251.8999998569489},{""page_index"":1,""viewing_time"":5466.100000143051},{""page_index"":2,""viewing_time"":1756.7999999523163},{""page_index"":1,""viewing_time"":9470.5},{""page_index"":2,""viewing_time"":5715.799999952316},{""page_index"":3,""viewing_time"":1998.2000000476837}]","","","","","","","","","","","","","","","","","","","",""
"","image-keyboard-response","3","37204","0.0-3.0-0.0-0.0","5349.200000047684","","","https://ziweizhang0304.github.io/Stats_learning_trig/img/Stim/FN_021_g.png","13","","","","","","","","","","","","","","","","","",""
"","animation","4","41631","0.0-3.0-0.0-1.0","","","","","","[{""stimulus"":""https://ziweizhang0304.github.io/Stats_learning_trig/img/Stim/FN_021_g.png"",""time"":353.7000000476837},{""stimulus"":""blank"",""time"":656.3999998569489},{""stimulus"":""https://ziweizhang0304.github.io/Stats_learning_trig/img/Stim/FN_016_g.png"",""time"":681.5},{""stimulus"":""blank"",""time"":996.7999999523163},{""stimulus"":""https://ziweizhang0304.github.io/Stats_learning_trig/img/Stim/FN_019_g.png"",""time"":1021.2999999523163},{""stimulus"":""blank"",""time"":1322.3999998569489},{""stimulus"":""https://ziweizhang0304.github.io/Stats_learning_trig/img/Stim/FN_007_g.png"",""time"":1368.0999999046326},{""stimulus"":""blank"",""time"":1679.0999999046326},{""stimulus"":""https://ziweizhang0304.github.io/Stats_learning_trig/img/Stim/FN_008_g.png"",""time"":1702.0999999046326},{""stimulus"":""blank"",""time"":2006.7999999523163},{""stimulus"":""https://ziweizhang0304.github.io/Stats_learning_trig/img/Stim/FN_014_g.png"",""time"":2042.7000000476837},{""stimulus"":""blank"",""time"":2345.399999856949},{""stimulus"":""https://ziweizhang0304.github.io/Stats_learning_trig/img/Stim/FN_004_g.png"",""time"":2381.7999999523163},{""stimulus"":""blank"",""time"":2685.2999999523163},{""stimulus"":""https://ziweizhang0304.github.io/Stats_learning_trig/img/Stim/FN_023_g.png"",""time"":2720.7000000476837},{""stimulus"":""blank"",""time"":3030.899999856949},{""stimulus"":""https://ziweizhang0304.github.io/Stats_learning_trig/img/Stim/FN_013_g.png"",""time"":3061.5999999046326},{""stimulus"":""blank"",""time"":3371.7000000476837},{""stimulus"":""https://ziweizhang0304.github.io/Stats_learning_trig/img/Stim/FN_017_g.png"",""time"":3401.2000000476837},{""stimulus"":""blank"",""time"":3714},{""stimulus"":""https://ziweizhang0304.github.io/Stats_learning_trig/img/Stim/FN_025_g.png"",""time"":3742.0999999046326},{""stimulus"":""blank"",""time"":4054.0999999046326},{""stimulus"":""https://ziweizhang0304.github.io/Stats_learning_trig/img/Stim/FN_009_g.png"",""time"":4081.0999999046326},{""stimulus"":""blank"",""time"":4395.799999952316}]","[{""key_press"":32,""rt"":1083.9000000953674,""stimulus"":""https://ziweizhang0304.github.io/Stats_learning_trig/img/Stim/FN_019_g.png""}]","730.2000000476837","https://ziweizhang0304.github.io/Stats_learning_trig/img/Stim/FN_021_g.png","post_prac","","","","","","","","","","","","",""
"","html-keyboard-response","5","47594","0.0-3.0-0.0-2.0","5961.200000047684","","","<p>Your reaction time for this trial was 730.2 ms.</p><p>Remember that you should only press the SPACEBAR when you see the shape presented at the beginning of the trial. </b> </p><p>Press enter to move on.</p>","13","","","","","","","","","","","","","","","","","",""
"","image-keyboard-response","6","49735","0.0-3.0-1.0-0.0","2140.2999999523163","","","https://ziweizhang0304.github.io/Stats_learning_trig/img/Stim/FN_021_g.png","13","","","","","","","","","","","","","","","","","",""
"","animation","7","54166","0.0-3.0-1.0-1.0","","","","","","[{""stimulus"":""https://ziweizhang0304.github.io/Stats_learning_trig/img/Stim/FN_023_g.png"",""time"":350.90000009536743},{""stimulus"":""blank"",""time"":664.5},{""stimulus"":""https://ziweizhang0304.github.io/Stats_learning_trig/img/Stim/FN_004_g.png"",""time"":695},{""stimulus"":""blank"",""time"":1004.0999999046326},{""stimulus"":""https://ziweizhang0304.github.io/Stats_learning_trig/img/Stim/FN_009_g.png"",""time"":1029},{""stimulus"":""blank"",""time"":1344.2000000476837},{""stimulus"":""https://ziweizhang0304.github.io/Stats_learning_trig/img/Stim/FN_019_g.png"",""time"":1374.2999999523163},{""stimulus"":""blank"",""time"":1686.2999999523163},{""stimulus"":""https://ziweizhang0304.github.io/Stats_learning_trig/img/Stim/FN_016_g.png"",""time"":1701.4000000953674},{""stimulus"":""blank"",""time"":2011.7999999523163},{""stimulus"":""https://ziweizhang0304.github.io/Stats_learning_trig/img/Stim/FN_021_g.png"",""time"":2041.7999999523163},{""stimulus"":""blank"",""time"":2348.2999999523163},{""stimulus"":""https://ziweizhang0304.github.io/Stats_learning_trig/img/Stim/FN_008_g.png"",""time"":2393.7999999523163},{""stimulus"":""blank"",""time"":2702.2000000476837},{""stimulus"":""https://ziweizhang0304.github.io/Stats_learning_trig/img/Stim/FN_013_g.png"",""time"":2729.0999999046326},{""stimulus"":""blank"",""time"":3043.2999999523163},{""stimulus"":""https://ziweizhang0304.github.io/Stats_learning_trig/img/Stim/FN_007_g.png"",""time"":3061.5999999046326},{""stimulus"":""blank"",""time"":3368.9000000953674},{""stimulus"":""https://ziweizhang0304.github.io/Stats_learning_trig/img/Stim/FN_025_g.png"",""time"":3401.0999999046326},{""stimulus"":""blank"",""time"":3712.5},{""stimulus"":""https://ziweizhang0304.github.io/Stats_learning_trig/img/Stim/FN_014_g.png"",""time"":3744.5},{""stimulus"":""blank"",""time"":4045.2000000476837},{""stimulus"":""https://ziweizhang0304.github.io/Stats_learning_trig/img/Stim/FN_017_g.png"",""time"":4081.2999999523163},{""stimulus"":""blank"",""time"":4385.299999952316}]","[]","NaN","https://ziweizhang0304.github.io/Stats_learning_trig/img/Stim/FN_021_g.png","post_prac","","","","","","","","","","","","",""
"","html-keyboard-response","8","59148","0.0-3.0-1.0-2.0","4981.099999904633","","","<p>Your reaction time for this trial was NaN ms.</p><p>Remember that you should only press the SPACEBAR when you see the shape presented at the beginning of the trial. </b> </p><p>Press enter to move on.</p>","13","","","","","","","","","","","","","","","","","",""
"","image-keyboard-response","9","60207","0.0-3.0-2.0-0.0","1058.7000000476837","","","https://ziweizhang0304.github.io/Stats_learning_trig/img/Stim/FN_003_g.png","13","","","","","","","","","","","","","","","","","",""
"","animation","10","64631","0.0-3.0-2.0-1.0","","","","","","[{""stimulus"":""https://ziweizhang0304.github.io/Stats_learning_trig/img/Stim/FN_013_g.png"",""time"":349.7999999523163},{""stimulus"":""blank"",""time"":660.3999998569489},{""stimulus"":""https://ziweizhang0304.github.io/Stats_learning_trig/img/Stim/FN_008_g.png"",""time"":690},{""stimulus"":""blank"",""time"":1003.7999999523163},{""stimulus"":""https://ziweizhang0304.github.io/Stats_learning_trig/img/Stim/FN_017_g.png"",""time"":1035},{""stimulus"":""blank"",""time"":1343},{""stimulus"":""https://ziweizhang0304.github.io/Stats_learning_trig/img/Stim/FN_023_g.png"",""time"":1373.3999998569489},{""stimulus"":""blank"",""time"":1682.0999999046326},{""stimulus"":""https://ziweizhang0304.github.io/Stats_learning_trig/img/Stim/FN_014_g.png"",""time"":1706.7999999523163},{""stimulus"":""blank"",""time"":2021},{""stimulus"":""https://ziweizhang0304.github.io/Stats_learning_trig/img/Stim/FN_009_g.png"",""time"":2042.0999999046326},{""stimulus"":""blank"",""time"":2350.2999999523163},{""stimulus"":""https://ziweizhang0304.github.io/Stats_learning_trig/img/Stim/FN_003_g.png"",""time"":2381.5},{""stimulus"":""blank"",""time"":2691.899999856949},{""stimulus"":""https://ziweizhang0304.github.io/Stats_learning_trig/img/Stim/FN_001_g.png"",""time"":2723.699999809265},{""stimulus"":""blank"",""time"":3029.7999999523163},{""stimulus"":""https://ziweizhang0304.github.io/Stats_learning_trig/img/Stim/FN_024_g.png"",""time"":3061},{""stimulus"":""blank"",""time"":3374.199999809265},{""stimulus"":""https://ziweizhang0304.github.io/Stats_learning_trig/img/Stim/FN_007_g.png"",""time"":3404.399999856949},{""stimulus"":""blank"",""time"":3714.5},{""stimulus"":""https://ziweizhang0304.github.io/Stats_learning_trig/img/Stim/FN_025_g.png"",""time"":3741.5999999046326},{""stimulus"":""blank"",""time"":4042.0999999046326},{""stimulus"":""https://ziweizhang0304.github.io/Stats_learning_trig/img/Stim/FN_004_g.png"",""time"":4088.5},{""stimulus"":""blank"",""time"":4400.799999952316}]","[{""key_press"":32,""rt"":2804.4000000953674,""stimulus"":""https://ziweizhang0304.github.io/Stats_learning_trig/img/Stim/FN_001_g.png""}]","422.90000009536743","https://ziweizhang0304.github.io/Stats_learning_trig/img/Stim/FN_003_g.png","post_prac","","","","","","","","","","","","",""
"","html-keyboard-response","11","74248","0.0-3.0-2.0-2.0","9616.299999952316","","","<p>Your reaction time for this trial was 422.9 ms.</p><p>Remember that you should only press the SPACEBAR when you see the shape presented at the beginning of the trial. </b> </p><p>Press enter to move on.</p>","13","","","","","","","","","","","","","","","","","",""
"","instructions","12","76271","0.0-4.0","2022.3999998569489","","[{""page_index"":0,""viewing_time"":2022.1999998092651}]","","","","","","","","","","","","","","","","","","","",""
"","image-keyboard-response","13","83574","0.0-5.0-0.0-0.0","7302.599999904633","","","https://ziweizhang0304.github.io/Stats_learning_trig/img/Stim/FN_001_g.png","13","","","","","","","","","","","","","","","","","",""
"","animation","14","87997","0.0-5.0-0.0-1.0","","","","","","[{""stimulus"":""https://ziweizhang0304.github.io/Stats_learning_trig/img/Stim/FN_023_g.png"",""time"":354.59999990463257},{""stimulus"":""blank"",""time"":660.7999999523163},{""stimulus"":""https://ziweizhang0304.github.io/Stats_learning_trig/img/Stim/FN_008_g.png"",""time"":689.8999998569489},{""stimulus"":""blank"",""time"":1004.0999999046326},{""stimulus"":""https://ziweizhang0304.github.io/Stats_learning_trig/img/Stim/FN_007_g.png"",""time"":1022.2999999523163},{""stimulus"":""blank"",""time"":1331},{""stimulus"":""https://ziweizhang0304.github.io/Stats_learning_trig/img/Stim/FN_004_g.png"",""time"":1362.3999998569489},{""stimulus"":""blank"",""time"":1673.5},{""stimulus"":""https://ziweizhang0304.github.io/Stats_learning_trig/img/Stim/FN_003_g.png"",""time"":1704.5999999046326},{""stimulus"":""blank"",""time"":2014.5},{""stimulus"":""https://ziweizhang0304.github.io/Stats_learning_trig/img/Stim/FN_001_g.png"",""time"":2045.5},{""stimulus"":""blank"",""time"":2357.2000000476837},{""stimulus"":""https://ziweizhang0304.github.io/Stats_learning_trig/img/Stim/FN_024_g.png"",""time"":2387.7000000476837},{""stimulus"":""blank"",""time"":2696.399999856949},{""stimulus"":""https://ziweizhang0304.github.io/Stats_learning_trig/img/Stim/FN_013_g.png"",""time"":2721.7000000476837},{""stimulus"":""blank"",""time"":3034},{""stimulus"":""https://ziweizhang0304.github.io/Stats_learning_trig/img/Stim/FN_025_g.png"",""time"":3061.399999856949},{""stimulus"":""blank"",""time"":3375.5999999046326},{""stimulus"":""https://ziweizhang0304.github.io/Stats_learning_trig/img/Stim/FN_009_g.png"",""time"":3406.5},{""stimulus"":""blank"",""time"":3721.5},{""stimulus"":""https://ziweizhang0304.github.io/Stats_learning_trig/img/Stim/FN_014_g.png"",""time"":3751.899999856949},{""stimulus"":""blank"",""time"":4063.399999856949},{""stimulus"":""https://ziweizhang0304.github.io/Stats_learning_trig/img/Stim/FN_017_g.png"",""time"":4089.7000000476837},{""stimulus"":""blank"",""time"":4391.299999952316}]","[{""key_press"":32,""rt"":2475.7000000476837,""stimulus"":""https://ziweizhang0304.github.io/Stats_learning_trig/img/Stim/FN_024_g.png""}]","430.2000000476837","https://ziweizhang0304.github.io/Stats_learning_trig/img/Stim/FN_001_g.png","post_TD","1","2045.5","2475.7000000476837","slow","6","2","595c69efd8bd8d000154dd23","","","","","",""
"","image-keyboard-response","15","90978","0.0-5.0-1.0-0.0","2979.5","","","https://ziweizhang0304.github.io/Stats_learning_trig/img/Stim/FN_016_g.png","13","","","","","","","","","","","","","","","","","",""
"","animation","16","95401","0.0-5.0-1.0-1.0","","","","","","[{""stimulus"":""https://ziweizhang0304.github.io/Stats_learning_trig/img/Stim/FN_013_g.png"",""time"":351},{""stimulus"":""blank"",""time"":660.3999998569489},{""stimulus"":""https://ziweizhang0304.github.io/Stats_learning_trig/img/Stim/FN_004_g.png"",""time"":685.7000000476837},{""stimulus"":""blank"",""time"":987.2000000476837},{""stimulus"":""https://ziweizhang0304.github.io/Stats_learning_trig/img/Stim/FN_017_g.png"",""time"":1021.2000000476837},{""stimulus"":""blank"",""time"":1328.5999999046326},{""stimulus"":""https://ziweizhang0304.github.io/Stats_learning_trig/img/Stim/FN_009_g.png"",""time"":1360.7999999523163},{""stimulus"":""blank"",""time"":1672.7999999523163},{""stimulus"":""https://ziweizhang0304.github.io/Stats_learning_trig/img/Stim/FN_019_g.png"",""time"":1702.3999998569489},{""stimulus"":""blank"",""time"":2012.8999998569489},{""stimulus"":""https://ziweizhang0304.github.io/Stats_learning_trig/img/Stim/FN_016_g.png"",""time"":2040.7999999523163},{""stimulus"":""blank"",""time"":2348},{""stimulus"":""https://ziweizhang0304.github.io/Stats_learning_trig/img/Stim/FN_021_g.png"",""time"":2382},{""stimulus"":""blank"",""time"":2689.7999999523163},{""stimulus"":""https://ziweizhang0304.github.io/Stats_learning_trig/img/Stim/FN_008_g.png"",""time"":2735.5999999046326},{""stimulus"":""blank"",""time"":3043.399999856949},{""stimulus"":""https://ziweizhang0304.github.io/Stats_learning_trig/img/Stim/FN_007_g.png"",""time"":3061.5},{""stimulus"":""blank"",""time"":3368},{""stimulus"":""https://ziweizhang0304.github.io/Stats_learning_trig/img/Stim/FN_025_g.png"",""time"":3414.2000000476837},{""stimulus"":""blank"",""time"":3724.899999856949},{""stimulus"":""https://ziweizhang0304.github.io/Stats_learning_trig/img/Stim/FN_014_g.png"",""time"":3752.5999999046326},{""stimulus"":""blank"",""time"":4064.7999999523163},{""stimulus"":""https://ziweizhang0304.github.io/Stats_learning_trig/img/Stim/FN_023_g.png"",""time"":4085.7000000476837},{""stimulus"":""blank"",""time"":4391.299999952316}]","[{""key_press"":32,""rt"":2522.600000143051,""stimulus"":""https://ziweizhang0304.github.io/Stats_learning_trig/img/Stim/FN_021_g.png""}]","481.80000019073486","https://ziweizhang0304.github.io/Stats_learning_trig/img/Stim/FN_016_g.png","post_TD","2","2040.7999999523163","2522.600000143051","fast","6","2","595c69efd8bd8d000154dd23","","","","","",""
"","image-keyboard-response","17","96417","0.0-5.0-2.0-0.0","1015.7999999523163","","","https://ziweizhang0304.github.io/Stats_learning_trig/img/Stim/FN_001_g.png","13","","","","","","","","","","","","","","","","","",""
"","animation","18","100844","0.0-5.0-2.0-1.0","","","","","","[{""stimulus"":""https://ziweizhang0304.github.io/Stats_learning_trig/img/Stim/FN_013_g.png"",""time"":345.39999985694885},{""stimulus"":""blank"",""time"":656.0999999046326},{""stimulus"":""https://ziweizhang0304.github.io/Stats_learning_trig/img/Stim/FN_008_g.png"",""time"":688.2999999523163},{""stimulus"":""blank"",""time"":1000.0999999046326},{""stimulus"":""https://ziweizhang0304.github.io/Stats_learning_trig/img/Stim/FN_017_g.png"",""time"":1022.0999999046326},{""stimulus"":""blank"",""time"":1327.1999998092651},{""stimulus"":""https://ziweizhang0304.github.io/Stats_learning_trig/img/Stim/FN_023_g.png"",""time"":1363.3999998569489},{""stimulus"":""blank"",""time"":1670.2999999523163},{""stimulus"":""https://ziweizhang0304.github.io/Stats_learning_trig/img/Stim/FN_014_g.png"",""time"":1701.2999999523163},{""stimulus"":""blank"",""time"":2012.0999999046326},{""stimulus"":""https://ziweizhang0304.github.io/Stats_learning_trig/img/Stim/FN_009_g.png"",""time"":2042.2999999523163},{""stimulus"":""blank"",""time"":2348.899999856949},{""stimulus"":""https://ziweizhang0304.github.io/Stats_learning_trig/img/Stim/FN_003_g.png"",""time"":2382.199999809265},{""stimulus"":""blank"",""time"":2689.7999999523163},{""stimulus"":""https://ziweizhang0304.github.io/Stats_learning_trig/img/Stim/FN_001_g.png"",""time"":2735.7999999523163},{""stimulus"":""blank"",""time"":3047},{""stimulus"":""https://ziweizhang0304.github.io/Stats_learning_trig/img/Stim/FN_024_g.png"",""time"":3063.0999999046326},{""stimulus"":""blank"",""time"":3371.399999856949},{""stimulus"":""https://ziweizhang0304.github.io/Stats_learning_trig/img/Stim/FN_007_g.png"",""time"":3400.5},{""stimulus"":""blank"",""time"":3712},{""stimulus"":""https://ziweizhang0304.github.io/Stats_learning_trig/img/Stim/FN_025_g.png"",""time"":3743.699999809265},{""stimulus"":""blank"",""time"":4051.5999999046326},{""stimulus"":""https://ziweizhang0304.github.io/Stats_learning_trig/img/Stim/FN_004_g.png"",""time"":4083.699999809265},{""stimulus"":""blank"",""time"":4394.899999856949}]","[{""key_press"":32,""rt"":3205.0999999046326,""stimulus"":""https://ziweizhang0304.github.io/Stats_learning_trig/img/Stim/FN_024_g.png""}]","469.2999999523163","https://ziweizhang0304.github.io/Stats_learning_trig/img/Stim/FN_001_g.png","post_TD","3","2735.7999999523163","3205.0999999046326","slow","8","2","595c69efd8bd8d000154dd23","","","","","",""
"","image-keyboard-response","19","101990","0.0-5.0-3.0-0.0","1145.2999999523163","","","https://ziweizhang0304.github.io/Stats_learning_trig/img/Stim/FN_021_g.png","13","","","","","","","","","","","","","","","","","",""
"","animation","20","106411","0.0-5.0-3.0-1.0","","","","","","[{""stimulus"":""https://ziweizhang0304.github.io/Stats_learning_trig/img/Stim/FN_023_g.png"",""time"":347.40000009536743},{""stimulus"":""blank"",""time"":660},{""stimulus"":""https://ziweizhang0304.github.io/Stats_learning_trig/img/Stim/FN_004_g.png"",""time"":691.0999999046326},{""stimulus"":""blank"",""time"":1001.0999999046326},{""stimulus"":""https://ziweizhang0304.github.io/Stats_learning_trig/img/Stim/FN_009_g.png"",""time"":1024.5},{""stimulus"":""blank"",""time"":1339},{""stimulus"":""https://ziweizhang0304.github.io/Stats_learning_trig/img/Stim/FN_019_g.png"",""time"":1361.9000000953674},{""stimulus"":""blank"",""time"":1667.9000000953674},{""stimulus"":""https://ziweizhang0304.github.io/Stats_learning_trig/img/Stim/FN_016_g.png"",""time"":1713.9000000953674},{""stimulus"":""blank"",""time"":2025},{""stimulus"":""https://ziweizhang0304.github.io/Stats_learning_trig/img/Stim/FN_021_g.png"",""time"":2041.0999999046326},{""stimulus"":""blank"",""time"":2353.0999999046326},{""stimulus"":""https://ziweizhang0304.github.io/Stats_learning_trig/img/Stim/FN_008_g.png"",""time"":2385.0999999046326},{""stimulus"":""blank"",""time"":2695.4000000953674},{""stimulus"":""https://ziweizhang0304.github.io/Stats_learning_trig/img/Stim/FN_013_g.png"",""time"":2724.4000000953674},{""stimulus"":""blank"",""time"":3038.2000000476837},{""stimulus"":""https://ziweizhang0304.github.io/Stats_learning_trig/img/Stim/FN_007_g.png"",""time"":3061.2999999523163},{""stimulus"":""blank"",""time"":3363.9000000953674},{""stimulus"":""https://ziweizhang0304.github.io/Stats_learning_trig/img/Stim/FN_025_g.png"",""time"":3410.5},{""stimulus"":""blank"",""time"":3720},{""stimulus"":""https://ziweizhang0304.github.io/Stats_learning_trig/img/Stim/FN_014_g.png"",""time"":3741.2000000476837},{""stimulus"":""blank"",""time"":4042.2999999523163},{""stimulus"":""https://ziweizhang0304.github.io/Stats_learning_trig/img/Stim/FN_017_g.png"",""time"":4081.4000000953674},{""stimulus"":""blank"",""time"":4383.799999952316}]","[{""key_press"":32,""rt"":2436.7000000476837,""stimulus"":""https://ziweizhang0304.github.io/Stats_learning_trig/img/Stim/FN_008_g.png""}]","395.60000014305115","https://ziweizhang0304.github.io/Stats_learning_trig/img/Stim/FN_021_g.png","post_TD","4","2041.0999999046326","2436.7000000476837","fast","6","3","595c69efd8bd8d000154dd23","","","","","",""
"","image-keyboard-response","21","107480","0.0-5.0-4.0-0.0","1068.2999999523163","","","https://ziweizhang0304.github.io/Stats_learning_trig/img/Stim/FN_003_g.png","13","","","","","","","","","","","","","","","","","",""
"","animation","22","111911","0.0-5.0-4.0-1.0","","","","","","[{""stimulus"":""https://ziweizhang0304.github.io/Stats_learning_trig/img/Stim/FN_007_g.png"",""time"":348.30000019073486},{""stimulus"":""blank"",""time"":657},{""stimulus"":""https://ziweizhang0304.github.io/Stats_learning_trig/img/Stim/FN_014_g.png"",""time"":684.4000000953674},{""stimulus"":""blank"",""time"":997.6000001430511},{""stimulus"":""https://ziweizhang0304.github.io/Stats_learning_trig/img/Stim/FN_017_g.png"",""time"":1020.7000000476837},{""stimulus"":""blank"",""time"":1335.1000001430511},{""stimulus"":""https://ziweizhang0304.github.io/Stats_learning_trig/img/Stim/FN_025_g.png"",""time"":1362.2000000476837},{""stimulus"":""blank"",""time"":1663.8000001907349},{""stimulus"":""https://ziweizhang0304.github.io/Stats_learning_trig/img/Stim/FN_013_g.png"",""time"":1701.1000001430511},{""stimulus"":""blank"",""time"":2006.4000000953674},{""stimulus"":""https://ziweizhang0304.github.io/Stats_learning_trig/img/Stim/FN_003_g.png"",""time"":2041.3000001907349},{""stimulus"":""blank"",""time"":2349.2000000476837},{""stimulus"":""https://ziweizhang0304.github.io/Stats_learning_trig/img/Stim/FN_001_g.png"",""time"":2384.2000000476837},{""stimulus"":""blank"",""time"":2690.2000000476837},{""stimulus"":""https://ziweizhang0304.github.io/Stats_learning_trig/img/Stim/FN_024_g.png"",""time"":2721.2000000476837},{""stimulus"":""blank"",""time"":3029.600000143051},{""stimulus"":""https://ziweizhang0304.github.io/Stats_learning_trig/img/Stim/FN_008_g.png"",""time"":3060.800000190735},{""stimulus"":""blank"",""time"":3373},{""stimulus"":""https://ziweizhang0304.github.io/Stats_learning_trig/img/Stim/FN_009_g.png"",""time"":3401.100000143051},{""stimulus"":""blank"",""time"":3715},{""stimulus"":""https://ziweizhang0304.github.io/Stats_learning_trig/img/Stim/FN_004_g.png"",""time"":3746.100000143051},{""stimulus"":""blank"",""time"":4060.9000000953674},{""stimulus"":""https://ziweizhang0304.github.io/Stats_learning_trig/img/Stim/FN_023_g.png"",""time"":4084.300000190735},{""stimulus"":""blank"",""time"":4400.100000143051}]","[{""key_press"":32,""rt"":2438.9000000953674,""stimulus"":""https://ziweizhang0304.github.io/Stats_learning_trig/img/Stim/FN_001_g.png""}]","397.59999990463257","https://ziweizhang0304.github.io/Stats_learning_trig/img/Stim/FN_003_g.png","post_TD","5","2041.3000001907349","2438.9000000953674","slow","6","1","595c69efd8bd8d000154dd23","","","","","",""
"","image-keyboard-response","23","112647","0.0-5.0-5.0-0.0","734.7999999523163","","","https://ziweizhang0304.github.io/Stats_learning_trig/img/Stim/FN_016_g.png","13","","","","","","","","","","","","","","","","","",""
"","animation","24","117073","0.0-5.0-5.0-1.0","","","","","","[{""stimulus"":""https://ziweizhang0304.github.io/Stats_learning_trig/img/Stim/FN_017_g.png"",""time"":351.39999985694885},{""stimulus"":""blank"",""time"":663.5999999046326},{""stimulus"":""https://ziweizhang0304.github.io/Stats_learning_trig/img/Stim/FN_014_g.png"",""time"":684.2999999523163},{""stimulus"":""blank"",""time"":990.5},{""stimulus"":""https://ziweizhang0304.github.io/Stats_learning_trig/img/Stim/FN_013_g.png"",""time"":1020.6999998092651},{""stimulus"":""blank"",""time"":1331.2999999523163},{""stimulus"":""https://ziweizhang0304.github.io/Stats_learning_trig/img/Stim/FN_023_g.png"",""time"":1361.2999999523163},{""stimulus"":""blank"",""time"":1672},{""stimulus"":""https://ziweizhang0304.github.io/Stats_learning_trig/img/Stim/FN_007_g.png"",""time"":1700.8999998569489},{""stimulus"":""blank"",""time"":2015.3999998569489},{""stimulus"":""https://ziweizhang0304.github.io/Stats_learning_trig/img/Stim/FN_019_g.png"",""time"":2046.6999998092651},{""stimulus"":""blank"",""time"":2353.199999809265},{""stimulus"":""https://ziweizhang0304.github.io/Stats_learning_trig/img/Stim/FN_016_g.png"",""time"":2384.2999999523163},{""stimulus"":""blank"",""time"":2694.899999856949},{""stimulus"":""https://ziweizhang0304.github.io/Stats_learning_trig/img/Stim/FN_021_g.png"",""time"":2726.7999999523163},{""stimulus"":""blank"",""time"":3038.7999999523163},{""stimulus"":""https://ziweizhang0304.github.io/Stats_learning_trig/img/Stim/FN_008_g.png"",""time"":3061.7999999523163},{""stimulus"":""blank"",""time"":3367.0999999046326},{""stimulus"":""https://ziweizhang0304.github.io/Stats_learning_trig/img/Stim/FN_025_g.png"",""time"":3400.699999809265},{""stimulus"":""blank"",""time"":3708.199999809265},{""stimulus"":""https://ziweizhang0304.github.io/Stats_learning_trig/img/Stim/FN_009_g.png"",""time"":3756.5},{""stimulus"":""blank"",""time"":4068.899999856949},{""stimulus"":""https://ziweizhang0304.github.io/Stats_learning_trig/img/Stim/FN_004_g.png"",""time"":4084.899999856949},{""stimulus"":""blank"",""time"":4395.099999904633}]","[{""key_press"":32,""rt"":2792.9000000953674,""stimulus"":""https://ziweizhang0304.github.io/Stats_learning_trig/img/Stim/FN_021_g.png""}]","408.60000014305115","https://ziweizhang0304.github.io/Stats_learning_trig/img/Stim/FN_016_g.png","post_TD","6","2384.2999999523163","2792.9000000953674","fast","7","2","595c69efd8bd8d000154dd23","","","","","",""
"","image-keyboard-response","25","118093","0.0-5.0-6.0-0.0","1018.5999999046326","","","https://ziweizhang0304.github.io/Stats_learning_trig/img/Stim/FN_024_g.png","13","","","","","","","","","","","","","","","","","",""
"","animation","26","122524","0.0-5.0-6.0-1.0","","","","","","[{""stimulus"":""https://ziweizhang0304.github.io/Stats_learning_trig/img/Stim/FN_023_g.png"",""time"":347.2000000476837},{""stimulus"":""blank"",""time"":654.5},{""stimulus"":""https://ziweizhang0304.github.io/Stats_learning_trig/img/Stim/FN_008_g.png"",""time"":685.2000000476837},{""stimulus"":""blank"",""time"":991.2999999523163},{""stimulus"":""https://ziweizhang0304.github.io/Stats_learning_trig/img/Stim/FN_014_g.png"",""time"":1021.0999999046326},{""stimulus"":""blank"",""time"":1329.5},{""stimulus"":""https://ziweizhang0304.github.io/Stats_learning_trig/img/Stim/FN_003_g.png"",""time"":1361.7000000476837},{""stimulus"":""blank"",""time"":1673.5999999046326},{""stimulus"":""https://ziweizhang0304.github.io/Stats_learning_trig/img/Stim/FN_001_g.png"",""time"":1704.5999999046326},{""stimulus"":""blank"",""time"":2014.2999999523163},{""stimulus"":""https://ziweizhang0304.github.io/Stats_learning_trig/img/Stim/FN_024_g.png"",""time"":2045.2000000476837},{""stimulus"":""blank"",""time"":2354},{""stimulus"":""https://ziweizhang0304.github.io/Stats_learning_trig/img/Stim/FN_013_g.png"",""time"":2385.7999999523163},{""stimulus"":""blank"",""time"":2697},{""stimulus"":""https://ziweizhang0304.github.io/Stats_learning_trig/img/Stim/FN_007_g.png"",""time"":2721.5},{""stimulus"":""blank"",""time"":3024.2999999523163},{""stimulus"":""https://ziweizhang0304.github.io/Stats_learning_trig/img/Stim/FN_025_g.png"",""time"":3061.4000000953674},{""stimulus"":""blank"",""time"":3365},{""stimulus"":""https://ziweizhang0304.github.io/Stats_learning_trig/img/Stim/FN_009_g.png"",""time"":3412.0999999046326},{""stimulus"":""blank"",""time"":3719.0999999046326},{""stimulus"":""https://ziweizhang0304.github.io/Stats_learning_trig/img/Stim/FN_017_g.png"",""time"":3749.4000000953674},{""stimulus"":""blank"",""time"":4057.7999999523163},{""stimulus"":""https://ziweizhang0304.github.io/Stats_learning_trig/img/Stim/FN_004_g.png"",""time"":4082.0999999046326},{""stimulus"":""blank"",""time"":4384.200000047684}]","[{""key_press"":32,""rt"":2426,""stimulus"":""https://ziweizhang0304.github.io/Stats_learning_trig/img/Stim/FN_013_g.png""}]","380.7999999523163","https://ziweizhang0304.github.io/Stats_learning_trig/img/Stim/FN_024_g.png","post_TD","7","2045.2000000476837","2426","slow","6","3","595c69efd8bd8d000154dd23","","","","","",""
"","image-keyboard-response","27","123261","0.0-5.0-7.0-0.0","736","","","https://ziweizhang0304.github.io/Stats_learning_trig/img/Stim/FN_003_g.png","13","","","","","","","","","","","","","","","","","",""
"","animation","28","127686","0.0-5.0-7.0-1.0","","","","","","[{""stimulus"":""https://ziweizhang0304.github.io/Stats_learning_trig/img/Stim/FN_023_g.png"",""time"":346.7999999523163},{""stimulus"":""blank"",""time"":657.8999998569489},{""stimulus"":""https://ziweizhang0304.github.io/Stats_learning_trig/img/Stim/FN_008_g.png"",""time"":681.8999998569489},{""stimulus"":""blank"",""time"":984.3999998569489},{""stimulus"":""https://ziweizhang0304.github.io/Stats_learning_trig/img/Stim/FN_014_g.png"",""time"":1031.2999999523163},{""stimulus"":""blank"",""time"":1342.7999999523163},{""stimulus"":""https://ziweizhang0304.github.io/Stats_learning_trig/img/Stim/FN_003_g.png"",""time"":1370},{""stimulus"":""blank"",""time"":1671},{""stimulus"":""https://ziweizhang0304.github.io/Stats_learning_trig/img/Stim/FN_001_g.png"",""time"":1702.0999999046326},{""stimulus"":""blank"",""time"":2006.5},{""stimulus"":""https://ziweizhang0304.github.io/Stats_learning_trig/img/Stim/FN_024_g.png"",""time"":2052.7999999523163},{""stimulus"":""blank"",""time"":2360.7000000476837},{""stimulus"":""https://ziweizhang0304.github.io/Stats_learning_trig/img/Stim/FN_013_g.png"",""time"":2381.7999999523163},{""stimulus"":""blank"",""time"":2687.7999999523163},{""stimulus"":""https://ziweizhang0304.github.io/Stats_learning_trig/img/Stim/FN_007_g.png"",""time"":2721.899999856949},{""stimulus"":""blank"",""time"":3028},{""stimulus"":""https://ziweizhang0304.github.io/Stats_learning_trig/img/Stim/FN_025_g.png"",""time"":3075},{""stimulus"":""blank"",""time"":3386.7000000476837},{""stimulus"":""https://ziweizhang0304.github.io/Stats_learning_trig/img/Stim/FN_009_g.png"",""time"":3402},{""stimulus"":""blank"",""time"":3708.899999856949},{""stimulus"":""https://ziweizhang0304.github.io/Stats_learning_trig/img/Stim/FN_017_g.png"",""time"":3755.399999856949},{""stimulus"":""blank"",""time"":4068.899999856949},{""stimulus"":""https://ziweizhang0304.github.io/Stats_learning_trig/img/Stim/FN_004_g.png"",""time"":4084},{""stimulus"":""blank"",""time"":4393.399999856949}]","[{""key_press"":32,""rt"":1755.7000000476837,""stimulus"":""https://ziweizhang0304.github.io/Stats_learning_trig/img/Stim/FN_001_g.png""}]","385.7000000476837","https://ziweizhang0304.github.io/Stats_learning_trig/img/Stim/FN_003_g.png","post_TD","8","1370","1755.7000000476837","slow","4","1","595c69efd8bd8d000154dd23","","","","","",""
"","image-keyboard-response","29","128320","0.0-5.0-8.0-0.0","633.0999999046326","","","https://ziweizhang0304.github.io/Stats_learning_trig/img/Stim/FN_021_g.png","13","","","","","","","","","","","","","","","","","",""
"","animation","30","132740","0.0-5.0-8.0-1.0","","","","","","[{""stimulus"":""https://ziweizhang0304.github.io/Stats_learning_trig/img/Stim/FN_014_g.png"",""time"":343.39999985694885},{""stimulus"":""blank"",""time"":652.1999998092651},{""stimulus"":""https://ziweizhang0304.github.io/Stats_learning_trig/img/Stim/FN_017_g.png"",""time"":681.1999998092651},{""stimulus"":""blank"",""time"":994.5},{""stimulus"":""https://ziweizhang0304.github.io/Stats_learning_trig/img/Stim/FN_007_g.png"",""time"":1025.5999999046326},{""stimulus"":""blank"",""time"":1333.7999999523163},{""stimulus"":""https://ziweizhang0304.github.io/Stats_learning_trig/img/Stim/FN_025_g.png"",""time"":1361.1999998092651},{""stimulus"":""blank"",""time"":1662.5999999046326},{""stimulus"":""https://ziweizhang0304.github.io/Stats_learning_trig/img/Stim/FN_009_g.png"",""time"":1700.7999999523163},{""stimulus"":""blank"",""time"":2006},{""stimulus"":""https://ziweizhang0304.github.io/Stats_learning_trig/img/Stim/FN_013_g.png"",""time"":2041.0999999046326},{""stimulus"":""blank"",""time"":2345},{""stimulus"":""https://ziweizhang0304.github.io/Stats_learning_trig/img/Stim/FN_019_g.png"",""time"":2381.0999999046326},{""stimulus"":""blank"",""time"":2689.199999809265},{""stimulus"":""https://ziweizhang0304.github.io/Stats_learning_trig/img/Stim/FN_016_g.png"",""time"":2736.2999999523163},{""stimulus"":""blank"",""time"":3043.899999856949},{""stimulus"":""https://ziweizhang0304.github.io/Stats_learning_trig/img/Stim/FN_021_g.png"",""time"":3075.0999999046326},{""stimulus"":""blank"",""time"":3382.199999809265},{""stimulus"":""https://ziweizhang0304.github.io/Stats_learning_trig/img/Stim/FN_008_g.png"",""time"":3411.199999809265},{""stimulus"":""blank"",""time"":3711.2999999523163},{""stimulus"":""https://ziweizhang0304.github.io/Stats_learning_trig/img/Stim/FN_004_g.png"",""time"":3743.2999999523163},{""stimulus"":""blank"",""time"":4053.0999999046326},{""stimulus"":""https://ziweizhang0304.github.io/Stats_learning_trig/img/Stim/FN_023_g.png"",""time"":4081.0999999046326},{""stimulus"":""blank"",""time"":4395.699999809265}]","[{""key_press"":32,""rt"":3466.7000000476837,""stimulus"":""https://ziweizhang0304.github.io/Stats_learning_trig/img/Stim/FN_008_g.png""}]","391.60000014305115","https://ziweizhang0304.github.io/Stats_learning_trig/img/Stim/FN_021_g.png","post_TD","9","3075.0999999046326","3466.7000000476837","fast","9","3","595c69efd8bd8d000154dd23","","","","","",""
"","image-keyboard-response","31","133770","0.0-5.0-9.0-0.0","1028.2999999523163","","","https://ziweizhang0304.github.io/Stats_learning_trig/img/Stim/FN_016_g.png","13","","","","","","","","","","","","","","","","","",""
"","animation","32","138197","0.0-5.0-9.0-1.0","","","","","","[{""stimulus"":""https://ziweizhang0304.github.io/Stats_learning_trig/img/Stim/FN_023_g.png"",""time"":349.40000009536743},{""stimulus"":""blank"",""time"":659.7000000476837},{""stimulus"":""https://ziweizhang0304.github.io/Stats_learning_trig/img/Stim/FN_004_g.png"",""time"":689.7999999523163},{""stimulus"":""blank"",""time"":997.7000000476837},{""stimulus"":""https://ziweizhang0304.github.io/Stats_learning_trig/img/Stim/FN_009_g.png"",""time"":1027.7000000476837},{""stimulus"":""blank"",""time"":1339.0999999046326},{""stimulus"":""https://ziweizhang0304.github.io/Stats_learning_trig/img/Stim/FN_019_g.png"",""time"":1361},{""stimulus"":""blank"",""time"":1666.5999999046326},{""stimulus"":""https://ziweizhang0304.github.io/Stats_learning_trig/img/Stim/FN_016_g.png"",""time"":1714.5999999046326},{""stimulus"":""blank"",""time"":2020.7999999523163},{""stimulus"":""https://ziweizhang0304.github.io/Stats_learning_trig/img/Stim/FN_021_g.png"",""time"":2041.9000000953674},{""stimulus"":""blank"",""time"":2347.9000000953674},{""stimulus"":""https://ziweizhang0304.github.io/Stats_learning_trig/img/Stim/FN_008_g.png"",""time"":2395.2999999523163},{""stimulus"":""blank"",""time"":2705.2999999523163},{""stimulus"":""https://ziweizhang0304.github.io/Stats_learning_trig/img/Stim/FN_013_g.png"",""time"":2720.5999999046326},{""stimulus"":""blank"",""time"":3031.0999999046326},{""stimulus"":""https://ziweizhang0304.github.io/Stats_learning_trig/img/Stim/FN_007_g.png"",""time"":3061.2999999523163},{""stimulus"":""blank"",""time"":3369.7000000476837},{""stimulus"":""https://ziweizhang0304.github.io/Stats_learning_trig/img/Stim/FN_025_g.png"",""time"":3400.7999999523163},{""stimulus"":""blank"",""time"":3712.9000000953674},{""stimulus"":""https://ziweizhang0304.github.io/Stats_learning_trig/img/Stim/FN_014_g.png"",""time"":3742.2000000476837},{""stimulus"":""blank"",""time"":4055},{""stimulus"":""https://ziweizhang0304.github.io/Stats_learning_trig/img/Stim/FN_017_g.png"",""time"":4086.2000000476837},{""stimulus"":""blank"",""time"":4395.799999952316}]","[{""key_press"":32,""rt"":2106.5999999046326,""stimulus"":""https://ziweizhang0304.github.io/Stats_learning_trig/img/Stim/FN_021_g.png""}]","392","https://ziweizhang0304.github.io/Stats_learning_trig/img/Stim/FN_016_g.png","post_TD","10","1714.5999999046326","2106.5999999046326","fast","5","2","595c69efd8bd8d000154dd23","","","","","",""
"","image-keyboard-response","33","138953","0.0-5.0-10.0-0.0","754.7000000476837","","","https://ziweizhang0304.github.io/Stats_learning_trig/img/Stim/FN_019_g.png","13","","","","","","","","","","","","","","","","","",""
"","animation","34","143381","0.0-5.0-10.0-1.0","","","","","","[{""stimulus"":""https://ziweizhang0304.github.io/Stats_learning_trig/img/Stim/FN_017_g.png"",""time"":354.2000000476837},{""stimulus"":""blank"",""time"":665.7000000476837},{""stimulus"":""https://ziweizhang0304.github.io/Stats_learning_trig/img/Stim/FN_014_g.png"",""time"":681.9000000953674},{""stimulus"":""blank"",""time"":992.9000000953674},{""stimulus"":""https://ziweizhang0304.github.io/Stats_learning_trig/img/Stim/FN_013_g.png"",""time"":1020.9000000953674},{""stimulus"":""blank"",""time"":1329},{""stimulus"":""https://ziweizhang0304.github.io/Stats_learning_trig/img/Stim/FN_023_g.png"",""time"":1360.9000000953674},{""stimulus"":""blank"",""time"":1670},{""stimulus"":""https://ziweizhang0304.github.io/Stats_learning_trig/img/Stim/FN_007_g.png"",""time"":1715.2000000476837},{""stimulus"":""blank"",""time"":2029.9000000953674},{""stimulus"":""https://ziweizhang0304.github.io/Stats_learning_trig/img/Stim/FN_019_g.png"",""time"":2046.0999999046326},{""stimulus"":""blank"",""time"":2359.2000000476837},{""stimulus"":""https://ziweizhang0304.github.io/Stats_learning_trig/img/Stim/FN_016_g.png"",""time"":2390.2999999523163},{""stimulus"":""blank"",""time"":2704.5999999046326},{""stimulus"":""https://ziweizhang0304.github.io/Stats_learning_trig/img/Stim/FN_021_g.png"",""time"":2727.5},{""stimulus"":""blank"",""time"":3032.2000000476837},{""stimulus"":""https://ziweizhang0304.github.io/Stats_learning_trig/img/Stim/FN_008_g.png"",""time"":3060.7000000476837},{""stimulus"":""blank"",""time"":3374.5999999046326},{""stimulus"":""https://ziweizhang0304.github.io/Stats_learning_trig/img/Stim/FN_025_g.png"",""time"":3401.5999999046326},{""stimulus"":""blank"",""time"":3717.2000000476837},{""stimulus"":""https://ziweizhang0304.github.io/Stats_learning_trig/img/Stim/FN_009_g.png"",""time"":3740.5999999046326},{""stimulus"":""blank"",""time"":4043.5},{""stimulus"":""https://ziweizhang0304.github.io/Stats_learning_trig/img/Stim/FN_004_g.png"",""time"":4089.5999999046326},{""stimulus"":""blank"",""time"":4404.299999952316}]","[{""key_press"":32,""rt"":2396.9000000953674,""stimulus"":""https://ziweizhang0304.github.io/Stats_learning_trig/img/Stim/FN_016_g.png""}]","350.80000019073486","https://ziweizhang0304.github.io/Stats_learning_trig/img/Stim/FN_019_g.png","post_TD","11","2046.0999999046326","2396.9000000953674","fast","6","1","595c69efd8bd8d000154dd23","","","","","",""
"","image-keyboard-response","35","144205","0.0-5.0-11.0-0.0","823.3999998569489","","","https://ziweizhang0304.github.io/Stats_learning_trig/img/Stim/FN_024_g.png","13","","","","","","","","","","","","","","","","","",""
"","animation","36","148639","0.0-5.0-11.0-1.0","","","","","","[{""stimulus"":""https://ziweizhang0304.github.io/Stats_learning_trig/img/Stim/FN_013_g.png"",""time"":346.39999985694885},{""stimulus"":""blank"",""time"":657.1999998092651},{""stimulus"":""https://ziweizhang0304.github.io/Stats_learning_trig/img/Stim/FN_008_g.png"",""time"":689.1999998092651},{""stimulus"":""blank"",""time"":996.6999998092651},{""stimulus"":""https://ziweizhang0304.github.io/Stats_learning_trig/img/Stim/FN_017_g.png"",""time"":1025.8999998569489},{""stimulus"":""blank"",""time"":1340},{""stimulus"":""https://ziweizhang0304.github.io/Stats_learning_trig/img/Stim/FN_023_g.png"",""time"":1371},{""stimulus"":""blank"",""time"":1679.8999998569489},{""stimulus"":""https://ziweizhang0304.github.io/Stats_learning_trig/img/Stim/FN_014_g.png"",""time"":1709},{""stimulus"":""blank"",""time"":2024.6999998092651},{""stimulus"":""https://ziweizhang0304.github.io/Stats_learning_trig/img/Stim/FN_009_g.png"",""time"":2040.7999999523163},{""stimulus"":""blank"",""time"":2352.7999999523163},{""stimulus"":""https://ziweizhang0304.github.io/Stats_learning_trig/img/Stim/FN_003_g.png"",""time"":2383.199999809265},{""stimulus"":""blank"",""time"":2693.2999999523163},{""stimulus"":""https://ziweizhang0304.github.io/Stats_learning_trig/img/Stim/FN_001_g.png"",""time"":2724.5},{""stimulus"":""blank"",""time"":3028.5999999046326},{""stimulus"":""https://ziweizhang0304.github.io/Stats_learning_trig/img/Stim/FN_024_g.png"",""time"":3061.5999999046326},{""stimulus"":""blank"",""time"":3373.0999999046326},{""stimulus"":""https://ziweizhang0304.github.io/Stats_learning_trig/img/Stim/FN_007_g.png"",""time"":3401.399999856949},{""stimulus"":""blank"",""time"":3715.199999809265},{""stimulus"":""https://ziweizhang0304.github.io/Stats_learning_trig/img/Stim/FN_025_g.png"",""time"":3741.2999999523163},{""stimulus"":""blank"",""time"":4045.2999999523163},{""stimulus"":""https://ziweizhang0304.github.io/Stats_learning_trig/img/Stim/FN_004_g.png"",""time"":4081.399999856949},{""stimulus"":""blank"",""time"":4386.799999952316}]","[{""key_press"":32,""rt"":3434.5999999046326,""stimulus"":""https://ziweizhang0304.github.io/Stats_learning_trig/img/Stim/FN_007_g.png""}]","373","https://ziweizhang0304.github.io/Stats_learning_trig/img/Stim/FN_024_g.png","post_TD","12","3061.5999999046326","3434.5999999046326","slow","9","3","595c69efd8bd8d000154dd23","","","","","",""
"","image-keyboard-response","37","149536","0.0-5.0-12.0-0.0","896.4000000953674","","","https://ziweizhang0304.github.io/Stats_learning_trig/img/Stim/FN_003_g.png","13","","","","","","","","","","","","","","","","","",""
"","animation","38","153967","0.0-5.0-12.0-1.0","","","","","","[{""stimulus"":""https://ziweizhang0304.github.io/Stats_learning_trig/img/Stim/FN_023_g.png"",""time"":346.59999990463257},{""stimulus"":""blank"",""time"":655.7000000476837},{""stimulus"":""https://ziweizhang0304.github.io/Stats_learning_trig/img/Stim/FN_008_g.png"",""time"":681.0999999046326},{""stimulus"":""blank"",""time"":983.7000000476837},{""stimulus"":""https://ziweizhang0304.github.io/Stats_learning_trig/img/Stim/FN_007_g.png"",""time"":1021.7000000476837},{""stimulus"":""blank"",""time"":1325.4000000953674},{""stimulus"":""https://ziweizhang0304.github.io/Stats_learning_trig/img/Stim/FN_004_g.png"",""time"":1361.2000000476837},{""stimulus"":""blank"",""time"":1667.2000000476837},{""stimulus"":""https://ziweizhang0304.github.io/Stats_learning_trig/img/Stim/FN_003_g.png"",""time"":1714.0999999046326},{""stimulus"":""blank"",""time"":2025.5999999046326},{""stimulus"":""https://ziweizhang0304.github.io/Stats_learning_trig/img/Stim/FN_001_g.png"",""time"":2055.7000000476837},{""stimulus"":""blank"",""time"":2368.7999999523163},{""stimulus"":""https://ziweizhang0304.github.io/Stats_learning_trig/img/Stim/FN_024_g.png"",""time"":2385},{""stimulus"":""blank"",""time"":2696.2000000476837},{""stimulus"":""https://ziweizhang0304.github.io/Stats_learning_trig/img/Stim/FN_013_g.png"",""time"":2721.4000000953674},{""stimulus"":""blank"",""time"":3036.9000000953674},{""stimulus"":""https://ziweizhang0304.github.io/Stats_learning_trig/img/Stim/FN_025_g.png"",""time"":3061.2000000476837},{""stimulus"":""blank"",""time"":3375.5},{""stimulus"":""https://ziweizhang0304.github.io/Stats_learning_trig/img/Stim/FN_009_g.png"",""time"":3407.5},{""stimulus"":""blank"",""time"":3715.7999999523163},{""stimulus"":""https://ziweizhang0304.github.io/Stats_learning_trig/img/Stim/FN_014_g.png"",""time"":3744.2999999523163},{""stimulus"":""blank"",""time"":4057.2000000476837},{""stimulus"":""https://ziweizhang0304.github.io/Stats_learning_trig/img/Stim/FN_017_g.png"",""time"":4081.4000000953674},{""stimulus"":""blank"",""time"":4383.400000095367}]","[{""key_press"":32,""rt"":2092.7000000476837,""stimulus"":""https://ziweizhang0304.github.io/Stats_learning_trig/img/Stim/FN_001_g.png""}]","378.60000014305115","https://ziweizhang0304.github.io/Stats_learning_trig/img/Stim/FN_003_g.png","post_TD","13","1714.0999999046326","2092.7000000476837","slow","5","1","595c69efd8bd8d000154dd23","","","","","",""
"","image-keyboard-response","39","154600","0.0-5.0-13.0-0.0","632","","","https://ziweizhang0304.github.io/Stats_learning_trig/img/Stim/FN_001_g.png","13","","","","","","","","","","","","","","","","","",""
"","animation","40","159021","0.0-5.0-13.0-1.0","","","","","","[{""stimulus"":""https://ziweizhang0304.github.io/Stats_learning_trig/img/Stim/FN_007_g.png"",""time"":349.69999980926514},{""stimulus"":""blank"",""time"":659.1999998092651},{""stimulus"":""https://ziweizhang0304.github.io/Stats_learning_trig/img/Stim/FN_014_g.png"",""time"":680.5999999046326},{""stimulus"":""blank"",""time"":985.6999998092651},{""stimulus"":""https://ziweizhang0304.github.io/Stats_learning_trig/img/Stim/FN_017_g.png"",""time"":1021.8999998569489},{""stimulus"":""blank"",""time"":1331.0999999046326},{""stimulus"":""https://ziweizhang0304.github.io/Stats_learning_trig/img/Stim/FN_025_g.png"",""time"":1360.3999998569489},{""stimulus"":""blank"",""time"":1672.5},{""stimulus"":""https://ziweizhang0304.github.io/Stats_learning_trig/img/Stim/FN_013_g.png"",""time"":1703},{""stimulus"":""blank"",""time"":2012.5},{""stimulus"":""https://ziweizhang0304.github.io/Stats_learning_trig/img/Stim/FN_003_g.png"",""time"":2043.5},{""stimulus"":""blank"",""time"":2351.699999809265},{""stimulus"":""https://ziweizhang0304.github.io/Stats_learning_trig/img/Stim/FN_001_g.png"",""time"":2380.5},{""stimulus"":""blank"",""time"":2693.5999999046326},{""stimulus"":""https://ziweizhang0304.github.io/Stats_learning_trig/img/Stim/FN_024_g.png"",""time"":2721.699999809265},{""stimulus"":""blank"",""time"":3037.699999809265},{""stimulus"":""https://ziweizhang0304.github.io/Stats_learning_trig/img/Stim/FN_008_g.png"",""time"":3063.899999856949},{""stimulus"":""blank"",""time"":3379.699999809265},{""stimulus"":""https://ziweizhang0304.github.io/Stats_learning_trig/img/Stim/FN_009_g.png"",""time"":3410},{""stimulus"":""blank"",""time"":3722.5},{""stimulus"":""https://ziweizhang0304.github.io/Stats_learning_trig/img/Stim/FN_004_g.png"",""time"":3741.699999809265},{""stimulus"":""blank"",""time"":4045.5999999046326},{""stimulus"":""https://ziweizhang0304.github.io/Stats_learning_trig/img/Stim/FN_023_g.png"",""time"":4080.5},{""stimulus"":""blank"",""time"":4385}]","[{""key_press"":32,""rt"":2765.699999809265,""stimulus"":""https://ziweizhang0304.github.io/Stats_learning_trig/img/Stim/FN_024_g.png""}]","385.19999980926514","https://ziweizhang0304.github.io/Stats_learning_trig/img/Stim/FN_001_g.png","post_TD","14","2380.5","2765.699999809265","slow","7","2","595c69efd8bd8d000154dd23","","","","","",""
"","image-keyboard-response","41","160152","0.0-5.0-14.0-0.0","1130.5999999046326","","","https://ziweizhang0304.github.io/Stats_learning_trig/img/Stim/FN_001_g.png","13","","","","","","","","","","","","","","","","","",""
"","animation","42","164576","0.0-5.0-14.0-1.0","","","","","","[{""stimulus"":""https://ziweizhang0304.github.io/Stats_learning_trig/img/Stim/FN_023_g.png"",""time"":342.7999999523163},{""stimulus"":""blank"",""time"":652.7999999523163},{""stimulus"":""https://ziweizhang0304.github.io/Stats_learning_trig/img/Stim/FN_008_g.png"",""time"":683.7999999523163},{""stimulus"":""blank"",""time"":996.5},{""stimulus"":""https://ziweizhang0304.github.io/Stats_learning_trig/img/Stim/FN_014_g.png"",""time"":1021.5},{""stimulus"":""blank"",""time"":1336.1999998092651},{""stimulus"":""https://ziweizhang0304.github.io/Stats_learning_trig/img/Stim/FN_003_g.png"",""time"":1361.1999998092651},{""stimulus"":""blank"",""time"":1675.2999999523163},{""stimulus"":""https://ziweizhang0304.github.io/Stats_learning_trig/img/Stim/FN_001_g.png"",""time"":1706.2999999523163},{""stimulus"":""blank"",""time"":2012.3999998569489},{""stimulus"":""https://ziweizhang0304.github.io/Stats_learning_trig/img/Stim/FN_024_g.png"",""time"":2043.7999999523163},{""stimulus"":""blank"",""time"":2358.399999856949},{""stimulus"":""https://ziweizhang0304.github.io/Stats_learning_trig/img/Stim/FN_013_g.png"",""time"":2390.399999856949},{""stimulus"":""blank"",""time"":2702.0999999046326},{""stimulus"":""https://ziweizhang0304.github.io/Stats_learning_trig/img/Stim/FN_007_g.png"",""time"":2728},{""stimulus"":""blank"",""time"":3044},{""stimulus"":""https://ziweizhang0304.github.io/Stats_learning_trig/img/Stim/FN_025_g.png"",""time"":3075.0999999046326},{""stimulus"":""blank"",""time"":3381.7999999523163},{""stimulus"":""https://ziweizhang0304.github.io/Stats_learning_trig/img/Stim/FN_009_g.png"",""time"":3411.399999856949},{""stimulus"":""blank"",""time"":3721.199999809265},{""stimulus"":""https://ziweizhang0304.github.io/Stats_learning_trig/img/Stim/FN_017_g.png"",""time"":3741.2999999523163},{""stimulus"":""blank"",""time"":4048.899999856949},{""stimulus"":""https://ziweizhang0304.github.io/Stats_learning_trig/img/Stim/FN_004_g.png"",""time"":4095.199999809265},{""stimulus"":""blank"",""time"":4406.799999952316}]","[{""key_press"":32,""rt"":2116.5,""stimulus"":""https://ziweizhang0304.github.io/Stats_learning_trig/img/Stim/FN_024_g.png""}]","410.2000000476837","https://ziweizhang0304.github.io/Stats_learning_trig/img/Stim/FN_001_g.png","post_TD","15","1706.2999999523163","2116.5","slow","5","2","595c69efd8bd8d000154dd23","","","","","",""
"","image-keyboard-response","43","165203","0.0-5.0-15.0-0.0","627.2999999523163","","","https://ziweizhang0304.github.io/Stats_learning_trig/img/Stim/FN_016_g.png","13","","","","","","","","","","","","","","","","","",""
"","animation","44","169631","0.0-5.0-15.0-1.0","","","","","","[{""stimulus"":""https://ziweizhang0304.github.io/Stats_learning_trig/img/Stim/FN_014_g.png"",""time"":353.2000000476837},{""stimulus"":""blank"",""time"":664},{""stimulus"":""https://ziweizhang0304.github.io/Stats_learning_trig/img/Stim/FN_017_g.png"",""time"":693.4000000953674},{""stimulus"":""blank"",""time"":997.9000000953674},{""stimulus"":""https://ziweizhang0304.github.io/Stats_learning_trig/img/Stim/FN_007_g.png"",""time"":1026.7000000476837},{""stimulus"":""blank"",""time"":1336.9000000953674},{""stimulus"":""https://ziweizhang0304.github.io/Stats_learning_trig/img/Stim/FN_025_g.png"",""time"":1360.9000000953674},{""stimulus"":""blank"",""time"":1663.4000000953674},{""stimulus"":""https://ziweizhang0304.github.io/Stats_learning_trig/img/Stim/FN_009_g.png"",""time"":1710.1000001430511},{""stimulus"":""blank"",""time"":2015},{""stimulus"":""https://ziweizhang0304.github.io/Stats_learning_trig/img/Stim/FN_013_g.png"",""time"":2041.5},{""stimulus"":""blank"",""time"":2356.800000190735},{""stimulus"":""https://ziweizhang0304.github.io/Stats_learning_trig/img/Stim/FN_019_g.png"",""time"":2388.2000000476837},{""stimulus"":""blank"",""time"":2700.5},{""stimulus"":""https://ziweizhang0304.github.io/Stats_learning_trig/img/Stim/FN_016_g.png"",""time"":2726.9000000953674},{""stimulus"":""blank"",""time"":3042.800000190735},{""stimulus"":""https://ziweizhang0304.github.io/Stats_learning_trig/img/Stim/FN_021_g.png"",""time"":3074},{""stimulus"":""blank"",""time"":3382.600000143051},{""stimulus"":""https://ziweizhang0304.github.io/Stats_learning_trig/img/Stim/FN_008_g.png"",""time"":3410.2000000476837},{""stimulus"":""blank"",""time"":3724.100000143051},{""stimulus"":""https://ziweizhang0304.github.io/Stats_learning_trig/img/Stim/FN_004_g.png"",""time"":3741.300000190735},{""stimulus"":""blank"",""time"":4052.600000143051},{""stimulus"":""https://ziweizhang0304.github.io/Stats_learning_trig/img/Stim/FN_023_g.png"",""time"":4081.600000143051},{""stimulus"":""blank"",""time"":4396.700000047684}]","[{""key_press"":32,""rt"":3159.7999999523163,""stimulus"":""https://ziweizhang0304.github.io/Stats_learning_trig/img/Stim/FN_021_g.png""}]","432.89999985694885","https://ziweizhang0304.github.io/Stats_learning_trig/img/Stim/FN_016_g.png","post_TD","16","2726.9000000953674","3159.7999999523163","fast","8","2","595c69efd8bd8d000154dd23","","","","","",""
"","image-keyboard-response","45","170736","0.0-5.0-16.0-0.0","1104.2999999523163","","","https://ziweizhang0304.github.io/Stats_learning_trig/img/Stim/FN_021_g.png","13","","","","","","","","","","","","","","","","","",""
"","animation","46","175168","0.0-5.0-16.0-1.0","","","","","","[{""stimulus"":""https://ziweizhang0304.github.io/Stats_learning_trig/img/Stim/FN_013_g.png"",""time"":341.2000000476837},{""stimulus"":""blank"",""time"":652.1000001430511},{""stimulus"":""https://ziweizhang0304.github.io/Stats_learning_trig/img/Stim/FN_004_g.png"",""time"":683.4000000953674},{""stimulus"":""blank"",""time"":991.9000000953674},{""stimulus"":""https://ziweizhang0304.github.io/Stats_learning_trig/img/Stim/FN_017_g.png"",""time"":1022.1000001430511},{""stimulus"":""blank"",""time"":1334.6000001430511},{""stimulus"":""https://ziweizhang0304.github.io/Stats_learning_trig/img/Stim/FN_009_g.png"",""time"":1361.6000001430511},{""stimulus"":""blank"",""time"":1674},{""stimulus"":""https://ziweizhang0304.github.io/Stats_learning_trig/img/Stim/FN_019_g.png"",""time"":1705.3000001907349},{""stimulus"":""blank"",""time"":2015.3000001907349},{""stimulus"":""https://ziweizhang0304.github.io/Stats_learning_trig/img/Stim/FN_016_g.png"",""time"":2044.9000000953674},{""stimulus"":""blank"",""time"":2356},{""stimulus"":""https://ziweizhang0304.github.io/Stats_learning_trig/img/Stim/FN_021_g.png"",""time"":2382.100000143051},{""stimulus"":""blank"",""time"":2695.600000143051},{""stimulus"":""https://ziweizhang0304.github.io/Stats_learning_trig/img/Stim/FN_008_g.png"",""time"":2721.800000190735},{""stimulus"":""blank"",""time"":3023.4000000953674},{""stimulus"":""https://ziweizhang0304.github.io/Stats_learning_trig/img/Stim/FN_007_g.png"",""time"":3070.5},{""stimulus"":""blank"",""time"":3380},{""stimulus"":""https://ziweizhang0304.github.io/Stats_learning_trig/img/Stim/FN_025_g.png"",""time"":3401.300000190735},{""stimulus"":""blank"",""time"":3702.100000143051},{""stimulus"":""https://ziweizhang0304.github.io/Stats_learning_trig/img/Stim/FN_014_g.png"",""time"":3741.4000000953674},{""stimulus"":""blank"",""time"":4043.100000143051},{""stimulus"":""https://ziweizhang0304.github.io/Stats_learning_trig/img/Stim/FN_023_g.png"",""time"":4081.7000000476837},{""stimulus"":""blank"",""time"":4385.600000143051}]","[{""key_press"":32,""rt"":2792.5,""stimulus"":""https://ziweizhang0304.github.io/Stats_learning_trig/img/Stim/FN_008_g.png""}]","410.39999985694885","https://ziweizhang0304.github.io/Stats_learning_trig/img/Stim/FN_021_g.png","post_TD","17","2382.100000143051","2792.5","fast","7","3","595c69efd8bd8d000154dd23","","","","","",""
"","image-keyboard-response","47","175741","0.0-5.0-17.0-0.0","572.7999999523163","","","https://ziweizhang0304.github.io/Stats_learning_trig/img/Stim/FN_019_g.png","13","","","","","","","","","","","","","","","","","",""
"","animation","48","180164","0.0-5.0-17.0-1.0","","","","","","[{""stimulus"":""https://ziweizhang0304.github.io/Stats_learning_trig/img/Stim/FN_013_g.png"",""time"":345.60000014305115},{""stimulus"":""blank"",""time"":658.6000001430511},{""stimulus"":""https://ziweizhang0304.github.io/Stats_learning_trig/img/Stim/FN_004_g.png"",""time"":689.2000000476837},{""stimulus"":""blank"",""time"":998},{""stimulus"":""https://ziweizhang0304.github.io/Stats_learning_trig/img/Stim/FN_017_g.png"",""time"":1022.4000000953674},{""stimulus"":""blank"",""time"":1337.4000000953674},{""stimulus"":""https://ziweizhang0304.github.io/Stats_learning_trig/img/Stim/FN_009_g.png"",""time"":1361.3000001907349},{""stimulus"":""blank"",""time"":1665.3000001907349},{""stimulus"":""https://ziweizhang0304.github.io/Stats_learning_trig/img/Stim/FN_019_g.png"",""time"":1711.5},{""stimulus"":""blank"",""time"":2023.4000000953674},{""stimulus"":""https://ziweizhang0304.github.io/Stats_learning_trig/img/Stim/FN_016_g.png"",""time"":2055.100000143051},{""stimulus"":""blank"",""time"":2364.300000190735},{""stimulus"":""https://ziweizhang0304.github.io/Stats_learning_trig/img/Stim/FN_021_g.png"",""time"":2381.600000143051},{""stimulus"":""blank"",""time"":2688.4000000953674},{""stimulus"":""https://ziweizhang0304.github.io/Stats_learning_trig/img/Stim/FN_008_g.png"",""time"":2735.4000000953674},{""stimulus"":""blank"",""time"":3042.4000000953674},{""stimulus"":""https://ziweizhang0304.github.io/Stats_learning_trig/img/Stim/FN_007_g.png"",""time"":3061.600000143051},{""stimulus"":""blank"",""time"":3367.5},{""stimulus"":""https://ziweizhang0304.github.io/Stats_learning_trig/img/Stim/FN_025_g.png"",""time"":3415.800000190735},{""stimulus"":""blank"",""time"":3727.9000000953674},{""stimulus"":""https://ziweizhang0304.github.io/Stats_learning_trig/img/Stim/FN_014_g.png"",""time"":3744},{""stimulus"":""blank"",""time"":4058.600000143051},{""stimulus"":""https://ziweizhang0304.github.io/Stats_learning_trig/img/Stim/FN_023_g.png"",""time"":4089.2000000476837},{""stimulus"":""blank"",""time"":4396.800000190735}]","[{""key_press"":32,""rt"":2105.0999999046326,""stimulus"":""https://ziweizhang0304.github.io/Stats_learning_trig/img/Stim/FN_016_g.png""}]","393.59999990463257","https://ziweizhang0304.github.io/Stats_learning_trig/img/Stim/FN_019_g.png","post_TD","18","1711.5","2105.0999999046326","fast","5","1","595c69efd8bd8d000154dd23","","","","","",""
"","image-keyboard-response","49","180700","0.0-5.0-18.0-0.0","535.4000000953674","","","https://ziweizhang0304.github.io/Stats_learning_trig/img/Stim/FN_024_g.png","13","","","","","","","","","","","","","","","","","",""
"","animation","50","185122","0.0-5.0-18.0-1.0","","","","","","[{""stimulus"":""https://ziweizhang0304.github.io/Stats_learning_trig/img/Stim/FN_007_g.png"",""time"":340.90000009536743},{""stimulus"":""blank"",""time"":654},{""stimulus"":""https://ziweizhang0304.github.io/Stats_learning_trig/img/Stim/FN_014_g.png"",""time"":681.2999999523163},{""stimulus"":""blank"",""time"":995.4000000953674},{""stimulus"":""https://ziweizhang0304.github.io/Stats_learning_trig/img/Stim/FN_017_g.png"",""time"":1020.7999999523163},{""stimulus"":""blank"",""time"":1322.5},{""stimulus"":""https://ziweizhang0304.github.io/Stats_learning_trig/img/Stim/FN_025_g.png"",""time"":1368.5999999046326},{""stimulus"":""blank"",""time"":1673.5999999046326},{""stimulus"":""https://ziweizhang0304.github.io/Stats_learning_trig/img/Stim/FN_013_g.png"",""time"":1700.7000000476837},{""stimulus"":""blank"",""time"":2002.9000000953674},{""stimulus"":""https://ziweizhang0304.github.io/Stats_learning_trig/img/Stim/FN_003_g.png"",""time"":2050.9000000953674},{""stimulus"":""blank"",""time"":2362.5},{""stimulus"":""https://ziweizhang0304.github.io/Stats_learning_trig/img/Stim/FN_001_g.png"",""time"":2394.7000000476837},{""stimulus"":""blank"",""time"":2702.2999999523163},{""stimulus"":""https://ziweizhang0304.github.io/Stats_learning_trig/img/Stim/FN_024_g.png"",""time"":2729.9000000953674},{""stimulus"":""blank"",""time"":3044},{""stimulus"":""https://ziweizhang0304.github.io/Stats_learning_trig/img/Stim/FN_008_g.png"",""time"":3063.0999999046326},{""stimulus"":""blank"",""time"":3378.7000000476837},{""stimulus"":""https://ziweizhang0304.github.io/Stats_learning_trig/img/Stim/FN_009_g.png"",""time"":3410.0999999046326},{""stimulus"":""blank"",""time"":3720.7999999523163},{""stimulus"":""https://ziweizhang0304.github.io/Stats_learning_trig/img/Stim/FN_004_g.png"",""time"":3741.7999999523163},{""stimulus"":""blank"",""time"":4046.5},{""stimulus"":""https://ziweizhang0304.github.io/Stats_learning_trig/img/Stim/FN_023_g.png"",""time"":4094.2000000476837},{""stimulus"":""blank"",""time"":4405.700000047684}]","[{""key_press"":32,""rt"":3096.4000000953674,""stimulus"":""https://ziweizhang0304.github.io/Stats_learning_trig/img/Stim/FN_008_g.png""}]","366.5","https://ziweizhang0304.github.io/Stats_learning_trig/img/Stim/FN_024_g.png","post_TD","19","2729.9000000953674","3096.4000000953674","slow","8","3","595c69efd8bd8d000154dd23","","","","","",""
"","image-keyboard-response","51","185789","0.0-5.0-19.0-0.0","666.2000000476837","","","https://ziweizhang0304.github.io/Stats_learning_trig/img/Stim/FN_021_g.png","13","","","","","","","","","","","","","","","","","",""
"","animation","52","190214","0.0-5.0-19.0-1.0","","","","","","[{""stimulus"":""https://ziweizhang0304.github.io/Stats_learning_trig/img/Stim/FN_017_g.png"",""time"":343.40000009536743},{""stimulus"":""blank"",""time"":653.5},{""stimulus"":""https://ziweizhang0304.github.io/Stats_learning_trig/img/Stim/FN_014_g.png"",""time"":683.7000000476837},{""stimulus"":""blank"",""time"":991.2999999523163},{""stimulus"":""https://ziweizhang0304.github.io/Stats_learning_trig/img/Stim/FN_013_g.png"",""time"":1022.4000000953674},{""stimulus"":""blank"",""time"":1334.1000001430511},{""stimulus"":""https://ziweizhang0304.github.io/Stats_learning_trig/img/Stim/FN_023_g.png"",""time"":1365.2000000476837},{""stimulus"":""blank"",""time"":1675.6000001430511},{""stimulus"":""https://ziweizhang0304.github.io/Stats_learning_trig/img/Stim/FN_007_g.png"",""time"":1707.7000000476837},{""stimulus"":""blank"",""time"":2023.1000001430511},{""stimulus"":""https://ziweizhang0304.github.io/Stats_learning_trig/img/Stim/FN_019_g.png"",""time"":2053.2000000476837},{""stimulus"":""blank"",""time"":2364.2999999523163},{""stimulus"":""https://ziweizhang0304.github.io/Stats_learning_trig/img/Stim/FN_016_g.png"",""time"":2380.600000143051},{""stimulus"":""blank"",""time"":2689.2999999523163},{""stimulus"":""https://ziweizhang0304.github.io/Stats_learning_trig/img/Stim/FN_021_g.png"",""time"":2724.2000000476837},{""stimulus"":""blank"",""time"":3029.5},{""stimulus"":""https://ziweizhang0304.github.io/Stats_learning_trig/img/Stim/FN_008_g.png"",""time"":3075.600000143051},{""stimulus"":""blank"",""time"":3381.7999999523163},{""stimulus"":""https://ziweizhang0304.github.io/Stats_learning_trig/img/Stim/FN_025_g.png"",""time"":3401.5},{""stimulus"":""blank"",""time"":3713.2000000476837},{""stimulus"":""https://ziweizhang0304.github.io/Stats_learning_trig/img/Stim/FN_009_g.png"",""time"":3741.100000143051},{""stimulus"":""blank"",""time"":4053.9000000953674},{""stimulus"":""https://ziweizhang0304.github.io/Stats_learning_trig/img/Stim/FN_004_g.png"",""time"":4082.100000143051},{""stimulus"":""blank"",""time"":4396.100000143051}]","[{""key_press"":32,""rt"":3124.7999999523163,""stimulus"":""https://ziweizhang0304.github.io/Stats_learning_trig/img/Stim/FN_008_g.png""}]","400.59999990463257","https://ziweizhang0304.github.io/Stats_learning_trig/img/Stim/FN_021_g.png","post_TD","20","2724.2000000476837","3124.7999999523163","fast","8","3","595c69efd8bd8d000154dd23","","","","","",""
"","image-keyboard-response","53","190868","0.0-5.0-20.0-0.0","653.2000000476837","","","https://ziweizhang0304.github.io/Stats_learning_trig/img/Stim/FN_024_g.png","13","","","","","","","","","","","","","","","","","",""
"","animation","54","195297","0.0-5.0-20.0-1.0","","","","","","[{""stimulus"":""https://ziweizhang0304.github.io/Stats_learning_trig/img/Stim/FN_023_g.png"",""time"":345.39999985694885},{""stimulus"":""blank"",""time"":659.2999999523163},{""stimulus"":""https://ziweizhang0304.github.io/Stats_learning_trig/img/Stim/FN_008_g.png"",""time"":682.2999999523163},{""stimulus"":""blank"",""time"":984.5999999046326},{""stimulus"":""https://ziweizhang0304.github.io/Stats_learning_trig/img/Stim/FN_007_g.png"",""time"":1031.6999998092651},{""stimulus"":""blank"",""time"":1345.5999999046326},{""stimulus"":""https://ziweizhang0304.github.io/Stats_learning_trig/img/Stim/FN_004_g.png"",""time"":1360.8999998569489},{""stimulus"":""blank"",""time"":1672.5999999046326},{""stimulus"":""https://ziweizhang0304.github.io/Stats_learning_trig/img/Stim/FN_003_g.png"",""time"":1701.5},{""stimulus"":""blank"",""time"":2015.8999998569489},{""stimulus"":""https://ziweizhang0304.github.io/Stats_learning_trig/img/Stim/FN_001_g.png"",""time"":2042},{""stimulus"":""blank"",""time"":2351.7999999523163},{""stimulus"":""https://ziweizhang0304.github.io/Stats_learning_trig/img/Stim/FN_024_g.png"",""time"":2381.7999999523163},{""stimulus"":""blank"",""time"":2695},{""stimulus"":""https://ziweizhang0304.github.io/Stats_learning_trig/img/Stim/FN_013_g.png"",""time"":2725},{""stimulus"":""blank"",""time"":3033.899999856949},{""stimulus"":""https://ziweizhang0304.github.io/Stats_learning_trig/img/Stim/FN_025_g.png"",""time"":3061},{""stimulus"":""blank"",""time"":3373.0999999046326},{""stimulus"":""https://ziweizhang0304.github.io/Stats_learning_trig/img/Stim/FN_009_g.png"",""time"":3404.2999999523163},{""stimulus"":""blank"",""time"":3714.899999856949},{""stimulus"":""https://ziweizhang0304.github.io/Stats_learning_trig/img/Stim/FN_014_g.png"",""time"":3741.699999809265},{""stimulus"":""blank"",""time"":4054.5},{""stimulus"":""https://ziweizhang0304.github.io/Stats_learning_trig/img/Stim/FN_017_g.png"",""time"":4081.399999856949},{""stimulus"":""blank"",""time"":4397.199999809265}]","[{""key_press"":32,""rt"":2803.5,""stimulus"":""https://ziweizhang0304.github.io/Stats_learning_trig/img/Stim/FN_013_g.png""}]","421.7000000476837","https://ziweizhang0304.github.io/Stats_learning_trig/img/Stim/FN_024_g.png","post_TD","21","2381.7999999523163","2803.5","slow","7","3","595c69efd8bd8d000154dd23","","","","","",""
"","image-keyboard-response","55","195960","0.0-5.0-21.0-0.0","662.5","","","https://ziweizhang0304.github.io/Stats_learning_trig/img/Stim/FN_019_g.png","13","","","","","","","","","","","","","","","","","",""
"","animation","56","200384","0.0-5.0-21.0-1.0","","","","","","[{""stimulus"":""https://ziweizhang0304.github.io/Stats_learning_trig/img/Stim/FN_023_g.png"",""time"":343.69999980926514},{""stimulus"":""blank"",""time"":648.5999999046326},{""stimulus"":""https://ziweizhang0304.github.io/Stats_learning_trig/img/Stim/FN_004_g.png"",""time"":695.7999999523163},{""stimulus"":""blank"",""time"":1005.0999999046326},{""stimulus"":""https://ziweizhang0304.github.io/Stats_learning_trig/img/Stim/FN_009_g.png"",""time"":1021.1999998092651},{""stimulus"":""blank"",""time"":1329.8999998569489},{""stimulus"":""https://ziweizhang0304.github.io/Stats_learning_trig/img/Stim/FN_019_g.png"",""time"":1361.7999999523163},{""stimulus"":""blank"",""time"":1670.5},{""stimulus"":""https://ziweizhang0304.github.io/Stats_learning_trig/img/Stim/FN_016_g.png"",""time"":1701.5999999046326},{""stimulus"":""blank"",""time"":2010.7999999523163},{""stimulus"":""https://ziweizhang0304.github.io/Stats_learning_trig/img/Stim/FN_021_g.png"",""time"":2042},{""stimulus"":""blank"",""time"":2352.0999999046326},{""stimulus"":""https://ziweizhang0304.github.io/Stats_learning_trig/img/Stim/FN_008_g.png"",""time"":2382.899999856949},{""stimulus"":""blank"",""time"":2696.699999809265},{""stimulus"":""https://ziweizhang0304.github.io/Stats_learning_trig/img/Stim/FN_013_g.png"",""time"":2721.7999999523163},{""stimulus"":""blank"",""time"":3037.5},{""stimulus"":""https://ziweizhang0304.github.io/Stats_learning_trig/img/Stim/FN_007_g.png"",""time"":3068.7999999523163},{""stimulus"":""blank"",""time"":3380.5999999046326},{""stimulus"":""https://ziweizhang0304.github.io/Stats_learning_trig/img/Stim/FN_025_g.png"",""time"":3403.699999809265},{""stimulus"":""blank"",""time"":3705.2999999523163},{""stimulus"":""https://ziweizhang0304.github.io/Stats_learning_trig/img/Stim/FN_014_g.png"",""time"":3741.399999856949},{""stimulus"":""blank"",""time"":4046.0999999046326},{""stimulus"":""https://ziweizhang0304.github.io/Stats_learning_trig/img/Stim/FN_017_g.png"",""time"":4093.0999999046326},{""stimulus"":""blank"",""time"":4407.5}]","[{""key_press"":32,""rt"":1738.9000000953674,""stimulus"":""https://ziweizhang0304.github.io/Stats_learning_trig/img/Stim/FN_016_g.png""}]","377.10000014305115","https://ziweizhang0304.github.io/Stats_learning_trig/img/Stim/FN_019_g.png","post_TD","22","1361.7999999523163","1738.9000000953674","fast","4","1","595c69efd8bd8d000154dd23","","","","","",""
"","image-keyboard-response","57","201166","0.0-5.0-22.0-0.0","780.6999998092651","","","https://ziweizhang0304.github.io/Stats_learning_trig/img/Stim/FN_019_g.png","13","","","","","","","","","","","","","","","","","",""
"","animation","58","205591","0.0-5.0-22.0-1.0","","","","","","[{""stimulus"":""https://ziweizhang0304.github.io/Stats_learning_trig/img/Stim/FN_014_g.png"",""time"":349},{""stimulus"":""blank"",""time"":654.9000000953674},{""stimulus"":""https://ziweizhang0304.github.io/Stats_learning_trig/img/Stim/FN_017_g.png"",""time"":681.7000000476837},{""stimulus"":""blank"",""time"":996.4000000953674},{""stimulus"":""https://ziweizhang0304.github.io/Stats_learning_trig/img/Stim/FN_007_g.png"",""time"":1026.5999999046326},{""stimulus"":""blank"",""time"":1333.2000000476837},{""stimulus"":""https://ziweizhang0304.github.io/Stats_learning_trig/img/Stim/FN_025_g.png"",""time"":1364.7999999523163},{""stimulus"":""blank"",""time"":1674.5999999046326},{""stimulus"":""https://ziweizhang0304.github.io/Stats_learning_trig/img/Stim/FN_009_g.png"",""time"":1704.7999999523163},{""stimulus"":""blank"",""time"":2016.7000000476837},{""stimulus"":""https://ziweizhang0304.github.io/Stats_learning_trig/img/Stim/FN_013_g.png"",""time"":2041.9000000953674},{""stimulus"":""blank"",""time"":2357.2999999523163},{""stimulus"":""https://ziweizhang0304.github.io/Stats_learning_trig/img/Stim/FN_019_g.png"",""time"":2380.5},{""stimulus"":""blank"",""time"":2695},{""stimulus"":""https://ziweizhang0304.github.io/Stats_learning_trig/img/Stim/FN_016_g.png"",""time"":2727.2000000476837},{""stimulus"":""blank"",""time"":3038.7999999523163},{""stimulus"":""https://ziweizhang0304.github.io/Stats_learning_trig/img/Stim/FN_021_g.png"",""time"":3064.9000000953674},{""stimulus"":""blank"",""time"":3379},{""stimulus"":""https://ziweizhang0304.github.io/Stats_learning_trig/img/Stim/FN_008_g.png"",""time"":3409.2999999523163},{""stimulus"":""blank"",""time"":3722},{""stimulus"":""https://ziweizhang0304.github.io/Stats_learning_trig/img/Stim/FN_004_g.png"",""time"":3748.2000000476837},{""stimulus"":""blank"",""time"":4051.7000000476837},{""stimulus"":""https://ziweizhang0304.github.io/Stats_learning_trig/img/Stim/FN_023_g.png"",""time"":4081.5},{""stimulus"":""blank"",""time"":4393.099999904633}]","[{""key_press"":32,""rt"":2784.300000190735,""stimulus"":""https://ziweizhang0304.github.io/Stats_learning_trig/img/Stim/FN_016_g.png""}]","403.80000019073486","https://ziweizhang0304.github.io/Stats_learning_trig/img/Stim/FN_019_g.png","post_TD","23","2380.5","2784.300000190735","fast","7","1","595c69efd8bd8d000154dd23","","","","","",""
"","image-keyboard-response","59","206311","0.0-5.0-23.0-0.0","719","","","https://ziweizhang0304.github.io/Stats_learning_trig/img/Stim/FN_003_g.png","13","","","","","","","","","","","","","","","","","",""
"","animation","60","210731","0.0-5.0-23.0-1.0","","","","","","[{""stimulus"":""https://ziweizhang0304.github.io/Stats_learning_trig/img/Stim/FN_013_g.png"",""time"":344.40000009536743},{""stimulus"":""blank"",""time"":654.4000000953674},{""stimulus"":""https://ziweizhang0304.github.io/Stats_learning_trig/img/Stim/FN_008_g.png"",""time"":685.8000001907349},{""stimulus"":""blank"",""time"":993.6000001430511},{""stimulus"":""https://ziweizhang0304.github.io/Stats_learning_trig/img/Stim/FN_017_g.png"",""time"":1024.9000000953674},{""stimulus"":""blank"",""time"":1334.4000000953674},{""stimulus"":""https://ziweizhang0304.github.io/Stats_learning_trig/img/Stim/FN_023_g.png"",""time"":1365.5},{""stimulus"":""blank"",""time"":1673},{""stimulus"":""https://ziweizhang0304.github.io/Stats_learning_trig/img/Stim/FN_014_g.png"",""time"":1701},{""stimulus"":""blank"",""time"":2013.5},{""stimulus"":""https://ziweizhang0304.github.io/Stats_learning_trig/img/Stim/FN_009_g.png"",""time"":2040.6000001430511},{""stimulus"":""blank"",""time"":2356.2000000476837},{""stimulus"":""https://ziweizhang0304.github.io/Stats_learning_trig/img/Stim/FN_003_g.png"",""time"":2386.5},{""stimulus"":""blank"",""time"":2693.9000000953674},{""stimulus"":""https://ziweizhang0304.github.io/Stats_learning_trig/img/Stim/FN_001_g.png"",""time"":2724.800000190735},{""stimulus"":""blank"",""time"":3032.2000000476837},{""stimulus"":""https://ziweizhang0304.github.io/Stats_learning_trig/img/Stim/FN_024_g.png"",""time"":3061},{""stimulus"":""blank"",""time"":3374.300000190735},{""stimulus"":""https://ziweizhang0304.github.io/Stats_learning_trig/img/Stim/FN_007_g.png"",""time"":3402.9000000953674},{""stimulus"":""blank"",""time"":3716.9000000953674},{""stimulus"":""https://ziweizhang0304.github.io/Stats_learning_trig/img/Stim/FN_025_g.png"",""time"":3748.2000000476837},{""stimulus"":""blank"",""time"":4059.2000000476837},{""stimulus"":""https://ziweizhang0304.github.io/Stats_learning_trig/img/Stim/FN_004_g.png"",""time"":4081.4000000953674},{""stimulus"":""blank"",""time"":4387.200000047684}]","[{""key_press"":32,""rt"":2869.9000000953674,""stimulus"":""https://ziweizhang0304.github.io/Stats_learning_trig/img/Stim/FN_001_g.png""}]","483.40000009536743","https://ziweizhang0304.github.io/Stats_learning_trig/img/Stim/FN_003_g.png","post_TD","24","2386.5","2869.9000000953674","slow","7","1","595c69efd8bd8d000154dd23","7b5f6","","","","",""
"","survey-text","61","239567","0.0-6.0","28832.900000095367","","","","","","","","","","","","","","","","","","{""Q0"":""my strategy was to try and remember the shape and be fast! ""}","","","",""
"","survey-text","62","246274","0.0-7.0","6705.5","","","","","","","","","","","","","","","","","","{""[object Object]"":""not sure""}","","","",""
"","instructions","63","251993","0.0-8.0","5719.300000190735","","[{""page_index"":0,""viewing_time"":5719}]","","","","","","","","","","","","","","","","","","","",""
"","free-sort","64","270500","0.0-9.0","18506.200000047684","","","","","","","","","post_drag","","","","fast","","","","","","[{""src"":""https://ziweizhang0304.github.io/Stats_learning_trig/img/Stim/FN_019_g.png"",""x"":475,""y"":0},{""src"":""https://ziweizhang0304.github.io/Stats_learning_trig/img/Stim/FN_021_g.png"",""x"":-225,""y"":50},{""src"":""https://ziweizhang0304.github.io/Stats_learning_trig/img/Stim/FN_016_g.png"",""x"":475,""y"":50}]","[{""src"":""https://ziweizhang0304.github.io/Stats_learning_trig/img/Stim/FN_016_g.png"",""x"":400,""y"":75},{""src"":""https://ziweizhang0304.github.io/Stats_learning_trig/img/Stim/FN_019_g.png"",""x"":118,""y"":23},{""src"":""https://ziweizhang0304.github.io/Stats_learning_trig/img/Stim/FN_016_g.png"",""x"":209,""y"":23},{""src"":""https://ziweizhang0304.github.io/Stats_learning_trig/img/Stim/FN_021_g.png"",""x"":32,""y"":18}]","[{""src"":""https://ziweizhang0304.github.io/Stats_learning_trig/img/Stim/FN_019_g.png"",""x"":118,""y"":23},{""src"":""https://ziweizhang0304.github.io/Stats_learning_trig/img/Stim/FN_021_g.png"",""x"":32,""y"":18},{""src"":""https://ziweizhang0304.github.io/Stats_learning_trig/img/Stim/FN_016_g.png"",""x"":209,""y"":23}]",""
"","free-sort","65","276714","0.0-10.0","6212.699999809265","","","","","","","","","post_drag","","","","slow","","","","","","[{""src"":""https://ziweizhang0304.github.io/Stats_learning_trig/img/Stim/FN_024_g.png"",""x"":475,""y"":0},{""src"":""https://ziweizhang0304.github.io/Stats_learning_trig/img/Stim/FN_001_g.png"",""x"":-225,""y"":50},{""src"":""https://ziweizhang0304.github.io/Stats_learning_trig/img/Stim/FN_003_g.png"",""x"":475,""y"":50}]","[{""src"":""https://ziweizhang0304.github.io/Stats_learning_trig/img/Stim/FN_001_g.png"",""x"":36,""y"":21},{""src"":""https://ziweizhang0304.github.io/Stats_learning_trig/img/Stim/FN_024_g.png"",""x"":238,""y"":23},{""src"":""https://ziweizhang0304.github.io/Stats_learning_trig/img/Stim/FN_003_g.png"",""x"":154,""y"":34}]","[{""src"":""https://ziweizhang0304.github.io/Stats_learning_trig/img/Stim/FN_024_g.png"",""x"":238,""y"":23},{""src"":""https://ziweizhang0304.github.io/Stats_learning_trig/img/Stim/FN_001_g.png"",""x"":36,""y"":21},{""src"":""https://ziweizhang0304.github.io/Stats_learning_trig/img/Stim/FN_003_g.png"",""x"":154,""y"":34}]",""
"","survey-multi-choice","66","289269","0.0-11.0","12554","","","","","","","","","","","","","","","","595c69efd8bd8d000154dd23","","{""awareness"":""Not sure"",""attention_check"":""Press SPACEBAR to a target""}","","","","[0,1]"
