"success","trial_type","trial_index","time_elapsed","internal_node_id","rt","url","view_history","stimulus","key_press","animation_sequence","response","TD_rt","TD_target","test_part","TD_trial_number","onset","offset","attention_state","TD_target_position","TD_within_triplet_counter","participant","yoke_participant","responses","init_locations","moves","final_locations","question_order"
"true","fullscreen","0","90504","0.0-0.0","","","","","","","","","","","","","","","","","","","","","","",""
"","external-html","1","109849","0.0-1.0","19172.40000000596","https://ziweizhang0304.github.io/Stats_learning_trig/content/consent.html","","","","","","","","","","","","","","","","","","","","",""
"","instructions","2","135449","0.0-2.0","25597.5","","[{""page_index"":0,""viewing_time"":1166.300000011921},{""page_index"":1,""viewing_time"":7798.9000000059605},{""page_index"":2,""viewing_time"":14856.09999999404},{""page_index"":3,""viewing_time"":1774.800000011921}]","","","","","","","","","","","","","","","","","","","",""
"","image-keyboard-response","3","139619","0.0-3.0-0.0-0.0","4168.9000000059605","","","https://ziweizhang0304.github.io/Stats_learning_trig/img/Stim/FN_024_g.png","13","","","","","","","","","","","","","","","","","",""
"","animation","4","144041","0.0-3.0-0.0-1.0","","","","","","[{""stimulus"":""https://ziweizhang0304.github.io/Stats_learning_trig/img/Stim/FN_014_g.png"",""time"":363.89999997615814},{""stimulus"":""blank"",""time"":667.5},{""stimulus"":""https://ziweizhang0304.github.io/Stats_learning_trig/img/Stim/FN_011_g.png"",""time"":681.3999999761581},{""stimulus"":""blank"",""time"":996.7999999821186},{""stimulus"":""https://ziweizhang0304.github.io/Stats_learning_trig/img/Stim/FN_021_g.png"",""time"":1027},{""stimulus"":""blank"",""time"":1339},{""stimulus"":""https://ziweizhang0304.github.io/Stats_learning_trig/img/Stim/FN_010_g.png"",""time"":1361.199999988079},{""stimulus"":""blank"",""time"":1666.5999999940395},{""stimulus"":""https://ziweizhang0304.github.io/Stats_learning_trig/img/Stim/FN_017_g.png"",""time"":1702.199999988079},{""stimulus"":""blank"",""time"":2010.5},{""stimulus"":""https://ziweizhang0304.github.io/Stats_learning_trig/img/Stim/FN_018_g.png"",""time"":2041.2999999821186},{""stimulus"":""blank"",""time"":2355.199999988079},{""stimulus"":""https://ziweizhang0304.github.io/Stats_learning_trig/img/Stim/FN_015_g.png"",""time"":2382},{""stimulus"":""blank"",""time"":2683},{""stimulus"":""https://ziweizhang0304.github.io/Stats_learning_trig/img/Stim/FN_016_g.png"",""time"":2721.199999988079},{""stimulus"":""blank"",""time"":3024.399999976158},{""stimulus"":""https://ziweizhang0304.github.io/Stats_learning_trig/img/Stim/FN_006_g.png"",""time"":3062.399999976158},{""stimulus"":""blank"",""time"":3370.7999999821186},{""stimulus"":""https://ziweizhang0304.github.io/Stats_learning_trig/img/Stim/FN_024_g.png"",""time"":3401.5},{""stimulus"":""blank"",""time"":3715},{""stimulus"":""https://ziweizhang0304.github.io/Stats_learning_trig/img/Stim/FN_020_g.png"",""time"":3740.899999976158},{""stimulus"":""blank"",""time"":4042.899999976158},{""stimulus"":""https://ziweizhang0304.github.io/Stats_learning_trig/img/Stim/FN_026_g.png"",""time"":4082.399999976158},{""stimulus"":""blank"",""time"":4390.5}]","[{""key_press"":32,""rt"":3780.9000000059605,""stimulus"":""https://ziweizhang0304.github.io/Stats_learning_trig/img/Stim/FN_020_g.png""}]","379.40000000596046","https://ziweizhang0304.github.io/Stats_learning_trig/img/Stim/FN_024_g.png","post_prac","","","","","","","","","","","","",""
"","html-keyboard-response","5","149105","0.0-3.0-0.0-2.0","5059.5","","","<p>Your reaction time for this trial was 379.4 ms.</p><p>Remember that you should only press the SPACEBAR when you see the shape presented at the beginning of the trial. </b> </p><p>Press enter to move on.</p>","13","","","","","","","","","","","","","","","","","",""
"","image-keyboard-response","6","161035","0.0-3.0-1.0-0.0","11926.600000023842","","","https://ziweizhang0304.github.io/Stats_learning_trig/img/Stim/FN_019_g.png","13","","","","","","","","","","","","","","","","","",""
"","animation","7","165458","0.0-3.0-1.0-1.0","","","","","","[{""stimulus"":""https://ziweizhang0304.github.io/Stats_learning_trig/img/Stim/FN_015_g.png"",""time"":348},{""stimulus"":""blank"",""time"":648.5},{""stimulus"":""https://ziweizhang0304.github.io/Stats_learning_trig/img/Stim/FN_010_g.png"",""time"":682.0999999940395},{""stimulus"":""blank"",""time"":982.9000000059605},{""stimulus"":""https://ziweizhang0304.github.io/Stats_learning_trig/img/Stim/FN_020_g.png"",""time"":1031.0999999940395},{""stimulus"":""blank"",""time"":1331.800000011921},{""stimulus"":""https://ziweizhang0304.github.io/Stats_learning_trig/img/Stim/FN_021_g.png"",""time"":1362.800000011921},{""stimulus"":""blank"",""time"":1664.800000011921},{""stimulus"":""https://ziweizhang0304.github.io/Stats_learning_trig/img/Stim/FN_016_g.png"",""time"":1700.9000000059605},{""stimulus"":""blank"",""time"":2013.9000000059605},{""stimulus"":""https://ziweizhang0304.github.io/Stats_learning_trig/img/Stim/FN_011_g.png"",""time"":2043.9000000059605},{""stimulus"":""blank"",""time"":2345.0999999940395},{""stimulus"":""https://ziweizhang0304.github.io/Stats_learning_trig/img/Stim/FN_012_g.png"",""time"":2392},{""stimulus"":""blank"",""time"":2706.199999988079},{""stimulus"":""https://ziweizhang0304.github.io/Stats_learning_trig/img/Stim/FN_019_g.png"",""time"":2721.9000000059605},{""stimulus"":""blank"",""time"":3024},{""stimulus"":""https://ziweizhang0304.github.io/Stats_learning_trig/img/Stim/FN_022_g.png"",""time"":3061.5999999940395},{""stimulus"":""blank"",""time"":3373},{""stimulus"":""https://ziweizhang0304.github.io/Stats_learning_trig/img/Stim/FN_026_g.png"",""time"":3403.199999988079},{""stimulus"":""blank"",""time"":3707.199999988079},{""stimulus"":""https://ziweizhang0304.github.io/Stats_learning_trig/img/Stim/FN_017_g.png"",""time"":3742},{""stimulus"":""blank"",""time"":4056.5999999940395},{""stimulus"":""https://ziweizhang0304.github.io/Stats_learning_trig/img/Stim/FN_018_g.png"",""time"":4083},{""stimulus"":""blank"",""time"":4391.699999988079}]","[{""key_press"":32,""rt"":3067.9000000059605,""stimulus"":""https://ziweizhang0304.github.io/Stats_learning_trig/img/Stim/FN_022_g.png""}]","346","https://ziweizhang0304.github.io/Stats_learning_trig/img/Stim/FN_019_g.png","post_prac","","","","","","","","","","","","",""
"","html-keyboard-response","8","171089","0.0-3.0-1.0-2.0","5625.799999982119","","","<p>Your reaction time for this trial was 346 ms.</p><p>Remember that you should only press the SPACEBAR when you see the shape presented at the beginning of the trial. </b> </p><p>Press enter to move on.</p>","13","","","","","","","","","","","","","","","","","",""
"","image-keyboard-response","9","173340","0.0-3.0-2.0-0.0","2250.5999999940395","","","https://ziweizhang0304.github.io/Stats_learning_trig/img/Stim/FN_024_g.png","13","","","","","","","","","","","","","","","","","",""
"","animation","10","177762","0.0-3.0-2.0-1.0","","","","","","[{""stimulus"":""https://ziweizhang0304.github.io/Stats_learning_trig/img/Stim/FN_021_g.png"",""time"":349.69999998807907},{""stimulus"":""blank"",""time"":664.6999999880791},{""stimulus"":""https://ziweizhang0304.github.io/Stats_learning_trig/img/Stim/FN_020_g.png"",""time"":682.5999999940395},{""stimulus"":""blank"",""time"":990},{""stimulus"":""https://ziweizhang0304.github.io/Stats_learning_trig/img/Stim/FN_015_g.png"",""time"":1021.6999999880791},{""stimulus"":""blank"",""time"":1337.2999999821186},{""stimulus"":""https://ziweizhang0304.github.io/Stats_learning_trig/img/Stim/FN_006_g.png"",""time"":1369.4000000059605},{""stimulus"":""blank"",""time"":1676.5},{""stimulus"":""https://ziweizhang0304.github.io/Stats_learning_trig/img/Stim/FN_014_g.png"",""time"":1715.0999999940395},{""stimulus"":""blank"",""time"":2017.5999999940395},{""stimulus"":""https://ziweizhang0304.github.io/Stats_learning_trig/img/Stim/FN_024_g.png"",""time"":2041.699999988079},{""stimulus"":""blank"",""time"":2352.5999999940395},{""stimulus"":""https://ziweizhang0304.github.io/Stats_learning_trig/img/Stim/FN_011_g.png"",""time"":2382},{""stimulus"":""blank"",""time"":2684.0999999940395},{""stimulus"":""https://ziweizhang0304.github.io/Stats_learning_trig/img/Stim/FN_016_g.png"",""time"":2728.7999999821186},{""stimulus"":""blank"",""time"":3029.7999999821186},{""stimulus"":""https://ziweizhang0304.github.io/Stats_learning_trig/img/Stim/FN_010_g.png"",""time"":3076.5999999940395},{""stimulus"":""blank"",""time"":3383.5},{""stimulus"":""https://ziweizhang0304.github.io/Stats_learning_trig/img/Stim/FN_026_g.png"",""time"":3402.4000000059605},{""stimulus"":""blank"",""time"":3723.5},{""stimulus"":""https://ziweizhang0304.github.io/Stats_learning_trig/img/Stim/FN_017_g.png"",""time"":3741.4000000059605},{""stimulus"":""blank"",""time"":4056.2999999821186},{""stimulus"":""https://ziweizhang0304.github.io/Stats_learning_trig/img/Stim/FN_018_g.png"",""time"":4083.4000000059605},{""stimulus"":""blank"",""time"":4399.299999982119}]","[{""key_press"":32,""rt"":2404.600000023842,""stimulus"":""https://ziweizhang0304.github.io/Stats_learning_trig/img/Stim/FN_011_g.png""}]","362.9000000357628","https://ziweizhang0304.github.io/Stats_learning_trig/img/Stim/FN_024_g.png","post_prac","","","","","","","","","","","","",""
"","html-keyboard-response","11","179461","0.0-3.0-2.0-2.0","1694.300000011921","","","<p>Your reaction time for this trial was 362.9 ms.</p><p>Remember that you should only press the SPACEBAR when you see the shape presented at the beginning of the trial. </b> </p><p>Press enter to move on.</p>","13","","","","","","","","","","","","","","","","","",""
"","instructions","12","181511","0.0-4.0","2049.399999976158","","[{""page_index"":0,""viewing_time"":2049.0999999940395}]","","","","","","","","","","","","","","","","","","","",""
"","image-keyboard-response","13","184721","0.0-5.0-0.0-0.0","3208.7000000178814","","","https://ziweizhang0304.github.io/Stats_learning_trig/img/Stim/FN_006_g.png","13","","","","","","","","","","","","","","","","","",""
"","animation","14","189150","0.0-5.0-0.0-1.0","","","","","","[{""stimulus"":""https://ziweizhang0304.github.io/Stats_learning_trig/img/Stim/FN_017_g.png"",""time"":345.30000001192093},{""stimulus"":""blank"",""time"":657.5},{""stimulus"":""https://ziweizhang0304.github.io/Stats_learning_trig/img/Stim/FN_021_g.png"",""time"":688.5999999940395},{""stimulus"":""blank"",""time"":1002.7000000178814},{""stimulus"":""https://ziweizhang0304.github.io/Stats_learning_trig/img/Stim/FN_011_g.png"",""time"":1021.5999999940395},{""stimulus"":""blank"",""time"":1329.0999999940395},{""stimulus"":""https://ziweizhang0304.github.io/Stats_learning_trig/img/Stim/FN_018_g.png"",""time"":1362.300000011921},{""stimulus"":""blank"",""time"":1676},{""stimulus"":""https://ziweizhang0304.github.io/Stats_learning_trig/img/Stim/FN_020_g.png"",""time"":1706.2000000178814},{""stimulus"":""blank"",""time"":2018.7000000178814},{""stimulus"":""https://ziweizhang0304.github.io/Stats_learning_trig/img/Stim/FN_006_g.png"",""time"":2040.800000011921},{""stimulus"":""blank"",""time"":2343.5999999940395},{""stimulus"":""https://ziweizhang0304.github.io/Stats_learning_trig/img/Stim/FN_014_g.png"",""time"":2380.800000011921},{""stimulus"":""blank"",""time"":2682.2000000178814},{""stimulus"":""https://ziweizhang0304.github.io/Stats_learning_trig/img/Stim/FN_024_g.png"",""time"":2729.800000011921},{""stimulus"":""blank"",""time"":3033},{""stimulus"":""https://ziweizhang0304.github.io/Stats_learning_trig/img/Stim/FN_016_g.png"",""time"":3061.5999999940395},{""stimulus"":""blank"",""time"":3367.800000011921},{""stimulus"":""https://ziweizhang0304.github.io/Stats_learning_trig/img/Stim/FN_015_g.png"",""time"":3403.2000000178814},{""stimulus"":""blank"",""time"":3713.800000011921},{""stimulus"":""https://ziweizhang0304.github.io/Stats_learning_trig/img/Stim/FN_010_g.png"",""time"":3740.7000000178814},{""stimulus"":""blank"",""time"":4048},{""stimulus"":""https://ziweizhang0304.github.io/Stats_learning_trig/img/Stim/FN_026_g.png"",""time"":4100},{""stimulus"":""blank"",""time"":4411.700000017881}]","[{""key_press"":32,""rt"":2355.899999976158,""stimulus"":""blank""}]","315.0999999642372","https://ziweizhang0304.github.io/Stats_learning_trig/img/Stim/FN_006_g.png","post_TD","1","2040.800000011921","2355.899999976158","slow","6","1","5af59378f856320001cf2ffc","","","","","",""
"","image-keyboard-response","15","191527","0.0-5.0-1.0-0.0","2374.199999988079","","","https://ziweizhang0304.github.io/Stats_learning_trig/img/Stim/FN_022_g.png","13","","","","","","","","","","","","","","","","","",""
"","animation","16","195950","0.0-5.0-1.0-1.0","","","","","","[{""stimulus"":""https://ziweizhang0304.github.io/Stats_learning_trig/img/Stim/FN_026_g.png"",""time"":348.80000001192093},{""stimulus"":""blank"",""time"":664.6999999880791},{""stimulus"":""https://ziweizhang0304.github.io/Stats_learning_trig/img/Stim/FN_021_g.png"",""time"":681.3000000119209},{""stimulus"":""blank"",""time"":982.4000000059605},{""stimulus"":""https://ziweizhang0304.github.io/Stats_learning_trig/img/Stim/FN_011_g.png"",""time"":1022.0999999940395},{""stimulus"":""blank"",""time"":1340.5999999940395},{""stimulus"":""https://ziweizhang0304.github.io/Stats_learning_trig/img/Stim/FN_017_g.png"",""time"":1361.5999999940395},{""stimulus"":""blank"",""time"":1666.0999999940395},{""stimulus"":""https://ziweizhang0304.github.io/Stats_learning_trig/img/Stim/FN_018_g.png"",""time"":1701.5},{""stimulus"":""blank"",""time"":2013.300000011921},{""stimulus"":""https://ziweizhang0304.github.io/Stats_learning_trig/img/Stim/FN_012_g.png"",""time"":2044.800000011921},{""stimulus"":""blank"",""time"":2353.0999999940395},{""stimulus"":""https://ziweizhang0304.github.io/Stats_learning_trig/img/Stim/FN_019_g.png"",""time"":2385.300000011921},{""stimulus"":""blank"",""time"":2694.300000011921},{""stimulus"":""https://ziweizhang0304.github.io/Stats_learning_trig/img/Stim/FN_022_g.png"",""time"":2722.0999999940395},{""stimulus"":""blank"",""time"":3022.9000000059605},{""stimulus"":""https://ziweizhang0304.github.io/Stats_learning_trig/img/Stim/FN_016_g.png"",""time"":3064.300000011921},{""stimulus"":""blank"",""time"":3367.4000000059605},{""stimulus"":""https://ziweizhang0304.github.io/Stats_learning_trig/img/Stim/FN_015_g.png"",""time"":3402},{""stimulus"":""blank"",""time"":3713.800000011921},{""stimulus"":""https://ziweizhang0304.github.io/Stats_learning_trig/img/Stim/FN_010_g.png"",""time"":3741.5999999940395},{""stimulus"":""blank"",""time"":4044},{""stimulus"":""https://ziweizhang0304.github.io/Stats_learning_trig/img/Stim/FN_020_g.png"",""time"":4087.4000000059605},{""stimulus"":""blank"",""time"":4416.0999999940395}]","[{""key_press"":32,""rt"":3011.4000000059605,""stimulus"":""https://ziweizhang0304.github.io/Stats_learning_trig/img/Stim/FN_022_g.png""}]","289.30000001192093","https://ziweizhang0304.github.io/Stats_learning_trig/img/Stim/FN_022_g.png","post_TD","2","2722.0999999940395","3011.4000000059605","fast","8","3","5af59378f856320001cf2ffc","","","","","",""
"","image-keyboard-response","17","197264","0.0-5.0-2.0-0.0","1311.4000000059605","","","https://ziweizhang0304.github.io/Stats_learning_trig/img/Stim/FN_012_g.png","13","","","","","","","","","","","","","","","","","",""
"","animation","18","201689","0.0-5.0-2.0-1.0","","","","","","[{""stimulus"":""https://ziweizhang0304.github.io/Stats_learning_trig/img/Stim/FN_026_g.png"",""time"":353.30000001192093},{""stimulus"":""blank"",""time"":670.3000000119209},{""stimulus"":""https://ziweizhang0304.github.io/Stats_learning_trig/img/Stim/FN_021_g.png"",""time"":686.0999999940395},{""stimulus"":""blank"",""time"":994},{""stimulus"":""https://ziweizhang0304.github.io/Stats_learning_trig/img/Stim/FN_011_g.png"",""time"":1023.4000000059605},{""stimulus"":""blank"",""time"":1333.5},{""stimulus"":""https://ziweizhang0304.github.io/Stats_learning_trig/img/Stim/FN_017_g.png"",""time"":1362.2000000178814},{""stimulus"":""blank"",""time"":1663.2000000178814},{""stimulus"":""https://ziweizhang0304.github.io/Stats_learning_trig/img/Stim/FN_018_g.png"",""time"":1709.2000000178814},{""stimulus"":""blank"",""time"":2020.4000000059605},{""stimulus"":""https://ziweizhang0304.github.io/Stats_learning_trig/img/Stim/FN_012_g.png"",""time"":2041.800000011921},{""stimulus"":""blank"",""time"":2344.0999999940395},{""stimulus"":""https://ziweizhang0304.github.io/Stats_learning_trig/img/Stim/FN_019_g.png"",""time"":2382.5999999940395},{""stimulus"":""blank"",""time"":2693.4000000059605},{""stimulus"":""https://ziweizhang0304.github.io/Stats_learning_trig/img/Stim/FN_022_g.png"",""time"":2724.300000011921},{""stimulus"":""blank"",""time"":3039.800000011921},{""stimulus"":""https://ziweizhang0304.github.io/Stats_learning_trig/img/Stim/FN_016_g.png"",""time"":3069.9000000059605},{""stimulus"":""blank"",""time"":3389.0999999940395},{""stimulus"":""https://ziweizhang0304.github.io/Stats_learning_trig/img/Stim/FN_015_g.png"",""time"":3402.5999999940395},{""stimulus"":""blank"",""time"":3717.0999999940395},{""stimulus"":""https://ziweizhang0304.github.io/Stats_learning_trig/img/Stim/FN_010_g.png"",""time"":3742.2000000178814},{""stimulus"":""blank"",""time"":4049.5},{""stimulus"":""https://ziweizhang0304.github.io/Stats_learning_trig/img/Stim/FN_020_g.png"",""time"":4085.4000000059605},{""stimulus"":""blank"",""time"":4397.300000011921}]","[{""key_press"":32,""rt"":2336.300000011921,""stimulus"":""https://ziweizhang0304.github.io/Stats_learning_trig/img/Stim/FN_012_g.png""}]","294.5","https://ziweizhang0304.github.io/Stats_learning_trig/img/Stim/FN_012_g.png","post_TD","3","2041.800000011921","2336.300000011921","fast","6","1","5af59378f856320001cf2ffc","","","","","",""
"","image-keyboard-response","19","202870","0.0-5.0-3.0-0.0","1178.7999999821186","","","https://ziweizhang0304.github.io/Stats_learning_trig/img/Stim/FN_012_g.png","13","","","","","","","","","","","","","","","","","",""
"","animation","20","207308","0.0-5.0-3.0-1.0","","","","","","[{""stimulus"":""https://ziweizhang0304.github.io/Stats_learning_trig/img/Stim/FN_020_g.png"",""time"":341.59999999403954},{""stimulus"":""blank"",""time"":643.5999999940395},{""stimulus"":""https://ziweizhang0304.github.io/Stats_learning_trig/img/Stim/FN_026_g.png"",""time"":681.9000000059605},{""stimulus"":""blank"",""time"":992.5},{""stimulus"":""https://ziweizhang0304.github.io/Stats_learning_trig/img/Stim/FN_018_g.png"",""time"":1025.0999999940395},{""stimulus"":""blank"",""time"":1341.300000011921},{""stimulus"":""https://ziweizhang0304.github.io/Stats_learning_trig/img/Stim/FN_012_g.png"",""time"":1363},{""stimulus"":""blank"",""time"":1671.5999999940395},{""stimulus"":""https://ziweizhang0304.github.io/Stats_learning_trig/img/Stim/FN_019_g.png"",""time"":1702.800000011921},{""stimulus"":""blank"",""time"":2004.5},{""stimulus"":""https://ziweizhang0304.github.io/Stats_learning_trig/img/Stim/FN_022_g.png"",""time"":2054.9000000059605},{""stimulus"":""blank"",""time"":2367},{""stimulus"":""https://ziweizhang0304.github.io/Stats_learning_trig/img/Stim/FN_011_g.png"",""time"":2382.7000000178814},{""stimulus"":""blank"",""time"":2696.5999999940395},{""stimulus"":""https://ziweizhang0304.github.io/Stats_learning_trig/img/Stim/FN_021_g.png"",""time"":2721.0999999940395},{""stimulus"":""blank"",""time"":3023.300000011921},{""stimulus"":""https://ziweizhang0304.github.io/Stats_learning_trig/img/Stim/FN_016_g.png"",""time"":3070.800000011921},{""stimulus"":""blank"",""time"":3386.5999999940395},{""stimulus"":""https://ziweizhang0304.github.io/Stats_learning_trig/img/Stim/FN_015_g.png"",""time"":3403},{""stimulus"":""blank"",""time"":3711.9000000059605},{""stimulus"":""https://ziweizhang0304.github.io/Stats_learning_trig/img/Stim/FN_010_g.png"",""time"":3742.800000011921},{""stimulus"":""blank"",""time"":4057.5},{""stimulus"":""https://ziweizhang0304.github.io/Stats_learning_trig/img/Stim/FN_017_g.png"",""time"":4081.2000000178814},{""stimulus"":""blank"",""time"":4386.700000017881}]","[{""key_press"":32,""rt"":1729.4000000059605,""stimulus"":""https://ziweizhang0304.github.io/Stats_learning_trig/img/Stim/FN_019_g.png""}]","366.40000000596046","https://ziweizhang0304.github.io/Stats_learning_trig/img/Stim/FN_012_g.png","post_TD","4","1363","1729.4000000059605","fast","4","1","5af59378f856320001cf2ffc","","","","","",""
"","image-keyboard-response","21","208228","0.0-5.0-4.0-0.0","915.6999999880791","","","https://ziweizhang0304.github.io/Stats_learning_trig/img/Stim/FN_006_g.png","13","","","","","","","","","","","","","","","","","",""
"","animation","22","212649","0.0-5.0-4.0-1.0","","","","","","[{""stimulus"":""https://ziweizhang0304.github.io/Stats_learning_trig/img/Stim/FN_021_g.png"",""time"":361.7999999821186},{""stimulus"":""blank"",""time"":672.8999999761581},{""stimulus"":""https://ziweizhang0304.github.io/Stats_learning_trig/img/Stim/FN_010_g.png"",""time"":687.7999999821186},{""stimulus"":""blank"",""time"":992.3999999761581},{""stimulus"":""https://ziweizhang0304.github.io/Stats_learning_trig/img/Stim/FN_026_g.png"",""time"":1021.2999999821186},{""stimulus"":""blank"",""time"":1322.5},{""stimulus"":""https://ziweizhang0304.github.io/Stats_learning_trig/img/Stim/FN_011_g.png"",""time"":1370.8999999761581},{""stimulus"":""blank"",""time"":1684.2999999821186},{""stimulus"":""https://ziweizhang0304.github.io/Stats_learning_trig/img/Stim/FN_006_g.png"",""time"":1702.5},{""stimulus"":""blank"",""time"":2003.2999999821186},{""stimulus"":""https://ziweizhang0304.github.io/Stats_learning_trig/img/Stim/FN_014_g.png"",""time"":2042.5},{""stimulus"":""blank"",""time"":2352.5999999940395},{""stimulus"":""https://ziweizhang0304.github.io/Stats_learning_trig/img/Stim/FN_024_g.png"",""time"":2384.699999988079},{""stimulus"":""blank"",""time"":2684.699999988079},{""stimulus"":""https://ziweizhang0304.github.io/Stats_learning_trig/img/Stim/FN_016_g.png"",""time"":2721.399999976158},{""stimulus"":""blank"",""time"":3032.7999999821186},{""stimulus"":""https://ziweizhang0304.github.io/Stats_learning_trig/img/Stim/FN_015_g.png"",""time"":3062.399999976158},{""stimulus"":""blank"",""time"":3364.2999999821186},{""stimulus"":""https://ziweizhang0304.github.io/Stats_learning_trig/img/Stim/FN_020_g.png"",""time"":3402.5999999940395},{""stimulus"":""blank"",""time"":3715},{""stimulus"":""https://ziweizhang0304.github.io/Stats_learning_trig/img/Stim/FN_017_g.png"",""time"":3747.0999999940395},{""stimulus"":""blank"",""time"":4062.5},{""stimulus"":""https://ziweizhang0304.github.io/Stats_learning_trig/img/Stim/FN_018_g.png"",""time"":4082.399999976158},{""stimulus"":""blank"",""time"":4387.399999976158}]","[{""key_press"":32,""rt"":2006.5,""stimulus"":""blank""}]","304","https://ziweizhang0304.github.io/Stats_learning_trig/img/Stim/FN_006_g.png","post_TD","5","1702.5","2006.5","slow","5","1","5af59378f856320001cf2ffc","","","","","",""
"","image-keyboard-response","23","213425","0.0-5.0-5.0-0.0","770.7999999821186","","","https://ziweizhang0304.github.io/Stats_learning_trig/img/Stim/FN_019_g.png","13","","","","","","","","","","","","","","","","","",""
"","animation","24","217848","0.0-5.0-5.0-1.0","","","","","","[{""stimulus"":""https://ziweizhang0304.github.io/Stats_learning_trig/img/Stim/FN_015_g.png"",""time"":349.09999999403954},{""stimulus"":""blank"",""time"":659.3000000119209},{""stimulus"":""https://ziweizhang0304.github.io/Stats_learning_trig/img/Stim/FN_010_g.png"",""time"":682},{""stimulus"":""blank"",""time"":989.9000000059605},{""stimulus"":""https://ziweizhang0304.github.io/Stats_learning_trig/img/Stim/FN_020_g.png"",""time"":1022.3000000119209},{""stimulus"":""blank"",""time"":1323.2000000178814},{""stimulus"":""https://ziweizhang0304.github.io/Stats_learning_trig/img/Stim/FN_021_g.png"",""time"":1362.5},{""stimulus"":""blank"",""time"":1673.800000011921},{""stimulus"":""https://ziweizhang0304.github.io/Stats_learning_trig/img/Stim/FN_016_g.png"",""time"":1701.300000011921},{""stimulus"":""blank"",""time"":2006.0999999940395},{""stimulus"":""https://ziweizhang0304.github.io/Stats_learning_trig/img/Stim/FN_011_g.png"",""time"":2053.300000011921},{""stimulus"":""blank"",""time"":2368.300000011921},{""stimulus"":""https://ziweizhang0304.github.io/Stats_learning_trig/img/Stim/FN_012_g.png"",""time"":2381.5},{""stimulus"":""blank"",""time"":2686.0999999940395},{""stimulus"":""https://ziweizhang0304.github.io/Stats_learning_trig/img/Stim/FN_019_g.png"",""time"":2721},{""stimulus"":""blank"",""time"":3034},{""stimulus"":""https://ziweizhang0304.github.io/Stats_learning_trig/img/Stim/FN_022_g.png"",""time"":3062.5999999940395},{""stimulus"":""blank"",""time"":3367.0999999940395},{""stimulus"":""https://ziweizhang0304.github.io/Stats_learning_trig/img/Stim/FN_026_g.png"",""time"":3402.300000011921},{""stimulus"":""blank"",""time"":3714.300000011921},{""stimulus"":""https://ziweizhang0304.github.io/Stats_learning_trig/img/Stim/FN_017_g.png"",""time"":3741.5999999940395},{""stimulus"":""blank"",""time"":4049.4000000059605},{""stimulus"":""https://ziweizhang0304.github.io/Stats_learning_trig/img/Stim/FN_018_g.png"",""time"":4097.5999999940395},{""stimulus"":""blank"",""time"":4410.300000011921}]","[{""key_press"":32,""rt"":3043.800000011921,""stimulus"":""blank""}]","322.80000001192093","https://ziweizhang0304.github.io/Stats_learning_trig/img/Stim/FN_019_g.png","post_TD","6","2721","3043.800000011921","fast","8","2","5af59378f856320001cf2ffc","","","","","",""
"","image-keyboard-response","25","218702","0.0-5.0-6.0-0.0","849.5","","","https://ziweizhang0304.github.io/Stats_learning_trig/img/Stim/FN_024_g.png","13","","","","","","","","","","","","","","","","","",""
"","animation","26","223124","0.0-5.0-6.0-1.0","","","","","","[{""stimulus"":""https://ziweizhang0304.github.io/Stats_learning_trig/img/Stim/FN_021_g.png"",""time"":354.89999997615814},{""stimulus"":""blank"",""time"":665.8999999761581},{""stimulus"":""https://ziweizhang0304.github.io/Stats_learning_trig/img/Stim/FN_010_g.png"",""time"":682.5},{""stimulus"":""blank"",""time"":1010.8999999761581},{""stimulus"":""https://ziweizhang0304.github.io/Stats_learning_trig/img/Stim/FN_026_g.png"",""time"":1030.2999999821186},{""stimulus"":""blank"",""time"":1346.5999999940395},{""stimulus"":""https://ziweizhang0304.github.io/Stats_learning_trig/img/Stim/FN_011_g.png"",""time"":1362},{""stimulus"":""blank"",""time"":1662.699999988079},{""stimulus"":""https://ziweizhang0304.github.io/Stats_learning_trig/img/Stim/FN_006_g.png"",""time"":1711.3999999761581},{""stimulus"":""blank"",""time"":2013.2999999821186},{""stimulus"":""https://ziweizhang0304.github.io/Stats_learning_trig/img/Stim/FN_014_g.png"",""time"":2042},{""stimulus"":""blank"",""time"":2346.399999976158},{""stimulus"":""https://ziweizhang0304.github.io/Stats_learning_trig/img/Stim/FN_024_g.png"",""time"":2394.199999988079},{""stimulus"":""blank"",""time"":2710.399999976158},{""stimulus"":""https://ziweizhang0304.github.io/Stats_learning_trig/img/Stim/FN_016_g.png"",""time"":2721.899999976158},{""stimulus"":""blank"",""time"":3023},{""stimulus"":""https://ziweizhang0304.github.io/Stats_learning_trig/img/Stim/FN_015_g.png"",""time"":3071.5},{""stimulus"":""blank"",""time"":3388.0999999940395},{""stimulus"":""https://ziweizhang0304.github.io/Stats_learning_trig/img/Stim/FN_020_g.png"",""time"":3401.699999988079},{""stimulus"":""blank"",""time"":3702.199999988079},{""stimulus"":""https://ziweizhang0304.github.io/Stats_learning_trig/img/Stim/FN_017_g.png"",""time"":3749.5},{""stimulus"":""blank"",""time"":4071.5999999940395},{""stimulus"":""https://ziweizhang0304.github.io/Stats_learning_trig/img/Stim/FN_018_g.png"",""time"":4082.2999999821186},{""stimulus"":""blank"",""time"":4382.799999982119}]","[{""key_press"":32,""rt"":2713,""stimulus"":""blank""}]","318.80000001192093","https://ziweizhang0304.github.io/Stats_learning_trig/img/Stim/FN_024_g.png","post_TD","7","2394.199999988079","2713","slow","7","3","5af59378f856320001cf2ffc","","","","","",""
"","image-keyboard-response","27","223888","0.0-5.0-7.0-0.0","762.8000000119209","","","https://ziweizhang0304.github.io/Stats_learning_trig/img/Stim/FN_022_g.png","13","","","","","","","","","","","","","","","","","",""
"","animation","28","228320","0.0-5.0-7.0-1.0","","","","","","[{""stimulus"":""https://ziweizhang0304.github.io/Stats_learning_trig/img/Stim/FN_020_g.png"",""time"":341.5},{""stimulus"":""blank"",""time"":655.4000000059605},{""stimulus"":""https://ziweizhang0304.github.io/Stats_learning_trig/img/Stim/FN_026_g.png"",""time"":682.5},{""stimulus"":""blank"",""time"":987.8000000119209},{""stimulus"":""https://ziweizhang0304.github.io/Stats_learning_trig/img/Stim/FN_018_g.png"",""time"":1036.6000000238419},{""stimulus"":""blank"",""time"":1356.9000000059605},{""stimulus"":""https://ziweizhang0304.github.io/Stats_learning_trig/img/Stim/FN_012_g.png"",""time"":1362.800000011921},{""stimulus"":""blank"",""time"":1667},{""stimulus"":""https://ziweizhang0304.github.io/Stats_learning_trig/img/Stim/FN_019_g.png"",""time"":1702.1000000238419},{""stimulus"":""blank"",""time"":2016.7000000178814},{""stimulus"":""https://ziweizhang0304.github.io/Stats_learning_trig/img/Stim/FN_022_g.png"",""time"":2041.6000000238419},{""stimulus"":""blank"",""time"":2343.800000011921},{""stimulus"":""https://ziweizhang0304.github.io/Stats_learning_trig/img/Stim/FN_011_g.png"",""time"":2383},{""stimulus"":""blank"",""time"":2689.300000011921},{""stimulus"":""https://ziweizhang0304.github.io/Stats_learning_trig/img/Stim/FN_021_g.png"",""time"":2720.7000000178814},{""stimulus"":""blank"",""time"":3022.9000000059605},{""stimulus"":""https://ziweizhang0304.github.io/Stats_learning_trig/img/Stim/FN_016_g.png"",""time"":3062.100000023842},{""stimulus"":""blank"",""time"":3368.2000000178814},{""stimulus"":""https://ziweizhang0304.github.io/Stats_learning_trig/img/Stim/FN_015_g.png"",""time"":3402.5},{""stimulus"":""blank"",""time"":3717.100000023842},{""stimulus"":""https://ziweizhang0304.github.io/Stats_learning_trig/img/Stim/FN_010_g.png"",""time"":3742.4000000059605},{""stimulus"":""blank"",""time"":4054.100000023842},{""stimulus"":""https://ziweizhang0304.github.io/Stats_learning_trig/img/Stim/FN_017_g.png"",""time"":4082.9000000059605},{""stimulus"":""blank"",""time"":4384}]","[{""key_press"":32,""rt"":2289.699999988079,""stimulus"":""https://ziweizhang0304.github.io/Stats_learning_trig/img/Stim/FN_022_g.png""}]","248.0999999642372","https://ziweizhang0304.github.io/Stats_learning_trig/img/Stim/FN_022_g.png","post_TD","8","2041.6000000238419","2289.699999988079","fast","6","3","5af59378f856320001cf2ffc","","","","","",""
"","image-keyboard-response","29","229318","0.0-5.0-8.0-0.0","993.3000000119209","","","https://ziweizhang0304.github.io/Stats_learning_trig/img/Stim/FN_014_g.png","13","","","","","","","","","","","","","","","","","",""
"","animation","30","233740","0.0-5.0-8.0-1.0","","","","","","[{""stimulus"":""https://ziweizhang0304.github.io/Stats_learning_trig/img/Stim/FN_017_g.png"",""time"":355.90000000596046},{""stimulus"":""blank"",""time"":659.5999999940395},{""stimulus"":""https://ziweizhang0304.github.io/Stats_learning_trig/img/Stim/FN_021_g.png"",""time"":681.5999999940395},{""stimulus"":""blank"",""time"":993},{""stimulus"":""https://ziweizhang0304.github.io/Stats_learning_trig/img/Stim/FN_011_g.png"",""time"":1022.4000000059605},{""stimulus"":""blank"",""time"":1323.5999999940395},{""stimulus"":""https://ziweizhang0304.github.io/Stats_learning_trig/img/Stim/FN_018_g.png"",""time"":1362.199999988079},{""stimulus"":""blank"",""time"":1674.300000011921},{""stimulus"":""https://ziweizhang0304.github.io/Stats_learning_trig/img/Stim/FN_020_g.png"",""time"":1702.5999999940395},{""stimulus"":""blank"",""time"":2008.199999988079},{""stimulus"":""https://ziweizhang0304.github.io/Stats_learning_trig/img/Stim/FN_006_g.png"",""time"":2040.699999988079},{""stimulus"":""blank"",""time"":2354.5999999940395},{""stimulus"":""https://ziweizhang0304.github.io/Stats_learning_trig/img/Stim/FN_014_g.png"",""time"":2381.4000000059605},{""stimulus"":""blank"",""time"":2689.5},{""stimulus"":""https://ziweizhang0304.github.io/Stats_learning_trig/img/Stim/FN_024_g.png"",""time"":2723.9000000059605},{""stimulus"":""blank"",""time"":3039.699999988079},{""stimulus"":""https://ziweizhang0304.github.io/Stats_learning_trig/img/Stim/FN_016_g.png"",""time"":3061.0999999940395},{""stimulus"":""blank"",""time"":3367.199999988079},{""stimulus"":""https://ziweizhang0304.github.io/Stats_learning_trig/img/Stim/FN_015_g.png"",""time"":3404},{""stimulus"":""blank"",""time"":3712.300000011921},{""stimulus"":""https://ziweizhang0304.github.io/Stats_learning_trig/img/Stim/FN_010_g.png"",""time"":3744.5},{""stimulus"":""blank"",""time"":4046.0999999940395},{""stimulus"":""https://ziweizhang0304.github.io/Stats_learning_trig/img/Stim/FN_026_g.png"",""time"":4093.9000000059605},{""stimulus"":""blank"",""time"":4395.5999999940395}]","[{""key_press"":32,""rt"":2389.5,""stimulus"":""https://ziweizhang0304.github.io/Stats_learning_trig/img/Stim/FN_014_g.png""}]","8.099999994039536","https://ziweizhang0304.github.io/Stats_learning_trig/img/Stim/FN_014_g.png","post_TD","9","2381.4000000059605","2389.5","slow","7","2","5af59378f856320001cf2ffc","","","","","",""
"","image-keyboard-response","31","234319","0.0-5.0-9.0-0.0","575.6999999880791","","","https://ziweizhang0304.github.io/Stats_learning_trig/img/Stim/FN_014_g.png","13","","","","","","","","","","","","","","","","","",""
"","animation","32","238740","0.0-5.0-9.0-1.0","","","","","","[{""stimulus"":""https://ziweizhang0304.github.io/Stats_learning_trig/img/Stim/FN_026_g.png"",""time"":345.5},{""stimulus"":""blank"",""time"":661.5999999940395},{""stimulus"":""https://ziweizhang0304.github.io/Stats_learning_trig/img/Stim/FN_021_g.png"",""time"":682.2999999821186},{""stimulus"":""blank"",""time"":1005.2999999821186},{""stimulus"":""https://ziweizhang0304.github.io/Stats_learning_trig/img/Stim/FN_016_g.png"",""time"":1021.2999999821186},{""stimulus"":""blank"",""time"":1330.0999999940395},{""stimulus"":""https://ziweizhang0304.github.io/Stats_learning_trig/img/Stim/FN_010_g.png"",""time"":1362.5999999940395},{""stimulus"":""blank"",""time"":1671.4000000059605},{""stimulus"":""https://ziweizhang0304.github.io/Stats_learning_trig/img/Stim/FN_017_g.png"",""time"":1701.7999999821186},{""stimulus"":""blank"",""time"":2016},{""stimulus"":""https://ziweizhang0304.github.io/Stats_learning_trig/img/Stim/FN_011_g.png"",""time"":2047},{""stimulus"":""blank"",""time"":2358.5},{""stimulus"":""https://ziweizhang0304.github.io/Stats_learning_trig/img/Stim/FN_006_g.png"",""time"":2382.699999988079},{""stimulus"":""blank"",""time"":2690.699999988079},{""stimulus"":""https://ziweizhang0304.github.io/Stats_learning_trig/img/Stim/FN_014_g.png"",""time"":2722.0999999940395},{""stimulus"":""blank"",""time"":3041.5},{""stimulus"":""https://ziweizhang0304.github.io/Stats_learning_trig/img/Stim/FN_024_g.png"",""time"":3070.5},{""stimulus"":""blank"",""time"":3373.9000000059605},{""stimulus"":""https://ziweizhang0304.github.io/Stats_learning_trig/img/Stim/FN_015_g.png"",""time"":3402.2999999821186},{""stimulus"":""blank"",""time"":3703.0999999940395},{""stimulus"":""https://ziweizhang0304.github.io/Stats_learning_trig/img/Stim/FN_020_g.png"",""time"":3751.7999999821186},{""stimulus"":""blank"",""time"":4061.7999999821186},{""stimulus"":""https://ziweizhang0304.github.io/Stats_learning_trig/img/Stim/FN_018_g.png"",""time"":4082.2999999821186},{""stimulus"":""blank"",""time"":4393.4000000059605}]","[{""key_press"":32,""rt"":3046.600000023842,""stimulus"":""blank""}]","324.5000000298023","https://ziweizhang0304.github.io/Stats_learning_trig/img/Stim/FN_014_g.png","post_TD","10","2722.0999999940395","3046.600000023842","slow","8","2","5af59378f856320001cf2ffc","","","","","",""
"","image-keyboard-response","33","239605","0.0-5.0-10.0-0.0","862.2000000178814","","","https://ziweizhang0304.github.io/Stats_learning_trig/img/Stim/FN_019_g.png","13","","","","","","","","","","","","","","","","","",""
"","animation","34","244028","0.0-5.0-10.0-1.0","","","","","","[{""stimulus"":""https://ziweizhang0304.github.io/Stats_learning_trig/img/Stim/FN_020_g.png"",""time"":353.2999999821186},{""stimulus"":""blank"",""time"":668},{""stimulus"":""https://ziweizhang0304.github.io/Stats_learning_trig/img/Stim/FN_026_g.png"",""time"":699.0999999940395},{""stimulus"":""blank"",""time"":1016.4000000059605},{""stimulus"":""https://ziweizhang0304.github.io/Stats_learning_trig/img/Stim/FN_018_g.png"",""time"":1026.5},{""stimulus"":""blank"",""time"":1338.5999999940395},{""stimulus"":""https://ziweizhang0304.github.io/Stats_learning_trig/img/Stim/FN_012_g.png"",""time"":1363.2999999821186},{""stimulus"":""blank"",""time"":1668.699999988079},{""stimulus"":""https://ziweizhang0304.github.io/Stats_learning_trig/img/Stim/FN_019_g.png"",""time"":1712.7999999821186},{""stimulus"":""blank"",""time"":2024.0999999940395},{""stimulus"":""https://ziweizhang0304.github.io/Stats_learning_trig/img/Stim/FN_022_g.png"",""time"":2041},{""stimulus"":""blank"",""time"":2357.5},{""stimulus"":""https://ziweizhang0304.github.io/Stats_learning_trig/img/Stim/FN_011_g.png"",""time"":2383.699999988079},{""stimulus"":""blank"",""time"":2714.7999999821186},{""stimulus"":""https://ziweizhang0304.github.io/Stats_learning_trig/img/Stim/FN_021_g.png"",""time"":2720.7999999821186},{""stimulus"":""blank"",""time"":3021.9000000059605},{""stimulus"":""https://ziweizhang0304.github.io/Stats_learning_trig/img/Stim/FN_016_g.png"",""time"":3070.199999988079},{""stimulus"":""blank"",""time"":3384.9000000059605},{""stimulus"":""https://ziweizhang0304.github.io/Stats_learning_trig/img/Stim/FN_015_g.png"",""time"":3401.7999999821186},{""stimulus"":""blank"",""time"":3702.199999988079},{""stimulus"":""https://ziweizhang0304.github.io/Stats_learning_trig/img/Stim/FN_010_g.png"",""time"":3747.0999999940395},{""stimulus"":""blank"",""time"":4050.4000000059605},{""stimulus"":""https://ziweizhang0304.github.io/Stats_learning_trig/img/Stim/FN_017_g.png"",""time"":4080.9000000059605},{""stimulus"":""blank"",""time"":4384.799999982119}]","[{""key_press"":32,""rt"":2031.6000000238419,""stimulus"":""blank""}]","318.80000004172325","https://ziweizhang0304.github.io/Stats_learning_trig/img/Stim/FN_019_g.png","post_TD","11","1712.7999999821186","2031.6000000238419","fast","5","2","5af59378f856320001cf2ffc","","","","","",""
"","image-keyboard-response","35","244605","0.0-5.0-11.0-0.0","574.2999999821186","","","https://ziweizhang0304.github.io/Stats_learning_trig/img/Stim/FN_006_g.png","13","","","","","","","","","","","","","","","","","",""
"","animation","36","249026","0.0-5.0-11.0-1.0","","","","","","[{""stimulus"":""https://ziweizhang0304.github.io/Stats_learning_trig/img/Stim/FN_026_g.png"",""time"":352.40000000596046},{""stimulus"":""blank"",""time"":666.6999999880791},{""stimulus"":""https://ziweizhang0304.github.io/Stats_learning_trig/img/Stim/FN_021_g.png"",""time"":684.6999999880791},{""stimulus"":""blank"",""time"":1000.2999999821186},{""stimulus"":""https://ziweizhang0304.github.io/Stats_learning_trig/img/Stim/FN_016_g.png"",""time"":1022.6999999880791},{""stimulus"":""blank"",""time"":1341.5999999940395},{""stimulus"":""https://ziweizhang0304.github.io/Stats_learning_trig/img/Stim/FN_010_g.png"",""time"":1361.5},{""stimulus"":""blank"",""time"":1671.5},{""stimulus"":""https://ziweizhang0304.github.io/Stats_learning_trig/img/Stim/FN_017_g.png"",""time"":1702.5999999940395},{""stimulus"":""blank"",""time"":2016.5999999940395},{""stimulus"":""https://ziweizhang0304.github.io/Stats_learning_trig/img/Stim/FN_011_g.png"",""time"":2042.4000000059605},{""stimulus"":""blank"",""time"":2349.0999999940395},{""stimulus"":""https://ziweizhang0304.github.io/Stats_learning_trig/img/Stim/FN_006_g.png"",""time"":2400.2999999821186},{""stimulus"":""blank"",""time"":2714.7999999821186},{""stimulus"":""https://ziweizhang0304.github.io/Stats_learning_trig/img/Stim/FN_014_g.png"",""time"":2721.2999999821186},{""stimulus"":""blank"",""time"":3033.699999988079},{""stimulus"":""https://ziweizhang0304.github.io/Stats_learning_trig/img/Stim/FN_024_g.png"",""time"":3066.5999999940395},{""stimulus"":""blank"",""time"":3384.699999988079},{""stimulus"":""https://ziweizhang0304.github.io/Stats_learning_trig/img/Stim/FN_015_g.png"",""time"":3402.199999988079},{""stimulus"":""blank"",""time"":3718.699999988079},{""stimulus"":""https://ziweizhang0304.github.io/Stats_learning_trig/img/Stim/FN_020_g.png"",""time"":3742.0999999940395},{""stimulus"":""blank"",""time"":4059.5999999940395},{""stimulus"":""https://ziweizhang0304.github.io/Stats_learning_trig/img/Stim/FN_018_g.png"",""time"":4082},{""stimulus"":""blank"",""time"":4385.5}]","[{""key_press"":32,""rt"":2713.800000011921,""stimulus"":""https://ziweizhang0304.github.io/Stats_learning_trig/img/Stim/FN_006_g.png""}]","313.5000000298023","https://ziweizhang0304.github.io/Stats_learning_trig/img/Stim/FN_006_g.png","post_TD","12","2400.2999999821186","2713.800000011921","slow","7","1","5af59378f856320001cf2ffc","","","","","",""
"","image-keyboard-response","37","249511","0.0-5.0-12.0-0.0","481.60000002384186","","","https://ziweizhang0304.github.io/Stats_learning_trig/img/Stim/FN_012_g.png","13","","","","","","","","","","","","","","","","","",""
"","animation","38","253933","0.0-5.0-12.0-1.0","","","","","","[{""stimulus"":""https://ziweizhang0304.github.io/Stats_learning_trig/img/Stim/FN_018_g.png"",""time"":348.89999997615814},{""stimulus"":""blank"",""time"":650.5},{""stimulus"":""https://ziweizhang0304.github.io/Stats_learning_trig/img/Stim/FN_026_g.png"",""time"":681.5},{""stimulus"":""blank"",""time"":997.1999999880791},{""stimulus"":""https://ziweizhang0304.github.io/Stats_learning_trig/img/Stim/FN_010_g.png"",""time"":1021.3999999761581},{""stimulus"":""blank"",""time"":1329.0999999940395},{""stimulus"":""https://ziweizhang0304.github.io/Stats_learning_trig/img/Stim/FN_011_g.png"",""time"":1361.3999999761581},{""stimulus"":""blank"",""time"":1662.2999999821186},{""stimulus"":""https://ziweizhang0304.github.io/Stats_learning_trig/img/Stim/FN_012_g.png"",""time"":1709.5999999940395},{""stimulus"":""blank"",""time"":2026.5},{""stimulus"":""https://ziweizhang0304.github.io/Stats_learning_trig/img/Stim/FN_019_g.png"",""time"":2042},{""stimulus"":""blank"",""time"":2354.699999988079},{""stimulus"":""https://ziweizhang0304.github.io/Stats_learning_trig/img/Stim/FN_022_g.png"",""time"":2381.2999999821186},{""stimulus"":""blank"",""time"":2696.399999976158},{""stimulus"":""https://ziweizhang0304.github.io/Stats_learning_trig/img/Stim/FN_021_g.png"",""time"":2720.899999976158},{""stimulus"":""blank"",""time"":3027.7999999821186},{""stimulus"":""https://ziweizhang0304.github.io/Stats_learning_trig/img/Stim/FN_016_g.png"",""time"":3062.5},{""stimulus"":""blank"",""time"":3369.0999999940395},{""stimulus"":""https://ziweizhang0304.github.io/Stats_learning_trig/img/Stim/FN_015_g.png"",""time"":3401.0999999940395},{""stimulus"":""blank"",""time"":3712.399999976158},{""stimulus"":""https://ziweizhang0304.github.io/Stats_learning_trig/img/Stim/FN_020_g.png"",""time"":3743.5},{""stimulus"":""blank"",""time"":4047},{""stimulus"":""https://ziweizhang0304.github.io/Stats_learning_trig/img/Stim/FN_017_g.png"",""time"":4093.5},{""stimulus"":""blank"",""time"":4394.299999982119}]","[{""key_press"":32,""rt"":2047.5,""stimulus"":""https://ziweizhang0304.github.io/Stats_learning_trig/img/Stim/FN_019_g.png""}]","337.90000000596046","https://ziweizhang0304.github.io/Stats_learning_trig/img/Stim/FN_012_g.png","post_TD","13","1709.5999999940395","2047.5","fast","5","1","5af59378f856320001cf2ffc","","","","","",""
"","image-keyboard-response","39","254470","0.0-5.0-13.0-0.0","533.5","","","https://ziweizhang0304.github.io/Stats_learning_trig/img/Stim/FN_024_g.png","13","","","","","","","","","","","","","","","","","",""
"","animation","40","258892","0.0-5.0-13.0-1.0","","","","","","[{""stimulus"":""https://ziweizhang0304.github.io/Stats_learning_trig/img/Stim/FN_026_g.png"",""time"":350.7999999821186},{""stimulus"":""blank"",""time"":661.7999999821186},{""stimulus"":""https://ziweizhang0304.github.io/Stats_learning_trig/img/Stim/FN_021_g.png"",""time"":680.9000000059605},{""stimulus"":""blank"",""time"":988.5},{""stimulus"":""https://ziweizhang0304.github.io/Stats_learning_trig/img/Stim/FN_016_g.png"",""time"":1021},{""stimulus"":""blank"",""time"":1336.2999999821186},{""stimulus"":""https://ziweizhang0304.github.io/Stats_learning_trig/img/Stim/FN_010_g.png"",""time"":1361.699999988079},{""stimulus"":""blank"",""time"":1674.0999999940395},{""stimulus"":""https://ziweizhang0304.github.io/Stats_learning_trig/img/Stim/FN_017_g.png"",""time"":1701.9000000059605},{""stimulus"":""blank"",""time"":2005.4000000059605},{""stimulus"":""https://ziweizhang0304.github.io/Stats_learning_trig/img/Stim/FN_011_g.png"",""time"":2052.7999999821186},{""stimulus"":""blank"",""time"":2355.2999999821186},{""stimulus"":""https://ziweizhang0304.github.io/Stats_learning_trig/img/Stim/FN_006_g.png"",""time"":2381},{""stimulus"":""blank"",""time"":2690.2999999821186},{""stimulus"":""https://ziweizhang0304.github.io/Stats_learning_trig/img/Stim/FN_014_g.png"",""time"":2721.2999999821186},{""stimulus"":""blank"",""time"":3036.0999999940395},{""stimulus"":""https://ziweizhang0304.github.io/Stats_learning_trig/img/Stim/FN_024_g.png"",""time"":3062.199999988079},{""stimulus"":""blank"",""time"":3363.199999988079},{""stimulus"":""https://ziweizhang0304.github.io/Stats_learning_trig/img/Stim/FN_015_g.png"",""time"":3402.199999988079},{""stimulus"":""blank"",""time"":3707.0999999940395},{""stimulus"":""https://ziweizhang0304.github.io/Stats_learning_trig/img/Stim/FN_020_g.png"",""time"":3755.5},{""stimulus"":""blank"",""time"":4067.0999999940395},{""stimulus"":""https://ziweizhang0304.github.io/Stats_learning_trig/img/Stim/FN_018_g.png"",""time"":4080.5},{""stimulus"":""blank"",""time"":4394.299999982119}]","[{""key_press"":32,""rt"":3351.800000011921,""stimulus"":""https://ziweizhang0304.github.io/Stats_learning_trig/img/Stim/FN_024_g.png""}]","289.60000002384186","https://ziweizhang0304.github.io/Stats_learning_trig/img/Stim/FN_024_g.png","post_TD","14","3062.199999988079","3351.800000011921","slow","9","3","5af59378f856320001cf2ffc","","","","","",""
"","image-keyboard-response","41","259368","0.0-5.0-14.0-0.0","473.40000000596046","","","https://ziweizhang0304.github.io/Stats_learning_trig/img/Stim/FN_014_g.png","13","","","","","","","","","","","","","","","","","",""
"","animation","42","263789","0.0-5.0-14.0-1.0","","","","","","[{""stimulus"":""https://ziweizhang0304.github.io/Stats_learning_trig/img/Stim/FN_021_g.png"",""time"":353},{""stimulus"":""blank"",""time"":654.4000000059605},{""stimulus"":""https://ziweizhang0304.github.io/Stats_learning_trig/img/Stim/FN_010_g.png"",""time"":681.4000000059605},{""stimulus"":""blank"",""time"":986.1999999880791},{""stimulus"":""https://ziweizhang0304.github.io/Stats_learning_trig/img/Stim/FN_026_g.png"",""time"":1036.699999988079},{""stimulus"":""blank"",""time"":1353.699999988079},{""stimulus"":""https://ziweizhang0304.github.io/Stats_learning_trig/img/Stim/FN_011_g.png"",""time"":1367.300000011921},{""stimulus"":""blank"",""time"":1670.0999999940395},{""stimulus"":""https://ziweizhang0304.github.io/Stats_learning_trig/img/Stim/FN_006_g.png"",""time"":1701.5},{""stimulus"":""blank"",""time"":2013.300000011921},{""stimulus"":""https://ziweizhang0304.github.io/Stats_learning_trig/img/Stim/FN_014_g.png"",""time"":2045},{""stimulus"":""blank"",""time"":2359.0999999940395},{""stimulus"":""https://ziweizhang0304.github.io/Stats_learning_trig/img/Stim/FN_024_g.png"",""time"":2391.300000011921},{""stimulus"":""blank"",""time"":2692.0999999940395},{""stimulus"":""https://ziweizhang0304.github.io/Stats_learning_trig/img/Stim/FN_016_g.png"",""time"":2721.5},{""stimulus"":""blank"",""time"":3024},{""stimulus"":""https://ziweizhang0304.github.io/Stats_learning_trig/img/Stim/FN_015_g.png"",""time"":3062.0999999940395},{""stimulus"":""blank"",""time"":3375.800000011921},{""stimulus"":""https://ziweizhang0304.github.io/Stats_learning_trig/img/Stim/FN_020_g.png"",""time"":3402.699999988079},{""stimulus"":""blank"",""time"":3703.199999988079},{""stimulus"":""https://ziweizhang0304.github.io/Stats_learning_trig/img/Stim/FN_017_g.png"",""time"":3751.5},{""stimulus"":""blank"",""time"":4054.300000011921},{""stimulus"":""https://ziweizhang0304.github.io/Stats_learning_trig/img/Stim/FN_018_g.png"",""time"":4081.0999999940395},{""stimulus"":""blank"",""time"":4388.800000011921}]","[{""key_press"":32,""rt"":2086.0999999940395,""stimulus"":""https://ziweizhang0304.github.io/Stats_learning_trig/img/Stim/FN_014_g.png""}]","41.099999994039536","https://ziweizhang0304.github.io/Stats_learning_trig/img/Stim/FN_014_g.png","post_TD","15","2045","2086.0999999940395","slow","6","2","5af59378f856320001cf2ffc","","","","","",""
"","image-keyboard-response","43","264335","0.0-5.0-15.0-0.0","544","","","https://ziweizhang0304.github.io/Stats_learning_trig/img/Stim/FN_022_g.png","13","","","","","","","","","","","","","","","","","",""
"","animation","44","268757","0.0-5.0-15.0-1.0","","","","","","[{""stimulus"":""https://ziweizhang0304.github.io/Stats_learning_trig/img/Stim/FN_018_g.png"",""time"":344},{""stimulus"":""blank"",""time"":656.0999999940395},{""stimulus"":""https://ziweizhang0304.github.io/Stats_learning_trig/img/Stim/FN_026_g.png"",""time"":680.5},{""stimulus"":""blank"",""time"":985.4000000059605},{""stimulus"":""https://ziweizhang0304.github.io/Stats_learning_trig/img/Stim/FN_010_g.png"",""time"":1028.699999988079},{""stimulus"":""blank"",""time"":1342.0999999940395},{""stimulus"":""https://ziweizhang0304.github.io/Stats_learning_trig/img/Stim/FN_011_g.png"",""time"":1372.4000000059605},{""stimulus"":""blank"",""time"":1686.199999988079},{""stimulus"":""https://ziweizhang0304.github.io/Stats_learning_trig/img/Stim/FN_012_g.png"",""time"":1702.2999999821186},{""stimulus"":""blank"",""time"":2016},{""stimulus"":""https://ziweizhang0304.github.io/Stats_learning_trig/img/Stim/FN_019_g.png"",""time"":2042.0999999940395},{""stimulus"":""blank"",""time"":2355.7999999821186},{""stimulus"":""https://ziweizhang0304.github.io/Stats_learning_trig/img/Stim/FN_022_g.png"",""time"":2384.0999999940395},{""stimulus"":""blank"",""time"":2686.0999999940395},{""stimulus"":""https://ziweizhang0304.github.io/Stats_learning_trig/img/Stim/FN_021_g.png"",""time"":2734.5},{""stimulus"":""blank"",""time"":3035.699999988079},{""stimulus"":""https://ziweizhang0304.github.io/Stats_learning_trig/img/Stim/FN_016_g.png"",""time"":3061},{""stimulus"":""blank"",""time"":3374.2999999821186},{""stimulus"":""https://ziweizhang0304.github.io/Stats_learning_trig/img/Stim/FN_015_g.png"",""time"":3401.5},{""stimulus"":""blank"",""time"":3716.9000000059605},{""stimulus"":""https://ziweizhang0304.github.io/Stats_learning_trig/img/Stim/FN_020_g.png"",""time"":3741.699999988079},{""stimulus"":""blank"",""time"":4058.0999999940395},{""stimulus"":""https://ziweizhang0304.github.io/Stats_learning_trig/img/Stim/FN_017_g.png"",""time"":4083.5},{""stimulus"":""blank"",""time"":4386.0999999940395}]","[{""key_press"":32,""rt"":2700.199999988079,""stimulus"":""blank""}]","316.09999999403954","https://ziweizhang0304.github.io/Stats_learning_trig/img/Stim/FN_022_g.png","post_TD","16","2384.0999999940395","2700.199999988079","fast","7","3","5af59378f856320001cf2ffc","","","","","",""
"","image-keyboard-response","45","269139","0.0-5.0-16.0-0.0","379.5","","","https://ziweizhang0304.github.io/Stats_learning_trig/img/Stim/FN_024_g.png","13","","","","","","","","","","","","","","","","","",""
"","animation","46","273575","0.0-5.0-16.0-1.0","","","","","","[{""stimulus"":""https://ziweizhang0304.github.io/Stats_learning_trig/img/Stim/FN_021_g.png"",""time"":349.59999999403954},{""stimulus"":""blank"",""time"":662.4000000059605},{""stimulus"":""https://ziweizhang0304.github.io/Stats_learning_trig/img/Stim/FN_020_g.png"",""time"":681.7999999821186},{""stimulus"":""blank"",""time"":990.5999999940395},{""stimulus"":""https://ziweizhang0304.github.io/Stats_learning_trig/img/Stim/FN_015_g.png"",""time"":1021.6999999880791},{""stimulus"":""blank"",""time"":1339.0999999940395},{""stimulus"":""https://ziweizhang0304.github.io/Stats_learning_trig/img/Stim/FN_006_g.png"",""time"":1361.199999988079},{""stimulus"":""blank"",""time"":1662.199999988079},{""stimulus"":""https://ziweizhang0304.github.io/Stats_learning_trig/img/Stim/FN_014_g.png"",""time"":1701.0999999940395},{""stimulus"":""blank"",""time"":2005.4000000059605},{""stimulus"":""https://ziweizhang0304.github.io/Stats_learning_trig/img/Stim/FN_024_g.png"",""time"":2042.199999988079},{""stimulus"":""blank"",""time"":2351.5},{""stimulus"":""https://ziweizhang0304.github.io/Stats_learning_trig/img/Stim/FN_011_g.png"",""time"":2384.5},{""stimulus"":""blank"",""time"":2692.7999999821186},{""stimulus"":""https://ziweizhang0304.github.io/Stats_learning_trig/img/Stim/FN_016_g.png"",""time"":2721.7999999821186},{""stimulus"":""blank"",""time"":3022.0999999940395},{""stimulus"":""https://ziweizhang0304.github.io/Stats_learning_trig/img/Stim/FN_010_g.png"",""time"":3064.7999999821186},{""stimulus"":""blank"",""time"":3365.699999988079},{""stimulus"":""https://ziweizhang0304.github.io/Stats_learning_trig/img/Stim/FN_026_g.png"",""time"":3401.7999999821186},{""stimulus"":""blank"",""time"":3709},{""stimulus"":""https://ziweizhang0304.github.io/Stats_learning_trig/img/Stim/FN_017_g.png"",""time"":3741.9000000059605},{""stimulus"":""blank"",""time"":4051.9000000059605},{""stimulus"":""https://ziweizhang0304.github.io/Stats_learning_trig/img/Stim/FN_018_g.png"",""time"":4082.4000000059605},{""stimulus"":""blank"",""time"":4387.9000000059605}]","[{""key_press"":32,""rt"":2382.9000000059605,""stimulus"":""blank""}]","340.7000000178814","https://ziweizhang0304.github.io/Stats_learning_trig/img/Stim/FN_024_g.png","post_TD","17","2042.199999988079","2382.9000000059605","slow","6","3","5af59378f856320001cf2ffc","","","","","",""
"","image-keyboard-response","47","273921","0.0-5.0-17.0-0.0","338.7000000178814","","","https://ziweizhang0304.github.io/Stats_learning_trig/img/Stim/FN_024_g.png","13","","","","","","","","","","","","","","","","","",""
"","animation","48","278348","0.0-5.0-17.0-1.0","","","","","","[{""stimulus"":""https://ziweizhang0304.github.io/Stats_learning_trig/img/Stim/FN_017_g.png"",""time"":344.40000000596046},{""stimulus"":""blank"",""time"":658.6000000238419},{""stimulus"":""https://ziweizhang0304.github.io/Stats_learning_trig/img/Stim/FN_021_g.png"",""time"":681.6000000238419},{""stimulus"":""blank"",""time"":995.7000000178814},{""stimulus"":""https://ziweizhang0304.github.io/Stats_learning_trig/img/Stim/FN_011_g.png"",""time"":1021.3000000119209},{""stimulus"":""blank"",""time"":1329.4000000059605},{""stimulus"":""https://ziweizhang0304.github.io/Stats_learning_trig/img/Stim/FN_018_g.png"",""time"":1362},{""stimulus"":""blank"",""time"":1673.9000000059605},{""stimulus"":""https://ziweizhang0304.github.io/Stats_learning_trig/img/Stim/FN_020_g.png"",""time"":1701.7000000178814},{""stimulus"":""blank"",""time"":2017.2000000178814},{""stimulus"":""https://ziweizhang0304.github.io/Stats_learning_trig/img/Stim/FN_006_g.png"",""time"":2044.800000011921},{""stimulus"":""blank"",""time"":2345.300000011921},{""stimulus"":""https://ziweizhang0304.github.io/Stats_learning_trig/img/Stim/FN_014_g.png"",""time"":2394},{""stimulus"":""blank"",""time"":2702.5},{""stimulus"":""https://ziweizhang0304.github.io/Stats_learning_trig/img/Stim/FN_024_g.png"",""time"":2721.600000023842},{""stimulus"":""blank"",""time"":3022.5},{""stimulus"":""https://ziweizhang0304.github.io/Stats_learning_trig/img/Stim/FN_016_g.png"",""time"":3061.800000011921},{""stimulus"":""blank"",""time"":3376.9000000059605},{""stimulus"":""https://ziweizhang0304.github.io/Stats_learning_trig/img/Stim/FN_015_g.png"",""time"":3401.800000011921},{""stimulus"":""blank"",""time"":3703.7000000178814},{""stimulus"":""https://ziweizhang0304.github.io/Stats_learning_trig/img/Stim/FN_010_g.png"",""time"":3751.7000000178814},{""stimulus"":""blank"",""time"":4063.600000023842},{""stimulus"":""https://ziweizhang0304.github.io/Stats_learning_trig/img/Stim/FN_026_g.png"",""time"":4095.300000011921},{""stimulus"":""blank"",""time"":4407.600000023842}]","[{""key_press"":32,""rt"":3015.4000000059605,""stimulus"":""https://ziweizhang0304.github.io/Stats_learning_trig/img/Stim/FN_024_g.png""}]","293.7999999821186","https://ziweizhang0304.github.io/Stats_learning_trig/img/Stim/FN_024_g.png","post_TD","18","2721.600000023842","3015.4000000059605","slow","8","3","5af59378f856320001cf2ffc","","","","","",""
"","image-keyboard-response","49","279263","0.0-5.0-18.0-0.0","911.7000000178814","","","https://ziweizhang0304.github.io/Stats_learning_trig/img/Stim/FN_006_g.png","13","","","","","","","","","","","","","","","","","",""
"","animation","50","283686","0.0-5.0-18.0-1.0","","","","","","[{""stimulus"":""https://ziweizhang0304.github.io/Stats_learning_trig/img/Stim/FN_021_g.png"",""time"":349.40000000596046},{""stimulus"":""blank"",""time"":663.2000000178814},{""stimulus"":""https://ziweizhang0304.github.io/Stats_learning_trig/img/Stim/FN_020_g.png"",""time"":681.7000000178814},{""stimulus"":""blank"",""time"":992.7000000178814},{""stimulus"":""https://ziweizhang0304.github.io/Stats_learning_trig/img/Stim/FN_015_g.png"",""time"":1021.2000000178814},{""stimulus"":""blank"",""time"":1334.800000011921},{""stimulus"":""https://ziweizhang0304.github.io/Stats_learning_trig/img/Stim/FN_006_g.png"",""time"":1361.9000000059605},{""stimulus"":""blank"",""time"":1663.2000000178814},{""stimulus"":""https://ziweizhang0304.github.io/Stats_learning_trig/img/Stim/FN_014_g.png"",""time"":1709.0999999940395},{""stimulus"":""blank"",""time"":2021.4000000059605},{""stimulus"":""https://ziweizhang0304.github.io/Stats_learning_trig/img/Stim/FN_024_g.png"",""time"":2054.5999999940395},{""stimulus"":""blank"",""time"":2365.9000000059605},{""stimulus"":""https://ziweizhang0304.github.io/Stats_learning_trig/img/Stim/FN_011_g.png"",""time"":2381.800000011921},{""stimulus"":""blank"",""time"":2691.7000000178814},{""stimulus"":""https://ziweizhang0304.github.io/Stats_learning_trig/img/Stim/FN_016_g.png"",""time"":2721.7000000178814},{""stimulus"":""blank"",""time"":3037.800000011921},{""stimulus"":""https://ziweizhang0304.github.io/Stats_learning_trig/img/Stim/FN_010_g.png"",""time"":3061.5999999940395},{""stimulus"":""blank"",""time"":3366},{""stimulus"":""https://ziweizhang0304.github.io/Stats_learning_trig/img/Stim/FN_026_g.png"",""time"":3413.9000000059605},{""stimulus"":""blank"",""time"":3724.800000011921},{""stimulus"":""https://ziweizhang0304.github.io/Stats_learning_trig/img/Stim/FN_017_g.png"",""time"":3740.9000000059605},{""stimulus"":""blank"",""time"":4054.5},{""stimulus"":""https://ziweizhang0304.github.io/Stats_learning_trig/img/Stim/FN_018_g.png"",""time"":4081.800000011921},{""stimulus"":""blank"",""time"":4396.800000011921}]","[{""key_press"":32,""rt"":1737.300000011921,""stimulus"":""https://ziweizhang0304.github.io/Stats_learning_trig/img/Stim/FN_014_g.png""}]","375.40000000596046","https://ziweizhang0304.github.io/Stats_learning_trig/img/Stim/FN_006_g.png","post_TD","19","1361.9000000059605","1737.300000011921","slow","4","1","5af59378f856320001cf2ffc","","","","","",""
"","image-keyboard-response","51","284189","0.0-5.0-19.0-0.0","500.80000001192093","","","https://ziweizhang0304.github.io/Stats_learning_trig/img/Stim/FN_012_g.png","13","","","","","","","","","","","","","","","","","",""
"","animation","52","288611","0.0-5.0-19.0-1.0","","","","","","[{""stimulus"":""https://ziweizhang0304.github.io/Stats_learning_trig/img/Stim/FN_015_g.png"",""time"":347.89999997615814},{""stimulus"":""blank"",""time"":657.6999999880791},{""stimulus"":""https://ziweizhang0304.github.io/Stats_learning_trig/img/Stim/FN_010_g.png"",""time"":681.5999999940395},{""stimulus"":""blank"",""time"":988.0999999940395},{""stimulus"":""https://ziweizhang0304.github.io/Stats_learning_trig/img/Stim/FN_020_g.png"",""time"":1033.8999999761581},{""stimulus"":""blank"",""time"":1347},{""stimulus"":""https://ziweizhang0304.github.io/Stats_learning_trig/img/Stim/FN_021_g.png"",""time"":1362},{""stimulus"":""blank"",""time"":1673.2999999821186},{""stimulus"":""https://ziweizhang0304.github.io/Stats_learning_trig/img/Stim/FN_016_g.png"",""time"":1702.3999999761581},{""stimulus"":""blank"",""time"":2003.5},{""stimulus"":""https://ziweizhang0304.github.io/Stats_learning_trig/img/Stim/FN_011_g.png"",""time"":2048.2999999821186},{""stimulus"":""blank"",""time"":2361.5},{""stimulus"":""https://ziweizhang0304.github.io/Stats_learning_trig/img/Stim/FN_012_g.png"",""time"":2381.699999988079},{""stimulus"":""blank"",""time"":2689.7999999821186},{""stimulus"":""https://ziweizhang0304.github.io/Stats_learning_trig/img/Stim/FN_019_g.png"",""time"":2721.699999988079},{""stimulus"":""blank"",""time"":3033.5999999940395},{""stimulus"":""https://ziweizhang0304.github.io/Stats_learning_trig/img/Stim/FN_022_g.png"",""time"":3061.899999976158},{""stimulus"":""blank"",""time"":3362.7999999821186},{""stimulus"":""https://ziweizhang0304.github.io/Stats_learning_trig/img/Stim/FN_026_g.png"",""time"":3401.0999999940395},{""stimulus"":""blank"",""time"":3705.2999999821186},{""stimulus"":""https://ziweizhang0304.github.io/Stats_learning_trig/img/Stim/FN_017_g.png"",""time"":3742.399999976158},{""stimulus"":""blank"",""time"":4048.399999976158},{""stimulus"":""https://ziweizhang0304.github.io/Stats_learning_trig/img/Stim/FN_018_g.png"",""time"":4082.5},{""stimulus"":""blank"",""time"":4393.699999988079}]","[{""key_press"":32,""rt"":2705.0999999940395,""stimulus"":""blank""}]","323.40000000596046","https://ziweizhang0304.github.io/Stats_learning_trig/img/Stim/FN_012_g.png","post_TD","20","2381.699999988079","2705.0999999940395","fast","7","1","5af59378f856320001cf2ffc","","","","","",""
"","image-keyboard-response","53","289243","0.0-5.0-20.0-0.0","630.2000000178814","","","https://ziweizhang0304.github.io/Stats_learning_trig/img/Stim/FN_022_g.png","13","","","","","","","","","","","","","","","","","",""
"","animation","54","293678","0.0-5.0-20.0-1.0","","","","","","[{""stimulus"":""https://ziweizhang0304.github.io/Stats_learning_trig/img/Stim/FN_015_g.png"",""time"":355.5},{""stimulus"":""blank"",""time"":667.2000000178814},{""stimulus"":""https://ziweizhang0304.github.io/Stats_learning_trig/img/Stim/FN_010_g.png"",""time"":681},{""stimulus"":""blank"",""time"":995.4000000059605},{""stimulus"":""https://ziweizhang0304.github.io/Stats_learning_trig/img/Stim/FN_020_g.png"",""time"":1022.7000000178814},{""stimulus"":""blank"",""time"":1325.7000000178814},{""stimulus"":""https://ziweizhang0304.github.io/Stats_learning_trig/img/Stim/FN_021_g.png"",""time"":1361.9000000059605},{""stimulus"":""blank"",""time"":1667},{""stimulus"":""https://ziweizhang0304.github.io/Stats_learning_trig/img/Stim/FN_016_g.png"",""time"":1701.9000000059605},{""stimulus"":""blank"",""time"":2011.9000000059605},{""stimulus"":""https://ziweizhang0304.github.io/Stats_learning_trig/img/Stim/FN_011_g.png"",""time"":2041.800000011921},{""stimulus"":""blank"",""time"":2355.0999999940395},{""stimulus"":""https://ziweizhang0304.github.io/Stats_learning_trig/img/Stim/FN_012_g.png"",""time"":2385.0999999940395},{""stimulus"":""blank"",""time"":2698.9000000059605},{""stimulus"":""https://ziweizhang0304.github.io/Stats_learning_trig/img/Stim/FN_019_g.png"",""time"":2722.0999999940395},{""stimulus"":""blank"",""time"":3032.5},{""stimulus"":""https://ziweizhang0304.github.io/Stats_learning_trig/img/Stim/FN_022_g.png"",""time"":3064.4000000059605},{""stimulus"":""blank"",""time"":3366.2000000178814},{""stimulus"":""https://ziweizhang0304.github.io/Stats_learning_trig/img/Stim/FN_026_g.png"",""time"":3401.800000011921},{""stimulus"":""blank"",""time"":3713},{""stimulus"":""https://ziweizhang0304.github.io/Stats_learning_trig/img/Stim/FN_017_g.png"",""time"":3741},{""stimulus"":""blank"",""time"":4058.7000000178814},{""stimulus"":""https://ziweizhang0304.github.io/Stats_learning_trig/img/Stim/FN_018_g.png"",""time"":4081},{""stimulus"":""blank"",""time"":4386.5}]","[{""key_press"":32,""rt"":3382.300000011921,""stimulus"":""blank""}]","317.90000000596046","https://ziweizhang0304.github.io/Stats_learning_trig/img/Stim/FN_022_g.png","post_TD","21","3064.4000000059605","3382.300000011921","fast","9","3","5af59378f856320001cf2ffc","","","","","",""
"","image-keyboard-response","55","294054","0.0-5.0-21.0-0.0","373.80000001192093","","","https://ziweizhang0304.github.io/Stats_learning_trig/img/Stim/FN_019_g.png","13","","","","","","","","","","","","","","","","","",""
"","animation","56","298477","0.0-5.0-21.0-1.0","","","","","","[{""stimulus"":""https://ziweizhang0304.github.io/Stats_learning_trig/img/Stim/FN_018_g.png"",""time"":355.59999999403954},{""stimulus"":""blank"",""time"":668},{""stimulus"":""https://ziweizhang0304.github.io/Stats_learning_trig/img/Stim/FN_026_g.png"",""time"":683},{""stimulus"":""blank"",""time"":997.0999999940395},{""stimulus"":""https://ziweizhang0304.github.io/Stats_learning_trig/img/Stim/FN_010_g.png"",""time"":1020.7999999821186},{""stimulus"":""blank"",""time"":1328.5},{""stimulus"":""https://ziweizhang0304.github.io/Stats_learning_trig/img/Stim/FN_011_g.png"",""time"":1362},{""stimulus"":""blank"",""time"":1669},{""stimulus"":""https://ziweizhang0304.github.io/Stats_learning_trig/img/Stim/FN_012_g.png"",""time"":1716.2999999821186},{""stimulus"":""blank"",""time"":2028.7999999821186},{""stimulus"":""https://ziweizhang0304.github.io/Stats_learning_trig/img/Stim/FN_019_g.png"",""time"":2044.2999999821186},{""stimulus"":""blank"",""time"":2353.7999999821186},{""stimulus"":""https://ziweizhang0304.github.io/Stats_learning_trig/img/Stim/FN_022_g.png"",""time"":2381.199999988079},{""stimulus"":""blank"",""time"":2685.9000000059605},{""stimulus"":""https://ziweizhang0304.github.io/Stats_learning_trig/img/Stim/FN_021_g.png"",""time"":2732.699999988079},{""stimulus"":""blank"",""time"":3043.4000000059605},{""stimulus"":""https://ziweizhang0304.github.io/Stats_learning_trig/img/Stim/FN_016_g.png"",""time"":3065.699999988079},{""stimulus"":""blank"",""time"":3371.199999988079},{""stimulus"":""https://ziweizhang0304.github.io/Stats_learning_trig/img/Stim/FN_015_g.png"",""time"":3402.9000000059605},{""stimulus"":""blank"",""time"":3714.5999999940395},{""stimulus"":""https://ziweizhang0304.github.io/Stats_learning_trig/img/Stim/FN_020_g.png"",""time"":3742.2999999821186},{""stimulus"":""blank"",""time"":4058.199999988079},{""stimulus"":""https://ziweizhang0304.github.io/Stats_learning_trig/img/Stim/FN_017_g.png"",""time"":4082},{""stimulus"":""blank"",""time"":4387.699999988079}]","[{""key_press"":32,""rt"":2353,""stimulus"":""https://ziweizhang0304.github.io/Stats_learning_trig/img/Stim/FN_019_g.png""}]","308.7000000178814","https://ziweizhang0304.github.io/Stats_learning_trig/img/Stim/FN_019_g.png","post_TD","22","2044.2999999821186","2353","fast","6","2","5af59378f856320001cf2ffc","","","","","",""
"","image-keyboard-response","57","298824","0.0-5.0-22.0-0.0","344.7999999821186","","","https://ziweizhang0304.github.io/Stats_learning_trig/img/Stim/FN_014_g.png","13","","","","","","","","","","","","","","","","","",""
"","animation","58","303247","0.0-5.0-22.0-1.0","","","","","","[{""stimulus"":""https://ziweizhang0304.github.io/Stats_learning_trig/img/Stim/FN_021_g.png"",""time"":353.30000001192093},{""stimulus"":""blank"",""time"":664.4000000059605},{""stimulus"":""https://ziweizhang0304.github.io/Stats_learning_trig/img/Stim/FN_020_g.png"",""time"":681.1999999880791},{""stimulus"":""blank"",""time"":994.6999999880791},{""stimulus"":""https://ziweizhang0304.github.io/Stats_learning_trig/img/Stim/FN_015_g.png"",""time"":1025.4000000059605},{""stimulus"":""blank"",""time"":1337.0999999940395},{""stimulus"":""https://ziweizhang0304.github.io/Stats_learning_trig/img/Stim/FN_006_g.png"",""time"":1362.199999988079},{""stimulus"":""blank"",""time"":1677.9000000059605},{""stimulus"":""https://ziweizhang0304.github.io/Stats_learning_trig/img/Stim/FN_014_g.png"",""time"":1700.9000000059605},{""stimulus"":""blank"",""time"":2005.5},{""stimulus"":""https://ziweizhang0304.github.io/Stats_learning_trig/img/Stim/FN_024_g.png"",""time"":2041.9000000059605},{""stimulus"":""blank"",""time"":2351},{""stimulus"":""https://ziweizhang0304.github.io/Stats_learning_trig/img/Stim/FN_011_g.png"",""time"":2383.199999988079},{""stimulus"":""blank"",""time"":2696},{""stimulus"":""https://ziweizhang0304.github.io/Stats_learning_trig/img/Stim/FN_016_g.png"",""time"":2721.9000000059605},{""stimulus"":""blank"",""time"":3024.4000000059605},{""stimulus"":""https://ziweizhang0304.github.io/Stats_learning_trig/img/Stim/FN_010_g.png"",""time"":3070.0999999940395},{""stimulus"":""blank"",""time"":3382.4000000059605},{""stimulus"":""https://ziweizhang0304.github.io/Stats_learning_trig/img/Stim/FN_026_g.png"",""time"":3402.199999988079},{""stimulus"":""blank"",""time"":3712.0999999940395},{""stimulus"":""https://ziweizhang0304.github.io/Stats_learning_trig/img/Stim/FN_017_g.png"",""time"":3744.9000000059605},{""stimulus"":""blank"",""time"":4053.9000000059605},{""stimulus"":""https://ziweizhang0304.github.io/Stats_learning_trig/img/Stim/FN_018_g.png"",""time"":4086.5999999940395},{""stimulus"":""blank"",""time"":4399.199999988079}]","[{""key_press"":32,""rt"":2004.9000000059605,""stimulus"":""https://ziweizhang0304.github.io/Stats_learning_trig/img/Stim/FN_014_g.png""}]","304","https://ziweizhang0304.github.io/Stats_learning_trig/img/Stim/FN_014_g.png","post_TD","23","1700.9000000059605","2004.9000000059605","slow","5","2","5af59378f856320001cf2ffc","","","","","",""
"","image-keyboard-response","59","303623","0.0-5.0-23.0-0.0","374.5","","","https://ziweizhang0304.github.io/Stats_learning_trig/img/Stim/FN_019_g.png","13","","","","","","","","","","","","","","","","","",""
"","animation","60","308046","0.0-5.0-23.0-1.0","","","","","","[{""stimulus"":""https://ziweizhang0304.github.io/Stats_learning_trig/img/Stim/FN_026_g.png"",""time"":349.40000000596046},{""stimulus"":""blank"",""time"":661.8000000119209},{""stimulus"":""https://ziweizhang0304.github.io/Stats_learning_trig/img/Stim/FN_021_g.png"",""time"":694.5999999940395},{""stimulus"":""blank"",""time"":1006.5999999940395},{""stimulus"":""https://ziweizhang0304.github.io/Stats_learning_trig/img/Stim/FN_011_g.png"",""time"":1021.5},{""stimulus"":""blank"",""time"":1333.199999988079},{""stimulus"":""https://ziweizhang0304.github.io/Stats_learning_trig/img/Stim/FN_017_g.png"",""time"":1361.5999999940395},{""stimulus"":""blank"",""time"":1663.800000011921},{""stimulus"":""https://ziweizhang0304.github.io/Stats_learning_trig/img/Stim/FN_018_g.png"",""time"":1701.5999999940395},{""stimulus"":""blank"",""time"":2007.0999999940395},{""stimulus"":""https://ziweizhang0304.github.io/Stats_learning_trig/img/Stim/FN_012_g.png"",""time"":2053.699999988079},{""stimulus"":""blank"",""time"":2365},{""stimulus"":""https://ziweizhang0304.github.io/Stats_learning_trig/img/Stim/FN_019_g.png"",""time"":2396.5999999940395},{""stimulus"":""blank"",""time"":2709.4000000059605},{""stimulus"":""https://ziweizhang0304.github.io/Stats_learning_trig/img/Stim/FN_022_g.png"",""time"":2724.4000000059605},{""stimulus"":""blank"",""time"":3037.0999999940395},{""stimulus"":""https://ziweizhang0304.github.io/Stats_learning_trig/img/Stim/FN_016_g.png"",""time"":3061.300000011921},{""stimulus"":""blank"",""time"":3364.5},{""stimulus"":""https://ziweizhang0304.github.io/Stats_learning_trig/img/Stim/FN_015_g.png"",""time"":3403.199999988079},{""stimulus"":""blank"",""time"":3708.800000011921},{""stimulus"":""https://ziweizhang0304.github.io/Stats_learning_trig/img/Stim/FN_010_g.png"",""time"":3754.800000011921},{""stimulus"":""blank"",""time"":4069.199999988079},{""stimulus"":""https://ziweizhang0304.github.io/Stats_learning_trig/img/Stim/FN_020_g.png"",""time"":4081.9000000059605},{""stimulus"":""blank"",""time"":4396.9000000059605}]","[{""key_press"":32,""rt"":2736,""stimulus"":""https://ziweizhang0304.github.io/Stats_learning_trig/img/Stim/FN_022_g.png""}]","339.40000000596046","https://ziweizhang0304.github.io/Stats_learning_trig/img/Stim/FN_019_g.png","post_TD","24","2396.5999999940395","2736","fast","7","2","5af59378f856320001cf2ffc","9b1b9","","","","",""
"","survey-text","61","333892","0.0-6.0","25831.79999998212","","","","","","","","","","","","","","","","","","{""Q0"":""I could sorta remember the sequence to help know when the shape was going to come.""}","","","",""
"","survey-text","62","539499","0.0-7.0","205598.80000001192","","","","","","","","","","","","","","","","","","{""[object Object]"":""The shapes would all be in the same order.""}","","","",""
"","instructions","63","1205971","0.0-8.0","666471.5","","[{""page_index"":0,""viewing_time"":666470.3999999762}]","","","","","","","","","","","","","","","","","","","",""
"","free-sort","64","1225385","0.0-9.0","19409.59999999404","","","","","","","","","post_drag","","","","fast","","","","","","[{""src"":""https://ziweizhang0304.github.io/Stats_learning_trig/img/Stim/FN_022_g.png"",""x"":475,""y"":0},{""src"":""https://ziweizhang0304.github.io/Stats_learning_trig/img/Stim/FN_019_g.png"",""x"":-225,""y"":50},{""src"":""https://ziweizhang0304.github.io/Stats_learning_trig/img/Stim/FN_012_g.png"",""x"":475,""y"":50}]","[{""src"":""https://ziweizhang0304.github.io/Stats_learning_trig/img/Stim/FN_019_g.png"",""x"":36,""y"":22},{""src"":""https://ziweizhang0304.github.io/Stats_learning_trig/img/Stim/FN_012_g.png"",""x"":107,""y"":32},{""src"":""https://ziweizhang0304.github.io/Stats_learning_trig/img/Stim/FN_022_g.png"",""x"":210,""y"":25}]","[{""src"":""https://ziweizhang0304.github.io/Stats_learning_trig/img/Stim/FN_022_g.png"",""x"":210,""y"":25},{""src"":""https://ziweizhang0304.github.io/Stats_learning_trig/img/Stim/FN_019_g.png"",""x"":36,""y"":22},{""src"":""https://ziweizhang0304.github.io/Stats_learning_trig/img/Stim/FN_012_g.png"",""x"":107,""y"":32}]",""
"","free-sort","65","1237169","0.0-10.0","11782.200000017881","","","","","","","","","post_drag","","","","slow","","","","","","[{""src"":""https://ziweizhang0304.github.io/Stats_learning_trig/img/Stim/FN_006_g.png"",""x"":475,""y"":0},{""src"":""https://ziweizhang0304.github.io/Stats_learning_trig/img/Stim/FN_014_g.png"",""x"":-225,""y"":50},{""src"":""https://ziweizhang0304.github.io/Stats_learning_trig/img/Stim/FN_024_g.png"",""x"":475,""y"":50}]","[{""src"":""https://ziweizhang0304.github.io/Stats_learning_trig/img/Stim/FN_006_g.png"",""x"":53,""y"":24},{""src"":""https://ziweizhang0304.github.io/Stats_learning_trig/img/Stim/FN_014_g.png"",""x"":128,""y"":27},{""src"":""https://ziweizhang0304.github.io/Stats_learning_trig/img/Stim/FN_024_g.png"",""x"":213,""y"":24}]","[{""src"":""https://ziweizhang0304.github.io/Stats_learning_trig/img/Stim/FN_006_g.png"",""x"":53,""y"":24},{""src"":""https://ziweizhang0304.github.io/Stats_learning_trig/img/Stim/FN_014_g.png"",""x"":128,""y"":27},{""src"":""https://ziweizhang0304.github.io/Stats_learning_trig/img/Stim/FN_024_g.png"",""x"":213,""y"":24}]",""
"","survey-multi-choice","66","1247148","0.0-11.0","9974.90000000596","","","","","","","","","","","","","","","","5af59378f856320001cf2ffc","","{""awareness"":""Yes"",""attention_check"":""Press SPACEBAR to a target""}","","","","[0,1]"
