"success","trial_type","trial_index","time_elapsed","internal_node_id","rt","url","view_history","stimulus","key_press","animation_sequence","response","TD_rt","TD_target","test_part","TD_trial_number","onset","offset","attention_state","TD_target_position","TD_within_triplet_counter","participant","yoke_participant","responses","init_locations","moves","final_locations","question_order"
"true","fullscreen","0","6086","0.0-0.0","","","","","","","","","","","","","","","","","","","","","","",""
"","external-html","1","15770","0.0-1.0","8352.199999928474","https://ziweizhang0304.github.io/Stats_learning_trig/content/consent.html","","","","","","","","","","","","","","","","","","","","",""
"","instructions","2","26325","0.0-2.0","10553.200000047684","","[{""page_index"":0,""viewing_time"":1373.6000000238419},{""page_index"":1,""viewing_time"":2169.899999976158},{""page_index"":2,""viewing_time"":2973.8000000715256},{""page_index"":3,""viewing_time"":4035.1999999284744}]","","","","","","","","","","","","","","","","","","","",""
"","image-keyboard-response","3","31219","0.0-3.0-0.0-0.0","4892.800000071526","","","https://ziweizhang0304.github.io/Stats_learning_trig/img/Stim/FN_003_g.png","13","","","","","","","","","","","","","","","","","",""
"","animation","4","35648","0.0-3.0-0.0-1.0","","","","","","[{""stimulus"":""https://ziweizhang0304.github.io/Stats_learning_trig/img/Stim/FN_022_g.png"",""time"":361.39999997615814},{""stimulus"":""blank"",""time"":675.2999999523163},{""stimulus"":""https://ziweizhang0304.github.io/Stats_learning_trig/img/Stim/FN_001_g.png"",""time"":689.3999999761581},{""stimulus"":""blank"",""time"":991.5},{""stimulus"":""https://ziweizhang0304.github.io/Stats_learning_trig/img/Stim/FN_007_g.png"",""time"":1028.7999999523163},{""stimulus"":""blank"",""time"":1339.5},{""stimulus"":""https://ziweizhang0304.github.io/Stats_learning_trig/img/Stim/FN_023_g.png"",""time"":1361.2999999523163},{""stimulus"":""blank"",""time"":1676},{""stimulus"":""https://ziweizhang0304.github.io/Stats_learning_trig/img/Stim/FN_012_g.png"",""time"":1701.5999999046326},{""stimulus"":""blank"",""time"":2008.7999999523163},{""stimulus"":""https://ziweizhang0304.github.io/Stats_learning_trig/img/Stim/FN_006_g.png"",""time"":2041.3999999761581},{""stimulus"":""blank"",""time"":2356},{""stimulus"":""https://ziweizhang0304.github.io/Stats_learning_trig/img/Stim/FN_003_g.png"",""time"":2381.5},{""stimulus"":""blank"",""time"":2693.6999999284744},{""stimulus"":""https://ziweizhang0304.github.io/Stats_learning_trig/img/Stim/FN_019_g.png"",""time"":2721.1999999284744},{""stimulus"":""blank"",""time"":3035.0999999046326},{""stimulus"":""https://ziweizhang0304.github.io/Stats_learning_trig/img/Stim/FN_009_g.png"",""time"":3060.6999999284744},{""stimulus"":""blank"",""time"":3361.399999976158},{""stimulus"":""https://ziweizhang0304.github.io/Stats_learning_trig/img/Stim/FN_010_g.png"",""time"":3413.5999999046326},{""stimulus"":""blank"",""time"":3714.6999999284744},{""stimulus"":""https://ziweizhang0304.github.io/Stats_learning_trig/img/Stim/FN_005_g.png"",""time"":3746.399999976158},{""stimulus"":""blank"",""time"":4058},{""stimulus"":""https://ziweizhang0304.github.io/Stats_learning_trig/img/Stim/FN_016_g.png"",""time"":4091.0999999046326},{""stimulus"":""blank"",""time"":4396.399999976158}]","[{""key_press"":32,""rt"":2796.5,""stimulus"":""https://ziweizhang0304.github.io/Stats_learning_trig/img/Stim/FN_019_g.png""}]","415","https://ziweizhang0304.github.io/Stats_learning_trig/img/Stim/FN_003_g.png","post_prac","","","","","","","","","","","","",""
"","html-keyboard-response","5","37872","0.0-3.0-0.0-2.0","2220.2000000476837","","","<p>Your reaction time for this trial was 415 ms.</p><p>Remember that you should only press the SPACEBAR when you see the shape presented at the beginning of the trial. </b> </p><p>Press enter to move on.</p>","13","","","","","","","","","","","","","","","","","",""
"","image-keyboard-response","6","38746","0.0-3.0-1.0-0.0","874.1999999284744","","","https://ziweizhang0304.github.io/Stats_learning_trig/img/Stim/FN_024_g.png","13","","","","","","","","","","","","","","","","","",""
"","animation","7","43174","0.0-3.0-1.0-1.0","","","","","","[{""stimulus"":""https://ziweizhang0304.github.io/Stats_learning_trig/img/Stim/FN_022_g.png"",""time"":341.6999999284744},{""stimulus"":""blank"",""time"":652.6000000238419},{""stimulus"":""https://ziweizhang0304.github.io/Stats_learning_trig/img/Stim/FN_012_g.png"",""time"":683.1000000238419},{""stimulus"":""blank"",""time"":991.6000000238419},{""stimulus"":""https://ziweizhang0304.github.io/Stats_learning_trig/img/Stim/FN_007_g.png"",""time"":1021},{""stimulus"":""blank"",""time"":1334.6999999284744},{""stimulus"":""https://ziweizhang0304.github.io/Stats_learning_trig/img/Stim/FN_023_g.png"",""time"":1366.3999999761581},{""stimulus"":""blank"",""time"":1677.5},{""stimulus"":""https://ziweizhang0304.github.io/Stats_learning_trig/img/Stim/FN_016_g.png"",""time"":1708.6000000238419},{""stimulus"":""blank"",""time"":2018.2999999523163},{""stimulus"":""https://ziweizhang0304.github.io/Stats_learning_trig/img/Stim/FN_009_g.png"",""time"":2050.399999976158},{""stimulus"":""blank"",""time"":2358.600000023842},{""stimulus"":""https://ziweizhang0304.github.io/Stats_learning_trig/img/Stim/FN_018_g.png"",""time"":2381.100000023842},{""stimulus"":""blank"",""time"":2684},{""stimulus"":""https://ziweizhang0304.github.io/Stats_learning_trig/img/Stim/FN_011_g.png"",""time"":2730.5},{""stimulus"":""blank"",""time"":3036.6999999284744},{""stimulus"":""https://ziweizhang0304.github.io/Stats_learning_trig/img/Stim/FN_024_g.png"",""time"":3067.7999999523163},{""stimulus"":""blank"",""time"":3377.1999999284744},{""stimulus"":""https://ziweizhang0304.github.io/Stats_learning_trig/img/Stim/FN_005_g.png"",""time"":3408.5},{""stimulus"":""blank"",""time"":3711.5},{""stimulus"":""https://ziweizhang0304.github.io/Stats_learning_trig/img/Stim/FN_006_g.png"",""time"":3741.100000023842},{""stimulus"":""blank"",""time"":4046.100000023842},{""stimulus"":""https://ziweizhang0304.github.io/Stats_learning_trig/img/Stim/FN_019_g.png"",""time"":4084.100000023842},{""stimulus"":""blank"",""time"":4396.100000023842}]","[{""key_press"":32,""rt"":3418.600000023842,""stimulus"":""https://ziweizhang0304.github.io/Stats_learning_trig/img/Stim/FN_005_g.png""}]","350.8000000715256","https://ziweizhang0304.github.io/Stats_learning_trig/img/Stim/FN_024_g.png","post_prac","","","","","","","","","","","","",""
"","html-keyboard-response","8","45280","0.0-3.0-1.0-2.0","2104","","","<p>Your reaction time for this trial was 350.8 ms.</p><p>Remember that you should only press the SPACEBAR when you see the shape presented at the beginning of the trial. </b> </p><p>Press enter to move on.</p>","13","","","","","","","","","","","","","","","","","",""
"","image-keyboard-response","9","46398","0.0-3.0-2.0-0.0","1117.2999999523163","","","https://ziweizhang0304.github.io/Stats_learning_trig/img/Stim/FN_001_g.png","13","","","","","","","","","","","","","","","","","",""
"","animation","10","50827","0.0-3.0-2.0-1.0","","","","","","[{""stimulus"":""https://ziweizhang0304.github.io/Stats_learning_trig/img/Stim/FN_006_g.png"",""time"":348.10000002384186},{""stimulus"":""blank"",""time"":652.2999999523163},{""stimulus"":""https://ziweizhang0304.github.io/Stats_learning_trig/img/Stim/FN_007_g.png"",""time"":680.6999999284744},{""stimulus"":""blank"",""time"":980.8999999761581},{""stimulus"":""https://ziweizhang0304.github.io/Stats_learning_trig/img/Stim/FN_019_g.png"",""time"":1029.6000000238419},{""stimulus"":""blank"",""time"":1334.2999999523163},{""stimulus"":""https://ziweizhang0304.github.io/Stats_learning_trig/img/Stim/FN_022_g.png"",""time"":1361},{""stimulus"":""blank"",""time"":1661.5},{""stimulus"":""https://ziweizhang0304.github.io/Stats_learning_trig/img/Stim/FN_005_g.png"",""time"":1714.1000000238419},{""stimulus"":""blank"",""time"":2035.1999999284744},{""stimulus"":""https://ziweizhang0304.github.io/Stats_learning_trig/img/Stim/FN_001_g.png"",""time"":2040.6000000238419},{""stimulus"":""blank"",""time"":2341.100000023842},{""stimulus"":""https://ziweizhang0304.github.io/Stats_learning_trig/img/Stim/FN_010_g.png"",""time"":2381.600000023842},{""stimulus"":""blank"",""time"":2682.2999999523163},{""stimulus"":""https://ziweizhang0304.github.io/Stats_learning_trig/img/Stim/FN_003_g.png"",""time"":2730.2999999523163},{""stimulus"":""blank"",""time"":3036.6999999284744},{""stimulus"":""https://ziweizhang0304.github.io/Stats_learning_trig/img/Stim/FN_009_g.png"",""time"":3061.1999999284744},{""stimulus"":""blank"",""time"":3362.100000023842},{""stimulus"":""https://ziweizhang0304.github.io/Stats_learning_trig/img/Stim/FN_023_g.png"",""time"":3413.7999999523163},{""stimulus"":""blank"",""time"":3737.899999976158},{""stimulus"":""https://ziweizhang0304.github.io/Stats_learning_trig/img/Stim/FN_016_g.png"",""time"":3741.2999999523163},{""stimulus"":""blank"",""time"":4054.6999999284744},{""stimulus"":""https://ziweizhang0304.github.io/Stats_learning_trig/img/Stim/FN_012_g.png"",""time"":4080.899999976158},{""stimulus"":""blank"",""time"":4382.899999976158}]","[{""key_press"":32,""rt"":2440.4000000953674,""stimulus"":""https://ziweizhang0304.github.io/Stats_learning_trig/img/Stim/FN_010_g.png""}]","399.8000000715256","https://ziweizhang0304.github.io/Stats_learning_trig/img/Stim/FN_001_g.png","post_prac","","","","","","","","","","","","",""
"","html-keyboard-response","11","54324","0.0-3.0-2.0-2.0","3495.100000023842","","","<p>Your reaction time for this trial was 399.8 ms.</p><p>Remember that you should only press the SPACEBAR when you see the shape presented at the beginning of the trial. </b> </p><p>Press enter to move on.</p>","13","","","","","","","","","","","","","","","","","",""
"","instructions","12","56616","0.0-4.0","2292.0999999046326","","[{""page_index"":0,""viewing_time"":2292}]","","","","","","","","","","","","","","","","","","","",""
"","image-keyboard-response","13","103142","0.0-5.0-0.0-0.0","46524.10000002384","","","https://ziweizhang0304.github.io/Stats_learning_trig/img/Stim/FN_011_g.png","13","","","","","","","","","","","","","","","","","",""
"","animation","14","107568","0.0-5.0-0.0-1.0","","","","","","[{""stimulus"":""https://ziweizhang0304.github.io/Stats_learning_trig/img/Stim/FN_016_g.png"",""time"":352.09999990463257},{""stimulus"":""blank"",""time"":652.5},{""stimulus"":""https://ziweizhang0304.github.io/Stats_learning_trig/img/Stim/FN_007_g.png"",""time"":691.2999999523163},{""stimulus"":""blank"",""time"":999.2999999523163},{""stimulus"":""https://ziweizhang0304.github.io/Stats_learning_trig/img/Stim/FN_023_g.png"",""time"":1021.5},{""stimulus"":""blank"",""time"":1337.2999999523163},{""stimulus"":""https://ziweizhang0304.github.io/Stats_learning_trig/img/Stim/FN_022_g.png"",""time"":1369.1999999284744},{""stimulus"":""blank"",""time"":1671.8999999761581},{""stimulus"":""https://ziweizhang0304.github.io/Stats_learning_trig/img/Stim/FN_018_g.png"",""time"":1706.5999999046326},{""stimulus"":""blank"",""time"":2022.5999999046326},{""stimulus"":""https://ziweizhang0304.github.io/Stats_learning_trig/img/Stim/FN_011_g.png"",""time"":2055.399999976158},{""stimulus"":""blank"",""time"":2369.5999999046326},{""stimulus"":""https://ziweizhang0304.github.io/Stats_learning_trig/img/Stim/FN_024_g.png"",""time"":2385.5999999046326},{""stimulus"":""blank"",""time"":2701.2999999523163},{""stimulus"":""https://ziweizhang0304.github.io/Stats_learning_trig/img/Stim/FN_005_g.png"",""time"":2733.399999976158},{""stimulus"":""blank"",""time"":3034.399999976158},{""stimulus"":""https://ziweizhang0304.github.io/Stats_learning_trig/img/Stim/FN_006_g.png"",""time"":3073.399999976158},{""stimulus"":""blank"",""time"":3374.0999999046326},{""stimulus"":""https://ziweizhang0304.github.io/Stats_learning_trig/img/Stim/FN_009_g.png"",""time"":3402.0999999046326},{""stimulus"":""blank"",""time"":3724.399999976158},{""stimulus"":""https://ziweizhang0304.github.io/Stats_learning_trig/img/Stim/FN_019_g.png"",""time"":3741.6999999284744},{""stimulus"":""blank"",""time"":4056},{""stimulus"":""https://ziweizhang0304.github.io/Stats_learning_trig/img/Stim/FN_012_g.png"",""time"":4080.6999999284744},{""stimulus"":""blank"",""time"":4388.099999904633}]","[{""key_press"":32,""rt"":2414.100000023842,""stimulus"":""https://ziweizhang0304.github.io/Stats_learning_trig/img/Stim/FN_024_g.png""}]","358.7000000476837","https://ziweizhang0304.github.io/Stats_learning_trig/img/Stim/FN_011_g.png","post_TD","1","2055.399999976158","2414.100000023842","slow","6","2","61506f90721dcdeca6e77c2d","","","","","",""
"","image-keyboard-response","15","108823","0.0-5.0-1.0-0.0","1252.5999999046326","","","https://ziweizhang0304.github.io/Stats_learning_trig/img/Stim/FN_003_g.png","13","","","","","","","","","","","","","","","","","",""
"","animation","16","113245","0.0-5.0-1.0-1.0","","","","","","[{""stimulus"":""https://ziweizhang0304.github.io/Stats_learning_trig/img/Stim/FN_012_g.png"",""time"":347.60000002384186},{""stimulus"":""blank"",""time"":648.1999999284744},{""stimulus"":""https://ziweizhang0304.github.io/Stats_learning_trig/img/Stim/FN_006_g.png"",""time"":686.1000000238419},{""stimulus"":""blank"",""time"":994.6999999284744},{""stimulus"":""https://ziweizhang0304.github.io/Stats_learning_trig/img/Stim/FN_019_g.png"",""time"":1025.7999999523163},{""stimulus"":""blank"",""time"":1348.1999999284744},{""stimulus"":""https://ziweizhang0304.github.io/Stats_learning_trig/img/Stim/FN_009_g.png"",""time"":1365.6999999284744},{""stimulus"":""blank"",""time"":1680},{""stimulus"":""https://ziweizhang0304.github.io/Stats_learning_trig/img/Stim/FN_005_g.png"",""time"":1701},{""stimulus"":""blank"",""time"":2004.1999999284744},{""stimulus"":""https://ziweizhang0304.github.io/Stats_learning_trig/img/Stim/FN_007_g.png"",""time"":2043.7999999523163},{""stimulus"":""blank"",""time"":2349.2999999523163},{""stimulus"":""https://ziweizhang0304.github.io/Stats_learning_trig/img/Stim/FN_001_g.png"",""time"":2380.7999999523163},{""stimulus"":""blank"",""time"":2681.100000023842},{""stimulus"":""https://ziweizhang0304.github.io/Stats_learning_trig/img/Stim/FN_010_g.png"",""time"":2721.100000023842},{""stimulus"":""blank"",""time"":3025.899999976158},{""stimulus"":""https://ziweizhang0304.github.io/Stats_learning_trig/img/Stim/FN_003_g.png"",""time"":3061.6999999284744},{""stimulus"":""blank"",""time"":3366.600000023842},{""stimulus"":""https://ziweizhang0304.github.io/Stats_learning_trig/img/Stim/FN_022_g.png"",""time"":3421.6999999284744},{""stimulus"":""blank"",""time"":3729.5},{""stimulus"":""https://ziweizhang0304.github.io/Stats_learning_trig/img/Stim/FN_023_g.png"",""time"":3751.5},{""stimulus"":""blank"",""time"":4051.7999999523163},{""stimulus"":""https://ziweizhang0304.github.io/Stats_learning_trig/img/Stim/FN_016_g.png"",""time"":4083.1999999284744},{""stimulus"":""blank"",""time"":4383.5}]","[{""key_press"":32,""rt"":2392.5,""stimulus"":""https://ziweizhang0304.github.io/Stats_learning_trig/img/Stim/FN_001_g.png""},{""key_press"":32,""rt"":3421,""stimulus"":""blank""}]","359.3000000715256","https://ziweizhang0304.github.io/Stats_learning_trig/img/Stim/FN_003_g.png","post_TD","2","3061.6999999284744","3421","fast","9","3","61506f90721dcdeca6e77c2d","","","","","",""
"","image-keyboard-response","17","114675","0.0-5.0-2.0-0.0","1428.6999999284744","","","https://ziweizhang0304.github.io/Stats_learning_trig/img/Stim/FN_001_g.png","13","","","","","","","","","","","","","","","","","",""
"","animation","18","119099","0.0-5.0-2.0-1.0","","","","","","[{""stimulus"":""https://ziweizhang0304.github.io/Stats_learning_trig/img/Stim/FN_012_g.png"",""time"":351.7999999523163},{""stimulus"":""blank"",""time"":652.0999999046326},{""stimulus"":""https://ziweizhang0304.github.io/Stats_learning_trig/img/Stim/FN_006_g.png"",""time"":684.6999999284744},{""stimulus"":""blank"",""time"":997.1999999284744},{""stimulus"":""https://ziweizhang0304.github.io/Stats_learning_trig/img/Stim/FN_019_g.png"",""time"":1025.0999999046326},{""stimulus"":""blank"",""time"":1335.7999999523163},{""stimulus"":""https://ziweizhang0304.github.io/Stats_learning_trig/img/Stim/FN_009_g.png"",""time"":1360.5},{""stimulus"":""blank"",""time"":1667.0999999046326},{""stimulus"":""https://ziweizhang0304.github.io/Stats_learning_trig/img/Stim/FN_005_g.png"",""time"":1708.1999999284744},{""stimulus"":""blank"",""time"":2019.1999999284744},{""stimulus"":""https://ziweizhang0304.github.io/Stats_learning_trig/img/Stim/FN_007_g.png"",""time"":2041.0999999046326},{""stimulus"":""blank"",""time"":2354.399999976158},{""stimulus"":""https://ziweizhang0304.github.io/Stats_learning_trig/img/Stim/FN_001_g.png"",""time"":2385.1999999284744},{""stimulus"":""blank"",""time"":2690.899999976158},{""stimulus"":""https://ziweizhang0304.github.io/Stats_learning_trig/img/Stim/FN_010_g.png"",""time"":2723.2999999523163},{""stimulus"":""blank"",""time"":3034.399999976158},{""stimulus"":""https://ziweizhang0304.github.io/Stats_learning_trig/img/Stim/FN_003_g.png"",""time"":3060.5999999046326},{""stimulus"":""blank"",""time"":3374.7999999523163},{""stimulus"":""https://ziweizhang0304.github.io/Stats_learning_trig/img/Stim/FN_022_g.png"",""time"":3406.5},{""stimulus"":""blank"",""time"":3720.5},{""stimulus"":""https://ziweizhang0304.github.io/Stats_learning_trig/img/Stim/FN_023_g.png"",""time"":3741},{""stimulus"":""blank"",""time"":4049.399999976158},{""stimulus"":""https://ziweizhang0304.github.io/Stats_learning_trig/img/Stim/FN_016_g.png"",""time"":4081.2999999523163},{""stimulus"":""blank"",""time"":4392.699999928474}]","[{""key_press"":32,""rt"":2733.5,""stimulus"":""https://ziweizhang0304.github.io/Stats_learning_trig/img/Stim/FN_010_g.png""}]","348.3000000715256","https://ziweizhang0304.github.io/Stats_learning_trig/img/Stim/FN_001_g.png","post_TD","3","2385.1999999284744","2733.5","fast","7","1","61506f90721dcdeca6e77c2d","","","","","",""
"","image-keyboard-response","19","120512","0.0-5.0-3.0-0.0","1411.3999999761581","","","https://ziweizhang0304.github.io/Stats_learning_trig/img/Stim/FN_003_g.png","13","","","","","","","","","","","","","","","","","",""
"","animation","20","124933","0.0-5.0-3.0-1.0","","","","","","[{""stimulus"":""https://ziweizhang0304.github.io/Stats_learning_trig/img/Stim/FN_007_g.png"",""time"":355.1999999284744},{""stimulus"":""blank"",""time"":664.1999999284744},{""stimulus"":""https://ziweizhang0304.github.io/Stats_learning_trig/img/Stim/FN_009_g.png"",""time"":695.1000000238419},{""stimulus"":""blank"",""time"":997.5},{""stimulus"":""https://ziweizhang0304.github.io/Stats_learning_trig/img/Stim/FN_016_g.png"",""time"":1021.2999999523163},{""stimulus"":""blank"",""time"":1333.7999999523163},{""stimulus"":""https://ziweizhang0304.github.io/Stats_learning_trig/img/Stim/FN_006_g.png"",""time"":1364.8999999761581},{""stimulus"":""blank"",""time"":1685.6999999284744},{""stimulus"":""https://ziweizhang0304.github.io/Stats_learning_trig/img/Stim/FN_001_g.png"",""time"":1702.8999999761581},{""stimulus"":""blank"",""time"":2009.1999999284744},{""stimulus"":""https://ziweizhang0304.github.io/Stats_learning_trig/img/Stim/FN_010_g.png"",""time"":2041.1000000238419},{""stimulus"":""blank"",""time"":2357.2999999523163},{""stimulus"":""https://ziweizhang0304.github.io/Stats_learning_trig/img/Stim/FN_003_g.png"",""time"":2386.2999999523163},{""stimulus"":""blank"",""time"":2687.1999999284744},{""stimulus"":""https://ziweizhang0304.github.io/Stats_learning_trig/img/Stim/FN_005_g.png"",""time"":2720.600000023842},{""stimulus"":""blank"",""time"":3032.899999976158},{""stimulus"":""https://ziweizhang0304.github.io/Stats_learning_trig/img/Stim/FN_022_g.png"",""time"":3066},{""stimulus"":""blank"",""time"":3380.2999999523163},{""stimulus"":""https://ziweizhang0304.github.io/Stats_learning_trig/img/Stim/FN_023_g.png"",""time"":3401.100000023842},{""stimulus"":""blank"",""time"":3701.5},{""stimulus"":""https://ziweizhang0304.github.io/Stats_learning_trig/img/Stim/FN_019_g.png"",""time"":3752.5},{""stimulus"":""blank"",""time"":4052.899999976158},{""stimulus"":""https://ziweizhang0304.github.io/Stats_learning_trig/img/Stim/FN_012_g.png"",""time"":4084.6999999284744},{""stimulus"":""blank"",""time"":4396.199999928474}]","[{""key_press"":32,""rt"":2800.2999999523163,""stimulus"":""https://ziweizhang0304.github.io/Stats_learning_trig/img/Stim/FN_005_g.png""}]","414","https://ziweizhang0304.github.io/Stats_learning_trig/img/Stim/FN_003_g.png","post_TD","4","2386.2999999523163","2800.2999999523163","fast","7","3","61506f90721dcdeca6e77c2d","","","","","",""
"","image-keyboard-response","21","125462","0.0-5.0-4.0-0.0","527.3999999761581","","","https://ziweizhang0304.github.io/Stats_learning_trig/img/Stim/FN_018_g.png","13","","","","","","","","","","","","","","","","","",""
"","animation","22","129895","0.0-5.0-4.0-1.0","","","","","","[{""stimulus"":""https://ziweizhang0304.github.io/Stats_learning_trig/img/Stim/FN_022_g.png"",""time"":349.6999999284744},{""stimulus"":""blank"",""time"":650},{""stimulus"":""https://ziweizhang0304.github.io/Stats_learning_trig/img/Stim/FN_012_g.png"",""time"":681.3999999761581},{""stimulus"":""blank"",""time"":997.3999999761581},{""stimulus"":""https://ziweizhang0304.github.io/Stats_learning_trig/img/Stim/FN_007_g.png"",""time"":1021.2999999523163},{""stimulus"":""blank"",""time"":1335.5},{""stimulus"":""https://ziweizhang0304.github.io/Stats_learning_trig/img/Stim/FN_023_g.png"",""time"":1367.6999999284744},{""stimulus"":""blank"",""time"":1683.1000000238419},{""stimulus"":""https://ziweizhang0304.github.io/Stats_learning_trig/img/Stim/FN_016_g.png"",""time"":1713.7999999523163},{""stimulus"":""blank"",""time"":2015},{""stimulus"":""https://ziweizhang0304.github.io/Stats_learning_trig/img/Stim/FN_009_g.png"",""time"":2047.5},{""stimulus"":""blank"",""time"":2353.6999999284744},{""stimulus"":""https://ziweizhang0304.github.io/Stats_learning_trig/img/Stim/FN_018_g.png"",""time"":2384.399999976158},{""stimulus"":""blank"",""time"":2684.7999999523163},{""stimulus"":""https://ziweizhang0304.github.io/Stats_learning_trig/img/Stim/FN_011_g.png"",""time"":2735},{""stimulus"":""blank"",""time"":3038.6999999284744},{""stimulus"":""https://ziweizhang0304.github.io/Stats_learning_trig/img/Stim/FN_024_g.png"",""time"":3061.399999976158},{""stimulus"":""blank"",""time"":3370.1999999284744},{""stimulus"":""https://ziweizhang0304.github.io/Stats_learning_trig/img/Stim/FN_005_g.png"",""time"":3402.1999999284744},{""stimulus"":""blank"",""time"":3717.399999976158},{""stimulus"":""https://ziweizhang0304.github.io/Stats_learning_trig/img/Stim/FN_006_g.png"",""time"":3755.2999999523163},{""stimulus"":""blank"",""time"":4055.399999976158},{""stimulus"":""https://ziweizhang0304.github.io/Stats_learning_trig/img/Stim/FN_019_g.png"",""time"":4085.2999999523163},{""stimulus"":""blank"",""time"":4386.699999928474}]","[{""key_press"":32,""rt"":2895.6999999284744,""stimulus"":""https://ziweizhang0304.github.io/Stats_learning_trig/img/Stim/FN_011_g.png""}]","511.2999999523163","https://ziweizhang0304.github.io/Stats_learning_trig/img/Stim/FN_018_g.png","post_TD","5","2384.399999976158","2895.6999999284744","slow","7","1","61506f90721dcdeca6e77c2d","","","","","",""
"","image-keyboard-response","23","130695","0.0-5.0-5.0-0.0","798.2999999523163","","","https://ziweizhang0304.github.io/Stats_learning_trig/img/Stim/FN_001_g.png","13","","","","","","","","","","","","","","","","","",""
"","animation","24","135122","0.0-5.0-5.0-1.0","","","","","","[{""stimulus"":""https://ziweizhang0304.github.io/Stats_learning_trig/img/Stim/FN_006_g.png"",""time"":358.3000000715256},{""stimulus"":""blank"",""time"":671.8999999761581},{""stimulus"":""https://ziweizhang0304.github.io/Stats_learning_trig/img/Stim/FN_007_g.png"",""time"":688.1000000238419},{""stimulus"":""blank"",""time"":1017.3000000715256},{""stimulus"":""https://ziweizhang0304.github.io/Stats_learning_trig/img/Stim/FN_019_g.png"",""time"":1034.5},{""stimulus"":""blank"",""time"":1343.1000000238419},{""stimulus"":""https://ziweizhang0304.github.io/Stats_learning_trig/img/Stim/FN_022_g.png"",""time"":1368.3999999761581},{""stimulus"":""blank"",""time"":1673.8000000715256},{""stimulus"":""https://ziweizhang0304.github.io/Stats_learning_trig/img/Stim/FN_005_g.png"",""time"":1701.6000000238419},{""stimulus"":""blank"",""time"":2017.7000000476837},{""stimulus"":""https://ziweizhang0304.github.io/Stats_learning_trig/img/Stim/FN_001_g.png"",""time"":2050.100000023842},{""stimulus"":""blank"",""time"":2362},{""stimulus"":""https://ziweizhang0304.github.io/Stats_learning_trig/img/Stim/FN_010_g.png"",""time"":2381.3000000715256},{""stimulus"":""blank"",""time"":2691.899999976158},{""stimulus"":""https://ziweizhang0304.github.io/Stats_learning_trig/img/Stim/FN_003_g.png"",""time"":2722.899999976158},{""stimulus"":""blank"",""time"":3033.100000023842},{""stimulus"":""https://ziweizhang0304.github.io/Stats_learning_trig/img/Stim/FN_009_g.png"",""time"":3065.899999976158},{""stimulus"":""blank"",""time"":3378.5},{""stimulus"":""https://ziweizhang0304.github.io/Stats_learning_trig/img/Stim/FN_023_g.png"",""time"":3410.600000023842},{""stimulus"":""blank"",""time"":3713.899999976158},{""stimulus"":""https://ziweizhang0304.github.io/Stats_learning_trig/img/Stim/FN_016_g.png"",""time"":3741.5},{""stimulus"":""blank"",""time"":4048.3000000715256},{""stimulus"":""https://ziweizhang0304.github.io/Stats_learning_trig/img/Stim/FN_012_g.png"",""time"":4084.399999976158},{""stimulus"":""blank"",""time"":4395.800000071526}]","[{""key_press"":32,""rt"":2361.600000023842,""stimulus"":""https://ziweizhang0304.github.io/Stats_learning_trig/img/Stim/FN_001_g.png""}]","311.5","https://ziweizhang0304.github.io/Stats_learning_trig/img/Stim/FN_001_g.png","post_TD","6","2050.100000023842","2361.600000023842","fast","6","1","61506f90721dcdeca6e77c2d","","","","","",""
"","image-keyboard-response","25","135909","0.0-5.0-6.0-0.0","785.7000000476837","","","https://ziweizhang0304.github.io/Stats_learning_trig/img/Stim/FN_001_g.png","13","","","","","","","","","","","","","","","","","",""
"","animation","26","140332","0.0-5.0-6.0-1.0","","","","","","[{""stimulus"":""https://ziweizhang0304.github.io/Stats_learning_trig/img/Stim/FN_007_g.png"",""time"":350.39999997615814},{""stimulus"":""blank"",""time"":651.2999999523163},{""stimulus"":""https://ziweizhang0304.github.io/Stats_learning_trig/img/Stim/FN_009_g.png"",""time"":681.2999999523163},{""stimulus"":""blank"",""time"":983.1999999284744},{""stimulus"":""https://ziweizhang0304.github.io/Stats_learning_trig/img/Stim/FN_016_g.png"",""time"":1034},{""stimulus"":""blank"",""time"":1336.1999999284744},{""stimulus"":""https://ziweizhang0304.github.io/Stats_learning_trig/img/Stim/FN_006_g.png"",""time"":1368.7999999523163},{""stimulus"":""blank"",""time"":1684.1999999284744},{""stimulus"":""https://ziweizhang0304.github.io/Stats_learning_trig/img/Stim/FN_001_g.png"",""time"":1700.5999999046326},{""stimulus"":""blank"",""time"":2009.2999999523163},{""stimulus"":""https://ziweizhang0304.github.io/Stats_learning_trig/img/Stim/FN_010_g.png"",""time"":2041.2999999523163},{""stimulus"":""blank"",""time"":2355.6999999284744},{""stimulus"":""https://ziweizhang0304.github.io/Stats_learning_trig/img/Stim/FN_003_g.png"",""time"":2386.0999999046326},{""stimulus"":""blank"",""time"":2701.5},{""stimulus"":""https://ziweizhang0304.github.io/Stats_learning_trig/img/Stim/FN_005_g.png"",""time"":2732.7999999523163},{""stimulus"":""blank"",""time"":3043.5999999046326},{""stimulus"":""https://ziweizhang0304.github.io/Stats_learning_trig/img/Stim/FN_022_g.png"",""time"":3061.2999999523163},{""stimulus"":""blank"",""time"":3372.2999999523163},{""stimulus"":""https://ziweizhang0304.github.io/Stats_learning_trig/img/Stim/FN_023_g.png"",""time"":3402.5},{""stimulus"":""blank"",""time"":3715.0999999046326},{""stimulus"":""https://ziweizhang0304.github.io/Stats_learning_trig/img/Stim/FN_019_g.png"",""time"":3746.7999999523163},{""stimulus"":""blank"",""time"":4058},{""stimulus"":""https://ziweizhang0304.github.io/Stats_learning_trig/img/Stim/FN_012_g.png"",""time"":4085.899999976158},{""stimulus"":""blank"",""time"":4399.5}]","[{""key_press"":32,""rt"":2041.4000000953674,""stimulus"":""https://ziweizhang0304.github.io/Stats_learning_trig/img/Stim/FN_010_g.png""}]","340.80000019073486","https://ziweizhang0304.github.io/Stats_learning_trig/img/Stim/FN_001_g.png","post_TD","7","1700.5999999046326","2041.4000000953674","fast","5","1","61506f90721dcdeca6e77c2d","","","","","",""
"","image-keyboard-response","27","142324","0.0-5.0-7.0-0.0","1990.1999999284744","","","https://ziweizhang0304.github.io/Stats_learning_trig/img/Stim/FN_001_g.png","13","","","","","","","","","","","","","","","","","",""
"","animation","28","146746","0.0-5.0-7.0-1.0","","","","","","[{""stimulus"":""https://ziweizhang0304.github.io/Stats_learning_trig/img/Stim/FN_012_g.png"",""time"":344.2000000476837},{""stimulus"":""blank"",""time"":645.3999999761581},{""stimulus"":""https://ziweizhang0304.github.io/Stats_learning_trig/img/Stim/FN_005_g.png"",""time"":686.6000000238419},{""stimulus"":""blank"",""time"":998.8000000715256},{""stimulus"":""https://ziweizhang0304.github.io/Stats_learning_trig/img/Stim/FN_007_g.png"",""time"":1030.1000000238419},{""stimulus"":""blank"",""time"":1346.3000000715256},{""stimulus"":""https://ziweizhang0304.github.io/Stats_learning_trig/img/Stim/FN_001_g.png"",""time"":1362.1000000238419},{""stimulus"":""blank"",""time"":1670.5},{""stimulus"":""https://ziweizhang0304.github.io/Stats_learning_trig/img/Stim/FN_010_g.png"",""time"":1700.7000000476837},{""stimulus"":""blank"",""time"":2021.6000000238419},{""stimulus"":""https://ziweizhang0304.github.io/Stats_learning_trig/img/Stim/FN_003_g.png"",""time"":2052.8000000715256},{""stimulus"":""blank"",""time"":2367.8000000715256},{""stimulus"":""https://ziweizhang0304.github.io/Stats_learning_trig/img/Stim/FN_006_g.png"",""time"":2382.7000000476837},{""stimulus"":""blank"",""time"":2686.7000000476837},{""stimulus"":""https://ziweizhang0304.github.io/Stats_learning_trig/img/Stim/FN_022_g.png"",""time"":2721},{""stimulus"":""blank"",""time"":3033},{""stimulus"":""https://ziweizhang0304.github.io/Stats_learning_trig/img/Stim/FN_009_g.png"",""time"":3061.399999976158},{""stimulus"":""blank"",""time"":3368.7000000476837},{""stimulus"":""https://ziweizhang0304.github.io/Stats_learning_trig/img/Stim/FN_023_g.png"",""time"":3401},{""stimulus"":""blank"",""time"":3704.399999976158},{""stimulus"":""https://ziweizhang0304.github.io/Stats_learning_trig/img/Stim/FN_019_g.png"",""time"":3741},{""stimulus"":""blank"",""time"":4053.100000023842},{""stimulus"":""https://ziweizhang0304.github.io/Stats_learning_trig/img/Stim/FN_016_g.png"",""time"":4085.100000023842},{""stimulus"":""blank"",""time"":4389.399999976158}]","[{""key_press"":32,""rt"":1686.8999999761581,""stimulus"":""blank""}]","324.7999999523163","https://ziweizhang0304.github.io/Stats_learning_trig/img/Stim/FN_001_g.png","post_TD","8","1362.1000000238419","1686.8999999761581","fast","4","1","61506f90721dcdeca6e77c2d","","","","","",""
"","image-keyboard-response","29","147849","0.0-5.0-8.0-0.0","1101.8000000715256","","","https://ziweizhang0304.github.io/Stats_learning_trig/img/Stim/FN_011_g.png","13","","","","","","","","","","","","","","","","","",""
"","animation","30","152270","0.0-5.0-8.0-1.0","","","","","","[{""stimulus"":""https://ziweizhang0304.github.io/Stats_learning_trig/img/Stim/FN_019_g.png"",""time"":346.10000002384186},{""stimulus"":""blank"",""time"":660.1999999284744},{""stimulus"":""https://ziweizhang0304.github.io/Stats_learning_trig/img/Stim/FN_009_g.png"",""time"":685.1999999284744},{""stimulus"":""blank"",""time"":986},{""stimulus"":""https://ziweizhang0304.github.io/Stats_learning_trig/img/Stim/FN_023_g.png"",""time"":1044.2999999523163},{""stimulus"":""blank"",""time"":1348.1999999284744},{""stimulus"":""https://ziweizhang0304.github.io/Stats_learning_trig/img/Stim/FN_018_g.png"",""time"":1364.2999999523163},{""stimulus"":""blank"",""time"":1687.1000000238419},{""stimulus"":""https://ziweizhang0304.github.io/Stats_learning_trig/img/Stim/FN_011_g.png"",""time"":1700.6999999284744},{""stimulus"":""blank"",""time"":2001},{""stimulus"":""https://ziweizhang0304.github.io/Stats_learning_trig/img/Stim/FN_024_g.png"",""time"":2060.2999999523163},{""stimulus"":""blank"",""time"":2363.600000023842},{""stimulus"":""https://ziweizhang0304.github.io/Stats_learning_trig/img/Stim/FN_007_g.png"",""time"":2380.6999999284744},{""stimulus"":""blank"",""time"":2688.6999999284744},{""stimulus"":""https://ziweizhang0304.github.io/Stats_learning_trig/img/Stim/FN_005_g.png"",""time"":2727.600000023842},{""stimulus"":""blank"",""time"":3032.600000023842},{""stimulus"":""https://ziweizhang0304.github.io/Stats_learning_trig/img/Stim/FN_006_g.png"",""time"":3061},{""stimulus"":""blank"",""time"":3366.2999999523163},{""stimulus"":""https://ziweizhang0304.github.io/Stats_learning_trig/img/Stim/FN_022_g.png"",""time"":3400.899999976158},{""stimulus"":""blank"",""time"":3701.1999999284744},{""stimulus"":""https://ziweizhang0304.github.io/Stats_learning_trig/img/Stim/FN_016_g.png"",""time"":3741.6999999284744},{""stimulus"":""blank"",""time"":4052.899999976158},{""stimulus"":""https://ziweizhang0304.github.io/Stats_learning_trig/img/Stim/FN_012_g.png"",""time"":4081.399999976158},{""stimulus"":""blank"",""time"":4390.699999928474}]","[{""key_press"":32,""rt"":2355.6999999284744,""stimulus"":""https://ziweizhang0304.github.io/Stats_learning_trig/img/Stim/FN_024_g.png""}]","655","https://ziweizhang0304.github.io/Stats_learning_trig/img/Stim/FN_011_g.png","post_TD","9","1700.6999999284744","2355.6999999284744","slow","5","2","61506f90721dcdeca6e77c2d","","","","","",""
"","image-keyboard-response","31","153364","0.0-5.0-9.0-0.0","1092.2000000476837","","","https://ziweizhang0304.github.io/Stats_learning_trig/img/Stim/FN_010_g.png","13","","","","","","","","","","","","","","","","","",""
"","animation","32","157785","0.0-5.0-9.0-1.0","","","","","","[{""stimulus"":""https://ziweizhang0304.github.io/Stats_learning_trig/img/Stim/FN_012_g.png"",""time"":344.5},{""stimulus"":""blank"",""time"":657.3999999761581},{""stimulus"":""https://ziweizhang0304.github.io/Stats_learning_trig/img/Stim/FN_005_g.png"",""time"":690.1999999284744},{""stimulus"":""blank"",""time"":993.0999999046326},{""stimulus"":""https://ziweizhang0304.github.io/Stats_learning_trig/img/Stim/FN_007_g.png"",""time"":1020.7999999523163},{""stimulus"":""blank"",""time"":1326.6999999284744},{""stimulus"":""https://ziweizhang0304.github.io/Stats_learning_trig/img/Stim/FN_001_g.png"",""time"":1361.1999999284744},{""stimulus"":""blank"",""time"":1679.3999999761581},{""stimulus"":""https://ziweizhang0304.github.io/Stats_learning_trig/img/Stim/FN_010_g.png"",""time"":1710.1999999284744},{""stimulus"":""blank"",""time"":2010.8999999761581},{""stimulus"":""https://ziweizhang0304.github.io/Stats_learning_trig/img/Stim/FN_003_g.png"",""time"":2043.2999999523163},{""stimulus"":""blank"",""time"":2360.5},{""stimulus"":""https://ziweizhang0304.github.io/Stats_learning_trig/img/Stim/FN_006_g.png"",""time"":2396},{""stimulus"":""blank"",""time"":2697.6999999284744},{""stimulus"":""https://ziweizhang0304.github.io/Stats_learning_trig/img/Stim/FN_022_g.png"",""time"":2721.5},{""stimulus"":""blank"",""time"":3028.0999999046326},{""stimulus"":""https://ziweizhang0304.github.io/Stats_learning_trig/img/Stim/FN_009_g.png"",""time"":3060.6999999284744},{""stimulus"":""blank"",""time"":3381.899999976158},{""stimulus"":""https://ziweizhang0304.github.io/Stats_learning_trig/img/Stim/FN_023_g.png"",""time"":3411.399999976158},{""stimulus"":""blank"",""time"":3715.0999999046326},{""stimulus"":""https://ziweizhang0304.github.io/Stats_learning_trig/img/Stim/FN_019_g.png"",""time"":3744.6999999284744},{""stimulus"":""blank"",""time"":4045.899999976158},{""stimulus"":""https://ziweizhang0304.github.io/Stats_learning_trig/img/Stim/FN_016_g.png"",""time"":4092.1999999284744},{""stimulus"":""blank"",""time"":4397.099999904633}]","[{""key_press"":32,""rt"":1643,""stimulus"":""https://ziweizhang0304.github.io/Stats_learning_trig/img/Stim/FN_001_g.png""}]","NaN","https://ziweizhang0304.github.io/Stats_learning_trig/img/Stim/FN_010_g.png","post_TD","10","1710.1999999284744","","fast","5","2","61506f90721dcdeca6e77c2d","","","","","",""
"","image-keyboard-response","33","158688","0.0-5.0-10.0-0.0","901.6000000238419","","","https://ziweizhang0304.github.io/Stats_learning_trig/img/Stim/FN_010_g.png","13","","","","","","","","","","","","","","","","","",""
"","animation","34","163115","0.0-5.0-10.0-1.0","","","","","","[{""stimulus"":""https://ziweizhang0304.github.io/Stats_learning_trig/img/Stim/FN_006_g.png"",""time"":352.5},{""stimulus"":""blank"",""time"":661.6000000238419},{""stimulus"":""https://ziweizhang0304.github.io/Stats_learning_trig/img/Stim/FN_007_g.png"",""time"":680.5},{""stimulus"":""blank"",""time"":990.8999999761581},{""stimulus"":""https://ziweizhang0304.github.io/Stats_learning_trig/img/Stim/FN_019_g.png"",""time"":1022.6999999284744},{""stimulus"":""blank"",""time"":1335},{""stimulus"":""https://ziweizhang0304.github.io/Stats_learning_trig/img/Stim/FN_022_g.png"",""time"":1366.5},{""stimulus"":""blank"",""time"":1674.1999999284744},{""stimulus"":""https://ziweizhang0304.github.io/Stats_learning_trig/img/Stim/FN_005_g.png"",""time"":1700.7999999523163},{""stimulus"":""blank"",""time"":2002.1000000238419},{""stimulus"":""https://ziweizhang0304.github.io/Stats_learning_trig/img/Stim/FN_001_g.png"",""time"":2040.8999999761581},{""stimulus"":""blank"",""time"":2343.2999999523163},{""stimulus"":""https://ziweizhang0304.github.io/Stats_learning_trig/img/Stim/FN_010_g.png"",""time"":2389.2999999523163},{""stimulus"":""blank"",""time"":2698.399999976158},{""stimulus"":""https://ziweizhang0304.github.io/Stats_learning_trig/img/Stim/FN_003_g.png"",""time"":2721},{""stimulus"":""blank"",""time"":3035.600000023842},{""stimulus"":""https://ziweizhang0304.github.io/Stats_learning_trig/img/Stim/FN_009_g.png"",""time"":3067.1999999284744},{""stimulus"":""blank"",""time"":3374.899999976158},{""stimulus"":""https://ziweizhang0304.github.io/Stats_learning_trig/img/Stim/FN_023_g.png"",""time"":3400.7999999523163},{""stimulus"":""blank"",""time"":3715.6999999284744},{""stimulus"":""https://ziweizhang0304.github.io/Stats_learning_trig/img/Stim/FN_016_g.png"",""time"":3741.399999976158},{""stimulus"":""blank"",""time"":4059.600000023842},{""stimulus"":""https://ziweizhang0304.github.io/Stats_learning_trig/img/Stim/FN_012_g.png"",""time"":4085.7999999523163},{""stimulus"":""blank"",""time"":4394.600000023842}]","[{""key_press"":32,""rt"":2266.6999999284744,""stimulus"":""https://ziweizhang0304.github.io/Stats_learning_trig/img/Stim/FN_001_g.png""}]","NaN","https://ziweizhang0304.github.io/Stats_learning_trig/img/Stim/FN_010_g.png","post_TD","11","2389.2999999523163","","fast","7","2","61506f90721dcdeca6e77c2d","","","","","",""
"","image-keyboard-response","35","164055","0.0-5.0-11.0-0.0","938.3999999761581","","","https://ziweizhang0304.github.io/Stats_learning_trig/img/Stim/FN_011_g.png","13","","","","","","","","","","","","","","","","","",""
"","animation","36","168477","0.0-5.0-11.0-1.0","","","","","","[{""stimulus"":""https://ziweizhang0304.github.io/Stats_learning_trig/img/Stim/FN_022_g.png"",""time"":353.89999997615814},{""stimulus"":""blank"",""time"":665.7000000476837},{""stimulus"":""https://ziweizhang0304.github.io/Stats_learning_trig/img/Stim/FN_012_g.png"",""time"":682.6000000238419},{""stimulus"":""blank"",""time"":996.8999999761581},{""stimulus"":""https://ziweizhang0304.github.io/Stats_learning_trig/img/Stim/FN_007_g.png"",""time"":1027.8999999761581},{""stimulus"":""blank"",""time"":1328.6000000238419},{""stimulus"":""https://ziweizhang0304.github.io/Stats_learning_trig/img/Stim/FN_023_g.png"",""time"":1367.7000000476837},{""stimulus"":""blank"",""time"":1682.2000000476837},{""stimulus"":""https://ziweizhang0304.github.io/Stats_learning_trig/img/Stim/FN_016_g.png"",""time"":1713.2999999523163},{""stimulus"":""blank"",""time"":2014.2999999523163},{""stimulus"":""https://ziweizhang0304.github.io/Stats_learning_trig/img/Stim/FN_009_g.png"",""time"":2046.1000000238419},{""stimulus"":""blank"",""time"":2346.899999976158},{""stimulus"":""https://ziweizhang0304.github.io/Stats_learning_trig/img/Stim/FN_018_g.png"",""time"":2381.100000023842},{""stimulus"":""blank"",""time"":2682.399999976158},{""stimulus"":""https://ziweizhang0304.github.io/Stats_learning_trig/img/Stim/FN_011_g.png"",""time"":2733.2000000476837},{""stimulus"":""blank"",""time"":3050.600000023842},{""stimulus"":""https://ziweizhang0304.github.io/Stats_learning_trig/img/Stim/FN_024_g.png"",""time"":3067.399999976158},{""stimulus"":""blank"",""time"":3381.100000023842},{""stimulus"":""https://ziweizhang0304.github.io/Stats_learning_trig/img/Stim/FN_005_g.png"",""time"":3401.2000000476837},{""stimulus"":""blank"",""time"":3703.600000023842},{""stimulus"":""https://ziweizhang0304.github.io/Stats_learning_trig/img/Stim/FN_006_g.png"",""time"":3740.7999999523163},{""stimulus"":""blank"",""time"":4052.100000023842},{""stimulus"":""https://ziweizhang0304.github.io/Stats_learning_trig/img/Stim/FN_019_g.png"",""time"":4081.2999999523163},{""stimulus"":""blank"",""time"":4404.200000047684}]","[{""key_press"":32,""rt"":1754.6000000238419,""stimulus"":""https://ziweizhang0304.github.io/Stats_learning_trig/img/Stim/FN_016_g.png""},{""key_press"":32,""rt"":3305.7000000476837,""stimulus"":""https://ziweizhang0304.github.io/Stats_learning_trig/img/Stim/FN_024_g.png""}]","572.5","https://ziweizhang0304.github.io/Stats_learning_trig/img/Stim/FN_011_g.png","post_TD","12","2733.2000000476837","3305.7000000476837","slow","8","2","61506f90721dcdeca6e77c2d","","","","","",""
"","image-keyboard-response","37","169332","0.0-5.0-12.0-0.0","853.8000000715256","","","https://ziweizhang0304.github.io/Stats_learning_trig/img/Stim/FN_018_g.png","13","","","","","","","","","","","","","","","","","",""
"","animation","38","173753","0.0-5.0-12.0-1.0","","","","","","[{""stimulus"":""https://ziweizhang0304.github.io/Stats_learning_trig/img/Stim/FN_016_g.png"",""time"":345.5},{""stimulus"":""blank"",""time"":654.1999999284744},{""stimulus"":""https://ziweizhang0304.github.io/Stats_learning_trig/img/Stim/FN_007_g.png"",""time"":681.2999999523163},{""stimulus"":""blank"",""time"":994.5},{""stimulus"":""https://ziweizhang0304.github.io/Stats_learning_trig/img/Stim/FN_023_g.png"",""time"":1023.5},{""stimulus"":""blank"",""time"":1331.2999999523163},{""stimulus"":""https://ziweizhang0304.github.io/Stats_learning_trig/img/Stim/FN_022_g.png"",""time"":1360.7999999523163},{""stimulus"":""blank"",""time"":1662.7999999523163},{""stimulus"":""https://ziweizhang0304.github.io/Stats_learning_trig/img/Stim/FN_018_g.png"",""time"":1700.7999999523163},{""stimulus"":""blank"",""time"":2011.2999999523163},{""stimulus"":""https://ziweizhang0304.github.io/Stats_learning_trig/img/Stim/FN_011_g.png"",""time"":2041.3999999761581},{""stimulus"":""blank"",""time"":2348},{""stimulus"":""https://ziweizhang0304.github.io/Stats_learning_trig/img/Stim/FN_024_g.png"",""time"":2405.899999976158},{""stimulus"":""blank"",""time"":2710.6999999284744},{""stimulus"":""https://ziweizhang0304.github.io/Stats_learning_trig/img/Stim/FN_005_g.png"",""time"":2733.2999999523163},{""stimulus"":""blank"",""time"":3033.5999999046326},{""stimulus"":""https://ziweizhang0304.github.io/Stats_learning_trig/img/Stim/FN_006_g.png"",""time"":3064.899999976158},{""stimulus"":""blank"",""time"":3388.5999999046326},{""stimulus"":""https://ziweizhang0304.github.io/Stats_learning_trig/img/Stim/FN_009_g.png"",""time"":3405.5},{""stimulus"":""blank"",""time"":3712.0999999046326},{""stimulus"":""https://ziweizhang0304.github.io/Stats_learning_trig/img/Stim/FN_019_g.png"",""time"":3741},{""stimulus"":""blank"",""time"":4050.1999999284744},{""stimulus"":""https://ziweizhang0304.github.io/Stats_learning_trig/img/Stim/FN_012_g.png"",""time"":4082.6999999284744},{""stimulus"":""blank"",""time"":4388.199999928474}]","[{""key_press"":32,""rt"":2080.4000000953674,""stimulus"":""https://ziweizhang0304.github.io/Stats_learning_trig/img/Stim/FN_011_g.png""}]","379.60000014305115","https://ziweizhang0304.github.io/Stats_learning_trig/img/Stim/FN_018_g.png","post_TD","13","1700.7999999523163","2080.4000000953674","slow","5","1","61506f90721dcdeca6e77c2d","","","","","",""
"","image-keyboard-response","39","174463","0.0-5.0-13.0-0.0","708","","","https://ziweizhang0304.github.io/Stats_learning_trig/img/Stim/FN_018_g.png","13","","","","","","","","","","","","","","","","","",""
"","animation","40","178884","0.0-5.0-13.0-1.0","","","","","","[{""stimulus"":""https://ziweizhang0304.github.io/Stats_learning_trig/img/Stim/FN_016_g.png"",""time"":352.2000000476837},{""stimulus"":""blank"",""time"":667.5},{""stimulus"":""https://ziweizhang0304.github.io/Stats_learning_trig/img/Stim/FN_005_g.png"",""time"":680.7000000476837},{""stimulus"":""blank"",""time"":983.2000000476837},{""stimulus"":""https://ziweizhang0304.github.io/Stats_learning_trig/img/Stim/FN_006_g.png"",""time"":1024.7000000476837},{""stimulus"":""blank"",""time"":1336.9000000953674},{""stimulus"":""https://ziweizhang0304.github.io/Stats_learning_trig/img/Stim/FN_023_g.png"",""time"":1360.6000000238419},{""stimulus"":""blank"",""time"":1668.6000000238419},{""stimulus"":""https://ziweizhang0304.github.io/Stats_learning_trig/img/Stim/FN_022_g.png"",""time"":1707.9000000953674},{""stimulus"":""blank"",""time"":2022.3000000715256},{""stimulus"":""https://ziweizhang0304.github.io/Stats_learning_trig/img/Stim/FN_018_g.png"",""time"":2053.4000000953674},{""stimulus"":""blank"",""time"":2356.600000023842},{""stimulus"":""https://ziweizhang0304.github.io/Stats_learning_trig/img/Stim/FN_011_g.png"",""time"":2389.5},{""stimulus"":""blank"",""time"":2709.4000000953674},{""stimulus"":""https://ziweizhang0304.github.io/Stats_learning_trig/img/Stim/FN_024_g.png"",""time"":2725.3000000715256},{""stimulus"":""blank"",""time"":3038.7000000476837},{""stimulus"":""https://ziweizhang0304.github.io/Stats_learning_trig/img/Stim/FN_007_g.png"",""time"":3061.5},{""stimulus"":""blank"",""time"":3362},{""stimulus"":""https://ziweizhang0304.github.io/Stats_learning_trig/img/Stim/FN_009_g.png"",""time"":3404.100000023842},{""stimulus"":""blank"",""time"":3704.5},{""stimulus"":""https://ziweizhang0304.github.io/Stats_learning_trig/img/Stim/FN_019_g.png"",""time"":3740.8000000715256},{""stimulus"":""blank"",""time"":4046.100000023842},{""stimulus"":""https://ziweizhang0304.github.io/Stats_learning_trig/img/Stim/FN_012_g.png"",""time"":4081.3000000715256},{""stimulus"":""blank"",""time"":4396.900000095367}]","[{""key_press"":32,""rt"":2437.9000000953674,""stimulus"":""https://ziweizhang0304.github.io/Stats_learning_trig/img/Stim/FN_011_g.png""}]","384.5","https://ziweizhang0304.github.io/Stats_learning_trig/img/Stim/FN_018_g.png","post_TD","14","2053.4000000953674","2437.9000000953674","slow","6","1","61506f90721dcdeca6e77c2d","","","","","",""
"","image-keyboard-response","41","180428","0.0-5.0-14.0-0.0","1542.7999999523163","","","https://ziweizhang0304.github.io/Stats_learning_trig/img/Stim/FN_003_g.png","13","","","","","","","","","","","","","","","","","",""
"","animation","42","184853","0.0-5.0-14.0-1.0","","","","","","[{""stimulus"":""https://ziweizhang0304.github.io/Stats_learning_trig/img/Stim/FN_012_g.png"",""time"":342.7000000476837},{""stimulus"":""blank"",""time"":653.6000000238419},{""stimulus"":""https://ziweizhang0304.github.io/Stats_learning_trig/img/Stim/FN_005_g.png"",""time"":685.2000000476837},{""stimulus"":""blank"",""time"":995.4000000953674},{""stimulus"":""https://ziweizhang0304.github.io/Stats_learning_trig/img/Stim/FN_007_g.png"",""time"":1024.7000000476837},{""stimulus"":""blank"",""time"":1337.9000000953674},{""stimulus"":""https://ziweizhang0304.github.io/Stats_learning_trig/img/Stim/FN_001_g.png"",""time"":1368.4000000953674},{""stimulus"":""blank"",""time"":1669.6000000238419},{""stimulus"":""https://ziweizhang0304.github.io/Stats_learning_trig/img/Stim/FN_010_g.png"",""time"":1700.9000000953674},{""stimulus"":""blank"",""time"":2008.3000000715256},{""stimulus"":""https://ziweizhang0304.github.io/Stats_learning_trig/img/Stim/FN_003_g.png"",""time"":2041},{""stimulus"":""blank"",""time"":2347.3000000715256},{""stimulus"":""https://ziweizhang0304.github.io/Stats_learning_trig/img/Stim/FN_006_g.png"",""time"":2381.8000000715256},{""stimulus"":""blank"",""time"":2694.4000000953674},{""stimulus"":""https://ziweizhang0304.github.io/Stats_learning_trig/img/Stim/FN_022_g.png"",""time"":2724.5},{""stimulus"":""blank"",""time"":3025.9000000953674},{""stimulus"":""https://ziweizhang0304.github.io/Stats_learning_trig/img/Stim/FN_009_g.png"",""time"":3061.2000000476837},{""stimulus"":""blank"",""time"":3363.8000000715256},{""stimulus"":""https://ziweizhang0304.github.io/Stats_learning_trig/img/Stim/FN_023_g.png"",""time"":3400.9000000953674},{""stimulus"":""blank"",""time"":3706.4000000953674},{""stimulus"":""https://ziweizhang0304.github.io/Stats_learning_trig/img/Stim/FN_019_g.png"",""time"":3746.9000000953674},{""stimulus"":""blank"",""time"":4049.2000000476837},{""stimulus"":""https://ziweizhang0304.github.io/Stats_learning_trig/img/Stim/FN_016_g.png"",""time"":4080.5},{""stimulus"":""blank"",""time"":4395.200000047684}]","[{""key_press"":32,""rt"":2448.899999976158,""stimulus"":""https://ziweizhang0304.github.io/Stats_learning_trig/img/Stim/FN_006_g.png""}]","407.89999997615814","https://ziweizhang0304.github.io/Stats_learning_trig/img/Stim/FN_003_g.png","post_TD","15","2041","2448.899999976158","fast","6","3","61506f90721dcdeca6e77c2d","","","","","",""
"","image-keyboard-response","43","186159","0.0-5.0-15.0-0.0","1304.6999999284744","","","https://ziweizhang0304.github.io/Stats_learning_trig/img/Stim/FN_003_g.png","13","","","","","","","","","","","","","","","","","",""
"","animation","44","190584","0.0-5.0-15.0-1.0","","","","","","[{""stimulus"":""https://ziweizhang0304.github.io/Stats_learning_trig/img/Stim/FN_006_g.png"",""time"":341.39999997615814},{""stimulus"":""blank"",""time"":641.5},{""stimulus"":""https://ziweizhang0304.github.io/Stats_learning_trig/img/Stim/FN_007_g.png"",""time"":683},{""stimulus"":""blank"",""time"":987.6999999284744},{""stimulus"":""https://ziweizhang0304.github.io/Stats_learning_trig/img/Stim/FN_019_g.png"",""time"":1026.5},{""stimulus"":""blank"",""time"":1327.3999999761581},{""stimulus"":""https://ziweizhang0304.github.io/Stats_learning_trig/img/Stim/FN_022_g.png"",""time"":1361},{""stimulus"":""blank"",""time"":1672.5999999046326},{""stimulus"":""https://ziweizhang0304.github.io/Stats_learning_trig/img/Stim/FN_005_g.png"",""time"":1700.5},{""stimulus"":""blank"",""time"":2002.5},{""stimulus"":""https://ziweizhang0304.github.io/Stats_learning_trig/img/Stim/FN_001_g.png"",""time"":2041},{""stimulus"":""blank"",""time"":2341.6999999284744},{""stimulus"":""https://ziweizhang0304.github.io/Stats_learning_trig/img/Stim/FN_010_g.png"",""time"":2387.399999976158},{""stimulus"":""blank"",""time"":2690},{""stimulus"":""https://ziweizhang0304.github.io/Stats_learning_trig/img/Stim/FN_003_g.png"",""time"":2720.6999999284744},{""stimulus"":""blank"",""time"":3032},{""stimulus"":""https://ziweizhang0304.github.io/Stats_learning_trig/img/Stim/FN_009_g.png"",""time"":3060.5},{""stimulus"":""blank"",""time"":3371.5999999046326},{""stimulus"":""https://ziweizhang0304.github.io/Stats_learning_trig/img/Stim/FN_023_g.png"",""time"":3402.6999999284744},{""stimulus"":""blank"",""time"":3706.2999999523163},{""stimulus"":""https://ziweizhang0304.github.io/Stats_learning_trig/img/Stim/FN_016_g.png"",""time"":3742.5999999046326},{""stimulus"":""blank"",""time"":4043.1999999284744},{""stimulus"":""https://ziweizhang0304.github.io/Stats_learning_trig/img/Stim/FN_012_g.png"",""time"":4080.6999999284744},{""stimulus"":""blank"",""time"":4392}]","[{""key_press"":32,""rt"":3088,""stimulus"":""https://ziweizhang0304.github.io/Stats_learning_trig/img/Stim/FN_009_g.png""}]","367.3000000715256","https://ziweizhang0304.github.io/Stats_learning_trig/img/Stim/FN_003_g.png","post_TD","16","2720.6999999284744","3088","fast","8","3","61506f90721dcdeca6e77c2d","","","","","",""
"","image-keyboard-response","45","192102","0.0-5.0-16.0-0.0","1516.5","","","https://ziweizhang0304.github.io/Stats_learning_trig/img/Stim/FN_024_g.png","13","","","","","","","","","","","","","","","","","",""
"","animation","46","196523","0.0-5.0-16.0-1.0","","","","","","[{""stimulus"":""https://ziweizhang0304.github.io/Stats_learning_trig/img/Stim/FN_022_g.png"",""time"":345.2999999523163},{""stimulus"":""blank"",""time"":647.0999999046326},{""stimulus"":""https://ziweizhang0304.github.io/Stats_learning_trig/img/Stim/FN_012_g.png"",""time"":681.5},{""stimulus"":""blank"",""time"":990.7999999523163},{""stimulus"":""https://ziweizhang0304.github.io/Stats_learning_trig/img/Stim/FN_007_g.png"",""time"":1021.7999999523163},{""stimulus"":""blank"",""time"":1333.1999999284744},{""stimulus"":""https://ziweizhang0304.github.io/Stats_learning_trig/img/Stim/FN_023_g.png"",""time"":1364.7999999523163},{""stimulus"":""blank"",""time"":1691},{""stimulus"":""https://ziweizhang0304.github.io/Stats_learning_trig/img/Stim/FN_016_g.png"",""time"":1700.5},{""stimulus"":""blank"",""time"":2007.5999999046326},{""stimulus"":""https://ziweizhang0304.github.io/Stats_learning_trig/img/Stim/FN_009_g.png"",""time"":2041.0999999046326},{""stimulus"":""blank"",""time"":2355},{""stimulus"":""https://ziweizhang0304.github.io/Stats_learning_trig/img/Stim/FN_018_g.png"",""time"":2381.2999999523163},{""stimulus"":""blank"",""time"":2692.399999976158},{""stimulus"":""https://ziweizhang0304.github.io/Stats_learning_trig/img/Stim/FN_011_g.png"",""time"":2720.899999976158},{""stimulus"":""blank"",""time"":3023.7999999523163},{""stimulus"":""https://ziweizhang0304.github.io/Stats_learning_trig/img/Stim/FN_024_g.png"",""time"":3065.1999999284744},{""stimulus"":""blank"",""time"":3371.0999999046326},{""stimulus"":""https://ziweizhang0304.github.io/Stats_learning_trig/img/Stim/FN_005_g.png"",""time"":3403.2999999523163},{""stimulus"":""blank"",""time"":3709.6999999284744},{""stimulus"":""https://ziweizhang0304.github.io/Stats_learning_trig/img/Stim/FN_006_g.png"",""time"":3741.1999999284744},{""stimulus"":""blank"",""time"":4057.1999999284744},{""stimulus"":""https://ziweizhang0304.github.io/Stats_learning_trig/img/Stim/FN_019_g.png"",""time"":4081.1999999284744},{""stimulus"":""blank"",""time"":4395.299999952316}]","[{""key_press"":32,""rt"":3407.100000023842,""stimulus"":""https://ziweizhang0304.github.io/Stats_learning_trig/img/Stim/FN_005_g.png""}]","341.90000009536743","https://ziweizhang0304.github.io/Stats_learning_trig/img/Stim/FN_024_g.png","post_TD","17","3065.1999999284744","3407.100000023842","slow","9","3","61506f90721dcdeca6e77c2d","","","","","",""
"","image-keyboard-response","47","197501","0.0-5.0-17.0-0.0","976.6000000238419","","","https://ziweizhang0304.github.io/Stats_learning_trig/img/Stim/FN_018_g.png","13","","","","","","","","","","","","","","","","","",""
"","animation","48","201922","0.0-5.0-17.0-1.0","","","","","","[{""stimulus"":""https://ziweizhang0304.github.io/Stats_learning_trig/img/Stim/FN_019_g.png"",""time"":347.89999997615814},{""stimulus"":""blank"",""time"":659.6999999284744},{""stimulus"":""https://ziweizhang0304.github.io/Stats_learning_trig/img/Stim/FN_009_g.png"",""time"":682},{""stimulus"":""blank"",""time"":992.5},{""stimulus"":""https://ziweizhang0304.github.io/Stats_learning_trig/img/Stim/FN_023_g.png"",""time"":1021.7999999523163},{""stimulus"":""blank"",""time"":1336.2999999523163},{""stimulus"":""https://ziweizhang0304.github.io/Stats_learning_trig/img/Stim/FN_018_g.png"",""time"":1365.5},{""stimulus"":""blank"",""time"":1677.7999999523163},{""stimulus"":""https://ziweizhang0304.github.io/Stats_learning_trig/img/Stim/FN_011_g.png"",""time"":1710},{""stimulus"":""blank"",""time"":2017.2999999523163},{""stimulus"":""https://ziweizhang0304.github.io/Stats_learning_trig/img/Stim/FN_024_g.png"",""time"":2047.8999999761581},{""stimulus"":""blank"",""time"":2361},{""stimulus"":""https://ziweizhang0304.github.io/Stats_learning_trig/img/Stim/FN_007_g.png"",""time"":2381},{""stimulus"":""blank"",""time"":2683.7999999523163},{""stimulus"":""https://ziweizhang0304.github.io/Stats_learning_trig/img/Stim/FN_005_g.png"",""time"":2721.1999999284744},{""stimulus"":""blank"",""time"":3023.0999999046326},{""stimulus"":""https://ziweizhang0304.github.io/Stats_learning_trig/img/Stim/FN_006_g.png"",""time"":3060.5},{""stimulus"":""blank"",""time"":3364.399999976158},{""stimulus"":""https://ziweizhang0304.github.io/Stats_learning_trig/img/Stim/FN_022_g.png"",""time"":3411.399999976158},{""stimulus"":""blank"",""time"":3720.7999999523163},{""stimulus"":""https://ziweizhang0304.github.io/Stats_learning_trig/img/Stim/FN_016_g.png"",""time"":3748.399999976158},{""stimulus"":""blank"",""time"":4051.1999999284744},{""stimulus"":""https://ziweizhang0304.github.io/Stats_learning_trig/img/Stim/FN_012_g.png"",""time"":4081.399999976158},{""stimulus"":""blank"",""time"":4405.699999928474}]","[{""key_press"":32,""rt"":1746.5,""stimulus"":""https://ziweizhang0304.github.io/Stats_learning_trig/img/Stim/FN_011_g.png""}]","381","https://ziweizhang0304.github.io/Stats_learning_trig/img/Stim/FN_018_g.png","post_TD","18","1365.5","1746.5","slow","4","1","61506f90721dcdeca6e77c2d","","","","","",""
"","image-keyboard-response","49","202824","0.0-5.0-18.0-0.0","900","","","https://ziweizhang0304.github.io/Stats_learning_trig/img/Stim/FN_024_g.png","13","","","","","","","","","","","","","","","","","",""
"","animation","50","207248","0.0-5.0-18.0-1.0","","","","","","[{""stimulus"":""https://ziweizhang0304.github.io/Stats_learning_trig/img/Stim/FN_016_g.png"",""time"":349.39999997615814},{""stimulus"":""blank"",""time"":649.5},{""stimulus"":""https://ziweizhang0304.github.io/Stats_learning_trig/img/Stim/FN_007_g.png"",""time"":681.8999999761581},{""stimulus"":""blank"",""time"":987.3999999761581},{""stimulus"":""https://ziweizhang0304.github.io/Stats_learning_trig/img/Stim/FN_023_g.png"",""time"":1021.5},{""stimulus"":""blank"",""time"":1334.7999999523163},{""stimulus"":""https://ziweizhang0304.github.io/Stats_learning_trig/img/Stim/FN_022_g.png"",""time"":1361},{""stimulus"":""blank"",""time"":1666.5},{""stimulus"":""https://ziweizhang0304.github.io/Stats_learning_trig/img/Stim/FN_018_g.png"",""time"":1704.1000000238419},{""stimulus"":""blank"",""time"":2007.7000000476837},{""stimulus"":""https://ziweizhang0304.github.io/Stats_learning_trig/img/Stim/FN_011_g.png"",""time"":2041.5},{""stimulus"":""blank"",""time"":2352},{""stimulus"":""https://ziweizhang0304.github.io/Stats_learning_trig/img/Stim/FN_024_g.png"",""time"":2383.399999976158},{""stimulus"":""blank"",""time"":2684.2999999523163},{""stimulus"":""https://ziweizhang0304.github.io/Stats_learning_trig/img/Stim/FN_005_g.png"",""time"":2720.7999999523163},{""stimulus"":""blank"",""time"":3023.100000023842},{""stimulus"":""https://ziweizhang0304.github.io/Stats_learning_trig/img/Stim/FN_006_g.png"",""time"":3061},{""stimulus"":""blank"",""time"":3369.2999999523163},{""stimulus"":""https://ziweizhang0304.github.io/Stats_learning_trig/img/Stim/FN_009_g.png"",""time"":3400.7999999523163},{""stimulus"":""blank"",""time"":3706},{""stimulus"":""https://ziweizhang0304.github.io/Stats_learning_trig/img/Stim/FN_019_g.png"",""time"":3741.2000000476837},{""stimulus"":""blank"",""time"":4053.5},{""stimulus"":""https://ziweizhang0304.github.io/Stats_learning_trig/img/Stim/FN_012_g.png"",""time"":4085.899999976158},{""stimulus"":""blank"",""time"":4391.700000047684}]","[{""key_press"":32,""rt"":1379.8999999761581,""stimulus"":""https://ziweizhang0304.github.io/Stats_learning_trig/img/Stim/FN_022_g.png""},{""key_press"":32,""rt"":2721.899999976158,""stimulus"":""https://ziweizhang0304.github.io/Stats_learning_trig/img/Stim/FN_005_g.png""}]","338.5","https://ziweizhang0304.github.io/Stats_learning_trig/img/Stim/FN_024_g.png","post_TD","19","2383.399999976158","2721.899999976158","slow","7","3","61506f90721dcdeca6e77c2d","","","","","",""
"","image-keyboard-response","51","208618","0.0-5.0-19.0-0.0","1368.2999999523163","","","https://ziweizhang0304.github.io/Stats_learning_trig/img/Stim/FN_024_g.png","13","","","","","","","","","","","","","","","","","",""
"","animation","52","213039","0.0-5.0-19.0-1.0","","","","","","[{""stimulus"":""https://ziweizhang0304.github.io/Stats_learning_trig/img/Stim/FN_016_g.png"",""time"":348.5},{""stimulus"":""blank"",""time"":660.8999999761581},{""stimulus"":""https://ziweizhang0304.github.io/Stats_learning_trig/img/Stim/FN_005_g.png"",""time"":691.8999999761581},{""stimulus"":""blank"",""time"":1001.3999999761581},{""stimulus"":""https://ziweizhang0304.github.io/Stats_learning_trig/img/Stim/FN_006_g.png"",""time"":1029.7999999523163},{""stimulus"":""blank"",""time"":1333.1000000238419},{""stimulus"":""https://ziweizhang0304.github.io/Stats_learning_trig/img/Stim/FN_023_g.png"",""time"":1360.6999999284744},{""stimulus"":""blank"",""time"":1664.6999999284744},{""stimulus"":""https://ziweizhang0304.github.io/Stats_learning_trig/img/Stim/FN_022_g.png"",""time"":1711.1000000238419},{""stimulus"":""blank"",""time"":2018.2999999523163},{""stimulus"":""https://ziweizhang0304.github.io/Stats_learning_trig/img/Stim/FN_018_g.png"",""time"":2046.1999999284744},{""stimulus"":""blank"",""time"":2361.7999999523163},{""stimulus"":""https://ziweizhang0304.github.io/Stats_learning_trig/img/Stim/FN_011_g.png"",""time"":2396.1999999284744},{""stimulus"":""blank"",""time"":2704.600000023842},{""stimulus"":""https://ziweizhang0304.github.io/Stats_learning_trig/img/Stim/FN_024_g.png"",""time"":2729.399999976158},{""stimulus"":""blank"",""time"":3036.1999999284744},{""stimulus"":""https://ziweizhang0304.github.io/Stats_learning_trig/img/Stim/FN_007_g.png"",""time"":3061.100000023842},{""stimulus"":""blank"",""time"":3361.600000023842},{""stimulus"":""https://ziweizhang0304.github.io/Stats_learning_trig/img/Stim/FN_009_g.png"",""time"":3410.399999976158},{""stimulus"":""blank"",""time"":3722.7999999523163},{""stimulus"":""https://ziweizhang0304.github.io/Stats_learning_trig/img/Stim/FN_019_g.png"",""time"":3753.7999999523163},{""stimulus"":""blank"",""time"":4068.7999999523163},{""stimulus"":""https://ziweizhang0304.github.io/Stats_learning_trig/img/Stim/FN_012_g.png"",""time"":4084.399999976158},{""stimulus"":""blank"",""time"":4388.799999952316}]","[{""key_press"":32,""rt"":3093.100000023842,""stimulus"":""https://ziweizhang0304.github.io/Stats_learning_trig/img/Stim/FN_007_g.png""}]","363.7000000476837","https://ziweizhang0304.github.io/Stats_learning_trig/img/Stim/FN_024_g.png","post_TD","20","2729.399999976158","3093.100000023842","slow","8","3","61506f90721dcdeca6e77c2d","","","","","",""
"","image-keyboard-response","53","214070","0.0-5.0-20.0-0.0","1029.5","","","https://ziweizhang0304.github.io/Stats_learning_trig/img/Stim/FN_024_g.png","13","","","","","","","","","","","","","","","","","",""
"","animation","54","218492","0.0-5.0-20.0-1.0","","","","","","[{""stimulus"":""https://ziweizhang0304.github.io/Stats_learning_trig/img/Stim/FN_019_g.png"",""time"":357.89999997615814},{""stimulus"":""blank"",""time"":658.7999999523163},{""stimulus"":""https://ziweizhang0304.github.io/Stats_learning_trig/img/Stim/FN_009_g.png"",""time"":691.5},{""stimulus"":""blank"",""time"":1005.7999999523163},{""stimulus"":""https://ziweizhang0304.github.io/Stats_learning_trig/img/Stim/FN_023_g.png"",""time"":1036},{""stimulus"":""blank"",""time"":1337.7999999523163},{""stimulus"":""https://ziweizhang0304.github.io/Stats_learning_trig/img/Stim/FN_018_g.png"",""time"":1361.2999999523163},{""stimulus"":""blank"",""time"":1675.2999999523163},{""stimulus"":""https://ziweizhang0304.github.io/Stats_learning_trig/img/Stim/FN_011_g.png"",""time"":1708.1000000238419},{""stimulus"":""blank"",""time"":2021.6999999284744},{""stimulus"":""https://ziweizhang0304.github.io/Stats_learning_trig/img/Stim/FN_024_g.png"",""time"":2041.2999999523163},{""stimulus"":""blank"",""time"":2360.5},{""stimulus"":""https://ziweizhang0304.github.io/Stats_learning_trig/img/Stim/FN_007_g.png"",""time"":2391.899999976158},{""stimulus"":""blank"",""time"":2692.5},{""stimulus"":""https://ziweizhang0304.github.io/Stats_learning_trig/img/Stim/FN_005_g.png"",""time"":2720.7999999523163},{""stimulus"":""blank"",""time"":3024.6999999284744},{""stimulus"":""https://ziweizhang0304.github.io/Stats_learning_trig/img/Stim/FN_006_g.png"",""time"":3062.6999999284744},{""stimulus"":""blank"",""time"":3364},{""stimulus"":""https://ziweizhang0304.github.io/Stats_learning_trig/img/Stim/FN_022_g.png"",""time"":3410.100000023842},{""stimulus"":""blank"",""time"":3717.6999999284744},{""stimulus"":""https://ziweizhang0304.github.io/Stats_learning_trig/img/Stim/FN_016_g.png"",""time"":3741},{""stimulus"":""blank"",""time"":4043.899999976158},{""stimulus"":""https://ziweizhang0304.github.io/Stats_learning_trig/img/Stim/FN_012_g.png"",""time"":4081.2999999523163},{""stimulus"":""blank"",""time"":4389.899999976158}]","[{""key_press"":32,""rt"":2395.899999976158,""stimulus"":""https://ziweizhang0304.github.io/Stats_learning_trig/img/Stim/FN_007_g.png""}]","354.60000002384186","https://ziweizhang0304.github.io/Stats_learning_trig/img/Stim/FN_024_g.png","post_TD","21","2041.2999999523163","2395.899999976158","slow","6","3","61506f90721dcdeca6e77c2d","","","","","",""
"","image-keyboard-response","55","219412","0.0-5.0-21.0-0.0","918.1000000238419","","","https://ziweizhang0304.github.io/Stats_learning_trig/img/Stim/FN_010_g.png","13","","","","","","","","","","","","","","","","","",""
"","animation","56","223834","0.0-5.0-21.0-1.0","","","","","","[{""stimulus"":""https://ziweizhang0304.github.io/Stats_learning_trig/img/Stim/FN_007_g.png"",""time"":355.6999999284744},{""stimulus"":""blank"",""time"":667.1000000238419},{""stimulus"":""https://ziweizhang0304.github.io/Stats_learning_trig/img/Stim/FN_009_g.png"",""time"":682.6000000238419},{""stimulus"":""blank"",""time"":991.7999999523163},{""stimulus"":""https://ziweizhang0304.github.io/Stats_learning_trig/img/Stim/FN_016_g.png"",""time"":1020.6999999284744},{""stimulus"":""blank"",""time"":1333.1000000238419},{""stimulus"":""https://ziweizhang0304.github.io/Stats_learning_trig/img/Stim/FN_006_g.png"",""time"":1364},{""stimulus"":""blank"",""time"":1671.3999999761581},{""stimulus"":""https://ziweizhang0304.github.io/Stats_learning_trig/img/Stim/FN_001_g.png"",""time"":1701.2999999523163},{""stimulus"":""blank"",""time"":2009.6000000238419},{""stimulus"":""https://ziweizhang0304.github.io/Stats_learning_trig/img/Stim/FN_010_g.png"",""time"":2040.7999999523163},{""stimulus"":""blank"",""time"":2351.1999999284744},{""stimulus"":""https://ziweizhang0304.github.io/Stats_learning_trig/img/Stim/FN_003_g.png"",""time"":2383.2999999523163},{""stimulus"":""blank"",""time"":2689.7999999523163},{""stimulus"":""https://ziweizhang0304.github.io/Stats_learning_trig/img/Stim/FN_005_g.png"",""time"":2721.399999976158},{""stimulus"":""blank"",""time"":3022.7999999523163},{""stimulus"":""https://ziweizhang0304.github.io/Stats_learning_trig/img/Stim/FN_022_g.png"",""time"":3071.100000023842},{""stimulus"":""blank"",""time"":3374.100000023842},{""stimulus"":""https://ziweizhang0304.github.io/Stats_learning_trig/img/Stim/FN_023_g.png"",""time"":3405.600000023842},{""stimulus"":""blank"",""time"":3728.1999999284744},{""stimulus"":""https://ziweizhang0304.github.io/Stats_learning_trig/img/Stim/FN_019_g.png"",""time"":3743.600000023842},{""stimulus"":""blank"",""time"":4044.100000023842},{""stimulus"":""https://ziweizhang0304.github.io/Stats_learning_trig/img/Stim/FN_012_g.png"",""time"":4081.5},{""stimulus"":""blank"",""time"":4384.699999928474}]","[{""key_press"":32,""rt"":2141.1999999284744,""stimulus"":""https://ziweizhang0304.github.io/Stats_learning_trig/img/Stim/FN_010_g.png""}]","100.39999997615814","https://ziweizhang0304.github.io/Stats_learning_trig/img/Stim/FN_010_g.png","post_TD","22","2040.7999999523163","2141.1999999284744","fast","6","2","61506f90721dcdeca6e77c2d","","","","","",""
"","image-keyboard-response","57","225176","0.0-5.0-22.0-0.0","1341.2000000476837","","","https://ziweizhang0304.github.io/Stats_learning_trig/img/Stim/FN_011_g.png","13","","","","","","","","","","","","","","","","","",""
"","animation","58","229598","0.0-5.0-22.0-1.0","","","","","","[{""stimulus"":""https://ziweizhang0304.github.io/Stats_learning_trig/img/Stim/FN_016_g.png"",""time"":341.39999997615814},{""stimulus"":""blank"",""time"":647.2000000476837},{""stimulus"":""https://ziweizhang0304.github.io/Stats_learning_trig/img/Stim/FN_005_g.png"",""time"":684.2000000476837},{""stimulus"":""blank"",""time"":999.1000000238419},{""stimulus"":""https://ziweizhang0304.github.io/Stats_learning_trig/img/Stim/FN_006_g.png"",""time"":1032.1000000238419},{""stimulus"":""blank"",""time"":1336.5},{""stimulus"":""https://ziweizhang0304.github.io/Stats_learning_trig/img/Stim/FN_023_g.png"",""time"":1367.7000000476837},{""stimulus"":""blank"",""time"":1669.2999999523163},{""stimulus"":""https://ziweizhang0304.github.io/Stats_learning_trig/img/Stim/FN_022_g.png"",""time"":1700.5},{""stimulus"":""blank"",""time"":2001.2999999523163},{""stimulus"":""https://ziweizhang0304.github.io/Stats_learning_trig/img/Stim/FN_018_g.png"",""time"":2049.100000023842},{""stimulus"":""blank"",""time"":2349.2999999523163},{""stimulus"":""https://ziweizhang0304.github.io/Stats_learning_trig/img/Stim/FN_011_g.png"",""time"":2384},{""stimulus"":""blank"",""time"":2686.7000000476837},{""stimulus"":""https://ziweizhang0304.github.io/Stats_learning_trig/img/Stim/FN_024_g.png"",""time"":2721.100000023842},{""stimulus"":""blank"",""time"":3026},{""stimulus"":""https://ziweizhang0304.github.io/Stats_learning_trig/img/Stim/FN_007_g.png"",""time"":3061.899999976158},{""stimulus"":""blank"",""time"":3367.7000000476837},{""stimulus"":""https://ziweizhang0304.github.io/Stats_learning_trig/img/Stim/FN_009_g.png"",""time"":3400.399999976158},{""stimulus"":""blank"",""time"":3703.7000000476837},{""stimulus"":""https://ziweizhang0304.github.io/Stats_learning_trig/img/Stim/FN_019_g.png"",""time"":3750.600000023842},{""stimulus"":""blank"",""time"":4051.2999999523163},{""stimulus"":""https://ziweizhang0304.github.io/Stats_learning_trig/img/Stim/FN_012_g.png"",""time"":4083.7000000476837},{""stimulus"":""blank"",""time"":4389.299999952316}]","[{""key_press"":32,""rt"":2743.600000023842,""stimulus"":""https://ziweizhang0304.github.io/Stats_learning_trig/img/Stim/FN_024_g.png""}]","359.60000002384186","https://ziweizhang0304.github.io/Stats_learning_trig/img/Stim/FN_011_g.png","post_TD","23","2384","2743.600000023842","slow","7","2","61506f90721dcdeca6e77c2d","","","","","",""
"","image-keyboard-response","59","230547","0.0-5.0-23.0-0.0","948.1000000238419","","","https://ziweizhang0304.github.io/Stats_learning_trig/img/Stim/FN_010_g.png","13","","","","","","","","","","","","","","","","","",""
"","animation","60","234970","0.0-5.0-23.0-1.0","","","","","","[{""stimulus"":""https://ziweizhang0304.github.io/Stats_learning_trig/img/Stim/FN_012_g.png"",""time"":353.5},{""stimulus"":""blank"",""time"":654.1999999284744},{""stimulus"":""https://ziweizhang0304.github.io/Stats_learning_trig/img/Stim/FN_006_g.png"",""time"":694.5},{""stimulus"":""blank"",""time"":1006.8999999761581},{""stimulus"":""https://ziweizhang0304.github.io/Stats_learning_trig/img/Stim/FN_019_g.png"",""time"":1022.5},{""stimulus"":""blank"",""time"":1323.3999999761581},{""stimulus"":""https://ziweizhang0304.github.io/Stats_learning_trig/img/Stim/FN_009_g.png"",""time"":1362.6000000238419},{""stimulus"":""blank"",""time"":1668.3999999761581},{""stimulus"":""https://ziweizhang0304.github.io/Stats_learning_trig/img/Stim/FN_005_g.png"",""time"":1701.2999999523163},{""stimulus"":""blank"",""time"":2004.3999999761581},{""stimulus"":""https://ziweizhang0304.github.io/Stats_learning_trig/img/Stim/FN_007_g.png"",""time"":2040.6999999284744},{""stimulus"":""blank"",""time"":2355.2999999523163},{""stimulus"":""https://ziweizhang0304.github.io/Stats_learning_trig/img/Stim/FN_001_g.png"",""time"":2380.6999999284744},{""stimulus"":""blank"",""time"":2686.7999999523163},{""stimulus"":""https://ziweizhang0304.github.io/Stats_learning_trig/img/Stim/FN_010_g.png"",""time"":2744.6999999284744},{""stimulus"":""blank"",""time"":3056.2999999523163},{""stimulus"":""https://ziweizhang0304.github.io/Stats_learning_trig/img/Stim/FN_003_g.png"",""time"":3071.600000023842},{""stimulus"":""blank"",""time"":3372.899999976158},{""stimulus"":""https://ziweizhang0304.github.io/Stats_learning_trig/img/Stim/FN_022_g.png"",""time"":3405.399999976158},{""stimulus"":""blank"",""time"":3711.2999999523163},{""stimulus"":""https://ziweizhang0304.github.io/Stats_learning_trig/img/Stim/FN_023_g.png"",""time"":3742.7999999523163},{""stimulus"":""blank"",""time"":4045.2999999523163},{""stimulus"":""https://ziweizhang0304.github.io/Stats_learning_trig/img/Stim/FN_016_g.png"",""time"":4080.399999976158},{""stimulus"":""blank"",""time"":4390}]","[{""key_press"":32,""rt"":2847.2999999523163,""stimulus"":""https://ziweizhang0304.github.io/Stats_learning_trig/img/Stim/FN_010_g.png""}]","102.60000002384186","https://ziweizhang0304.github.io/Stats_learning_trig/img/Stim/FN_010_g.png","post_TD","24","2744.6999999284744","2847.2999999523163","fast","8","2","61506f90721dcdeca6e77c2d","9c2ee","","","","",""
"","survey-text","61","246194","0.0-6.0","11218.700000047684","","","","","","","","","","","","","","","","","","{""Q0"":""No""}","","","",""
"","survey-text","62","273642","0.0-7.0","27444.799999952316","","","","","","","","","","","","","","","","","","{""[object Object]"":""Yeah. The shapes were repeated in the same order""}","","","",""
"","instructions","63","279687","0.0-8.0","6044.799999952316","","[{""page_index"":0,""viewing_time"":6044.5}]","","","","","","","","","","","","","","","","","","","",""
"","free-sort","64","298566","0.0-9.0","18877","","","","","","","","","post_drag","","","","fast","","","","","","[{""src"":""https://ziweizhang0304.github.io/Stats_learning_trig/img/Stim/FN_003_g.png"",""x"":475,""y"":0},{""src"":""https://ziweizhang0304.github.io/Stats_learning_trig/img/Stim/FN_001_g.png"",""x"":-225,""y"":50},{""src"":""https://ziweizhang0304.github.io/Stats_learning_trig/img/Stim/FN_010_g.png"",""x"":475,""y"":50}]","[{""src"":""https://ziweizhang0304.github.io/Stats_learning_trig/img/Stim/FN_001_g.png"",""x"":2,""y"":29},{""src"":""https://ziweizhang0304.github.io/Stats_learning_trig/img/Stim/FN_010_g.png"",""x"":104,""y"":49},{""src"":""https://ziweizhang0304.github.io/Stats_learning_trig/img/Stim/FN_010_g.png"",""x"":103,""y"":16},{""src"":""https://ziweizhang0304.github.io/Stats_learning_trig/img/Stim/FN_010_g.png"",""x"":99,""y"":26},{""src"":""https://ziweizhang0304.github.io/Stats_learning_trig/img/Stim/FN_003_g.png"",""x"":208,""y"":17}]","[{""src"":""https://ziweizhang0304.github.io/Stats_learning_trig/img/Stim/FN_003_g.png"",""x"":208,""y"":17},{""src"":""https://ziweizhang0304.github.io/Stats_learning_trig/img/Stim/FN_001_g.png"",""x"":2,""y"":29},{""src"":""https://ziweizhang0304.github.io/Stats_learning_trig/img/Stim/FN_010_g.png"",""x"":99,""y"":26}]",""
"","free-sort","65","312390","0.0-10.0","13822.399999976158","","","","","","","","","post_drag","","","","slow","","","","","","[{""src"":""https://ziweizhang0304.github.io/Stats_learning_trig/img/Stim/FN_018_g.png"",""x"":475,""y"":0},{""src"":""https://ziweizhang0304.github.io/Stats_learning_trig/img/Stim/FN_024_g.png"",""x"":-225,""y"":50},{""src"":""https://ziweizhang0304.github.io/Stats_learning_trig/img/Stim/FN_011_g.png"",""x"":475,""y"":50}]","[{""src"":""https://ziweizhang0304.github.io/Stats_learning_trig/img/Stim/FN_018_g.png"",""x"":56,""y"":23},{""src"":""https://ziweizhang0304.github.io/Stats_learning_trig/img/Stim/FN_011_g.png"",""x"":130,""y"":27},{""src"":""https://ziweizhang0304.github.io/Stats_learning_trig/img/Stim/FN_024_g.png"",""x"":241,""y"":36},{""src"":""https://ziweizhang0304.github.io/Stats_learning_trig/img/Stim/FN_024_g.png"",""x"":219,""y"":33}]","[{""src"":""https://ziweizhang0304.github.io/Stats_learning_trig/img/Stim/FN_018_g.png"",""x"":56,""y"":23},{""src"":""https://ziweizhang0304.github.io/Stats_learning_trig/img/Stim/FN_024_g.png"",""x"":219,""y"":33},{""src"":""https://ziweizhang0304.github.io/Stats_learning_trig/img/Stim/FN_011_g.png"",""x"":130,""y"":27}]",""
"","survey-multi-choice","66","333524","0.0-11.0","21130.5","","","","","","","","","","","","","","","","61506f90721dcdeca6e77c2d","","{""awareness"":""Yes"",""attention_check"":""Press SPACEBAR to a target""}","","","","[0,1]"
