"success","trial_type","trial_index","time_elapsed","internal_node_id","rt","url","view_history","stimulus","key_press","animation_sequence","response","TD_rt","TD_target","test_part","TD_trial_number","onset","offset","attention_state","TD_target_position","TD_within_triplet_counter","participant","yoke_participant","responses","init_locations","moves","final_locations","question_order"
"true","fullscreen","0","1214631","0.0-0.0","","","","","","","","","","","","","","","","","","","","","","",""
"","external-html","1","1228460","0.0-1.0","13659.60000000149","https://ziweizhang0304.github.io/Stats_learning_trig/content/consent.html","","","","","","","","","","","","","","","","","","","","",""
"","instructions","2","1283950","0.0-2.0","55486.800000000745","","[{""page_index"":0,""viewing_time"":17230.70000000298},{""page_index"":1,""viewing_time"":27137.79999999702},{""page_index"":2,""viewing_time"":9701.70000000298},{""page_index"":3,""viewing_time"":1416.199999999255}]","","","","","","","","","","","","","","","","","","","",""
"","image-keyboard-response","3","1289619","0.0-3.0-0.0-0.0","5667.39999999851","","","https://ziweizhang0304.github.io/Stats_learning_trig/img/Stim/FN_003_g.png","13","","","","","","","","","","","","","","","","","",""
"","animation","4","1294041","0.0-3.0-0.0-1.0","","","","","","[{""stimulus"":""https://ziweizhang0304.github.io/Stats_learning_trig/img/Stim/FN_012_g.png"",""time"":352.3999999985099},{""stimulus"":""blank"",""time"":663.8999999985099},{""stimulus"":""https://ziweizhang0304.github.io/Stats_learning_trig/img/Stim/FN_019_g.png"",""time"":685.6999999992549},{""stimulus"":""blank"",""time"":1002.3999999985099},{""stimulus"":""https://ziweizhang0304.github.io/Stats_learning_trig/img/Stim/FN_001_g.png"",""time"":1025.699999999255},{""stimulus"":""blank"",""time"":1334.8999999985099},{""stimulus"":""https://ziweizhang0304.github.io/Stats_learning_trig/img/Stim/FN_006_g.png"",""time"":1363.3999999985099},{""stimulus"":""blank"",""time"":1667.3999999985099},{""stimulus"":""https://ziweizhang0304.github.io/Stats_learning_trig/img/Stim/FN_009_g.png"",""time"":1705.800000000745},{""stimulus"":""blank"",""time"":2007.199999999255},{""stimulus"":""https://ziweizhang0304.github.io/Stats_learning_trig/img/Stim/FN_018_g.png"",""time"":2049.5},{""stimulus"":""blank"",""time"":2356.5},{""stimulus"":""https://ziweizhang0304.github.io/Stats_learning_trig/img/Stim/FN_014_g.png"",""time"":2409.199999999255},{""stimulus"":""blank"",""time"":2709.60000000149},{""stimulus"":""https://ziweizhang0304.github.io/Stats_learning_trig/img/Stim/FN_026_g.png"",""time"":2721.800000000745},{""stimulus"":""blank"",""time"":3022.89999999851},{""stimulus"":""https://ziweizhang0304.github.io/Stats_learning_trig/img/Stim/FN_010_g.png"",""time"":3072},{""stimulus"":""blank"",""time"":3387},{""stimulus"":""https://ziweizhang0304.github.io/Stats_learning_trig/img/Stim/FN_007_g.png"",""time"":3412},{""stimulus"":""blank"",""time"":3713.39999999851},{""stimulus"":""https://ziweizhang0304.github.io/Stats_learning_trig/img/Stim/FN_015_g.png"",""time"":3740.699999999255},{""stimulus"":""blank"",""time"":4056},{""stimulus"":""https://ziweizhang0304.github.io/Stats_learning_trig/img/Stim/FN_003_g.png"",""time"":4084.300000000745},{""stimulus"":""blank"",""time"":4393.60000000149}]","[]","NaN","https://ziweizhang0304.github.io/Stats_learning_trig/img/Stim/FN_003_g.png","post_prac","","","","","","","","","","","","",""
"","html-keyboard-response","5","1297730","0.0-3.0-0.0-2.0","3687.5","","","<p>Your reaction time for this trial was NaN ms.</p><p>Remember that you should only press the SPACEBAR when you see the shape presented at the beginning of the trial. </b> </p><p>Press enter to move on.</p>","13","","","","","","","","","","","","","","","","","",""
"","image-keyboard-response","6","1300642","0.0-3.0-1.0-0.0","2911.10000000149","","","https://ziweizhang0304.github.io/Stats_learning_trig/img/Stim/FN_026_g.png","13","","","","","","","","","","","","","","","","","",""
"","animation","7","1305073","0.0-3.0-1.0-1.0","","","","","","[{""stimulus"":""https://ziweizhang0304.github.io/Stats_learning_trig/img/Stim/FN_010_g.png"",""time"":346.79999999701977},{""stimulus"":""blank"",""time"":647.8999999985099},{""stimulus"":""https://ziweizhang0304.github.io/Stats_learning_trig/img/Stim/FN_018_g.png"",""time"":692.6999999992549},{""stimulus"":""blank"",""time"":995.8999999985099},{""stimulus"":""https://ziweizhang0304.github.io/Stats_learning_trig/img/Stim/FN_009_g.png"",""time"":1034.5},{""stimulus"":""blank"",""time"":1335.3999999985099},{""stimulus"":""https://ziweizhang0304.github.io/Stats_learning_trig/img/Stim/FN_006_g.png"",""time"":1364.3999999985099},{""stimulus"":""blank"",""time"":1667.3999999985099},{""stimulus"":""https://ziweizhang0304.github.io/Stats_learning_trig/img/Stim/FN_015_g.png"",""time"":1705.8999999985099},{""stimulus"":""blank"",""time"":2022.2999999970198},{""stimulus"":""https://ziweizhang0304.github.io/Stats_learning_trig/img/Stim/FN_001_g.png"",""time"":2040.699999999255},{""stimulus"":""blank"",""time"":2354.5},{""stimulus"":""https://ziweizhang0304.github.io/Stats_learning_trig/img/Stim/FN_003_g.png"",""time"":2381.5},{""stimulus"":""blank"",""time"":2687},{""stimulus"":""https://ziweizhang0304.github.io/Stats_learning_trig/img/Stim/FN_012_g.png"",""time"":2725.099999997765},{""stimulus"":""blank"",""time"":3026},{""stimulus"":""https://ziweizhang0304.github.io/Stats_learning_trig/img/Stim/FN_026_g.png"",""time"":3064.599999997765},{""stimulus"":""blank"",""time"":3374},{""stimulus"":""https://ziweizhang0304.github.io/Stats_learning_trig/img/Stim/FN_014_g.png"",""time"":3402.199999999255},{""stimulus"":""blank"",""time"":3706.2999999970198},{""stimulus"":""https://ziweizhang0304.github.io/Stats_learning_trig/img/Stim/FN_019_g.png"",""time"":3750.89999999851},{""stimulus"":""blank"",""time"":4060.2999999970198},{""stimulus"":""https://ziweizhang0304.github.io/Stats_learning_trig/img/Stim/FN_007_g.png"",""time"":4089.89999999851},{""stimulus"":""blank"",""time"":4392.5}]","[{""key_press"":32,""rt"":3454.900000002235,""stimulus"":""https://ziweizhang0304.github.io/Stats_learning_trig/img/Stim/FN_014_g.png""}]","390.30000000447035","https://ziweizhang0304.github.io/Stats_learning_trig/img/Stim/FN_026_g.png","post_prac","","","","","","","","","","","","",""
"","html-keyboard-response","8","1309202","0.0-3.0-1.0-2.0","4127.5","","","<p>Your reaction time for this trial was 390.3 ms.</p><p>Remember that you should only press the SPACEBAR when you see the shape presented at the beginning of the trial. </b> </p><p>Press enter to move on.</p>","13","","","","","","","","","","","","","","","","","",""
"","image-keyboard-response","9","1311618","0.0-3.0-2.0-0.0","2415.300000000745","","","https://ziweizhang0304.github.io/Stats_learning_trig/img/Stim/FN_012_g.png","13","","","","","","","","","","","","","","","","","",""
"","animation","10","1316042","0.0-3.0-2.0-1.0","","","","","","[{""stimulus"":""https://ziweizhang0304.github.io/Stats_learning_trig/img/Stim/FN_010_g.png"",""time"":343.30000000074506},{""stimulus"":""blank"",""time"":644.3000000007451},{""stimulus"":""https://ziweizhang0304.github.io/Stats_learning_trig/img/Stim/FN_018_g.png"",""time"":682.4000000022352},{""stimulus"":""blank"",""time"":998.7000000029802},{""stimulus"":""https://ziweizhang0304.github.io/Stats_learning_trig/img/Stim/FN_009_g.png"",""time"":1022.8000000007451},{""stimulus"":""blank"",""time"":1331.1000000014901},{""stimulus"":""https://ziweizhang0304.github.io/Stats_learning_trig/img/Stim/FN_006_g.png"",""time"":1385},{""stimulus"":""blank"",""time"":1686.2000000029802},{""stimulus"":""https://ziweizhang0304.github.io/Stats_learning_trig/img/Stim/FN_015_g.png"",""time"":1713.6000000014901},{""stimulus"":""blank"",""time"":2018.9000000022352},{""stimulus"":""https://ziweizhang0304.github.io/Stats_learning_trig/img/Stim/FN_001_g.png"",""time"":2047.2000000029802},{""stimulus"":""blank"",""time"":2351.2000000029802},{""stimulus"":""https://ziweizhang0304.github.io/Stats_learning_trig/img/Stim/FN_003_g.png"",""time"":2389.300000000745},{""stimulus"":""blank"",""time"":2690.60000000149},{""stimulus"":""https://ziweizhang0304.github.io/Stats_learning_trig/img/Stim/FN_012_g.png"",""time"":2729.400000002235},{""stimulus"":""blank"",""time"":3038.800000000745},{""stimulus"":""https://ziweizhang0304.github.io/Stats_learning_trig/img/Stim/FN_026_g.png"",""time"":3060.800000000745},{""stimulus"":""blank"",""time"":3370.800000000745},{""stimulus"":""https://ziweizhang0304.github.io/Stats_learning_trig/img/Stim/FN_014_g.png"",""time"":3409},{""stimulus"":""blank"",""time"":3710},{""stimulus"":""https://ziweizhang0304.github.io/Stats_learning_trig/img/Stim/FN_019_g.png"",""time"":3754.400000002235},{""stimulus"":""blank"",""time"":4057.5},{""stimulus"":""https://ziweizhang0304.github.io/Stats_learning_trig/img/Stim/FN_007_g.png"",""time"":4095.900000002235},{""stimulus"":""blank"",""time"":4396.400000002235}]","[{""key_press"":32,""rt"":3054.7999999970198,""stimulus"":""blank""}]","325.3999999947846","https://ziweizhang0304.github.io/Stats_learning_trig/img/Stim/FN_012_g.png","post_prac","","","","","","","","","","","","",""
"","html-keyboard-response","11","1317266","0.0-3.0-2.0-2.0","1223.800000000745","","","<p>Your reaction time for this trial was 325.4 ms.</p><p>Remember that you should only press the SPACEBAR when you see the shape presented at the beginning of the trial. </b> </p><p>Press enter to move on.</p>","13","","","","","","","","","","","","","","","","","",""
"","instructions","12","1320400","0.0-4.0","3133.5","","[{""page_index"":0,""viewing_time"":3133.300000000745}]","","","","","","","","","","","","","","","","","","","",""
"","image-keyboard-response","13","1323698","0.0-5.0-0.0-0.0","3297.7999999970198","","","https://ziweizhang0304.github.io/Stats_learning_trig/img/Stim/FN_012_g.png","13","","","","","","","","","","","","","","","","","",""
"","animation","14","1328120","0.0-5.0-0.0-1.0","","","","","","[{""stimulus"":""https://ziweizhang0304.github.io/Stats_learning_trig/img/Stim/FN_010_g.png"",""time"":342.19999999925494},{""stimulus"":""blank"",""time"":642.7999999970198},{""stimulus"":""https://ziweizhang0304.github.io/Stats_learning_trig/img/Stim/FN_018_g.png"",""time"":686.5},{""stimulus"":""blank"",""time"":991.3999999985099},{""stimulus"":""https://ziweizhang0304.github.io/Stats_learning_trig/img/Stim/FN_009_g.png"",""time"":1025.199999999255},{""stimulus"":""blank"",""time"":1346},{""stimulus"":""https://ziweizhang0304.github.io/Stats_learning_trig/img/Stim/FN_006_g.png"",""time"":1374.7999999970198},{""stimulus"":""blank"",""time"":1678.199999999255},{""stimulus"":""https://ziweizhang0304.github.io/Stats_learning_trig/img/Stim/FN_015_g.png"",""time"":1711.199999999255},{""stimulus"":""blank"",""time"":2023.5},{""stimulus"":""https://ziweizhang0304.github.io/Stats_learning_trig/img/Stim/FN_001_g.png"",""time"":2050},{""stimulus"":""blank"",""time"":2365.199999999255},{""stimulus"":""https://ziweizhang0304.github.io/Stats_learning_trig/img/Stim/FN_003_g.png"",""time"":2383.199999999255},{""stimulus"":""blank"",""time"":2697.099999997765},{""stimulus"":""https://ziweizhang0304.github.io/Stats_learning_trig/img/Stim/FN_012_g.png"",""time"":2725.699999999255},{""stimulus"":""blank"",""time"":3029.7999999970198},{""stimulus"":""https://ziweizhang0304.github.io/Stats_learning_trig/img/Stim/FN_026_g.png"",""time"":3066.7999999970198},{""stimulus"":""blank"",""time"":3368.599999997765},{""stimulus"":""https://ziweizhang0304.github.io/Stats_learning_trig/img/Stim/FN_014_g.png"",""time"":3411.2999999970198},{""stimulus"":""blank"",""time"":3716.2999999970198},{""stimulus"":""https://ziweizhang0304.github.io/Stats_learning_trig/img/Stim/FN_019_g.png"",""time"":3754.099999997765},{""stimulus"":""blank"",""time"":4054.89999999851},{""stimulus"":""https://ziweizhang0304.github.io/Stats_learning_trig/img/Stim/FN_007_g.png"",""time"":4083.5},{""stimulus"":""blank"",""time"":4387}]","[{""key_press"":32,""rt"":3038.199999999255,""stimulus"":""blank""}]","312.5","https://ziweizhang0304.github.io/Stats_learning_trig/img/Stim/FN_012_g.png","post_TD","1","2725.699999999255","3038.199999999255","slow","8","2","5ef9df1812148a78af8e76dc","","","","","",""
"","image-keyboard-response","15","1329842","0.0-5.0-1.0-0.0","1721.199999999255","","","https://ziweizhang0304.github.io/Stats_learning_trig/img/Stim/FN_003_g.png","13","","","","","","","","","","","","","","","","","",""
"","animation","16","1334277","0.0-5.0-1.0-1.0","","","","","","[{""stimulus"":""https://ziweizhang0304.github.io/Stats_learning_trig/img/Stim/FN_010_g.png"",""time"":352.5999999977648},{""stimulus"":""blank"",""time"":653.1999999992549},{""stimulus"":""https://ziweizhang0304.github.io/Stats_learning_trig/img/Stim/FN_018_g.png"",""time"":681.8999999985099},{""stimulus"":""blank"",""time"":985.6999999992549},{""stimulus"":""https://ziweizhang0304.github.io/Stats_learning_trig/img/Stim/FN_009_g.png"",""time"":1023.6999999992549},{""stimulus"":""blank"",""time"":1324.8999999985099},{""stimulus"":""https://ziweizhang0304.github.io/Stats_learning_trig/img/Stim/FN_006_g.png"",""time"":1367.800000000745},{""stimulus"":""blank"",""time"":1672.699999999255},{""stimulus"":""https://ziweizhang0304.github.io/Stats_learning_trig/img/Stim/FN_015_g.png"",""time"":1706.8999999985099},{""stimulus"":""blank"",""time"":2027.5999999977648},{""stimulus"":""https://ziweizhang0304.github.io/Stats_learning_trig/img/Stim/FN_001_g.png"",""time"":2040.699999999255},{""stimulus"":""blank"",""time"":2344.5},{""stimulus"":""https://ziweizhang0304.github.io/Stats_learning_trig/img/Stim/FN_003_g.png"",""time"":2389.099999997765},{""stimulus"":""blank"",""time"":2692.099999997765},{""stimulus"":""https://ziweizhang0304.github.io/Stats_learning_trig/img/Stim/FN_012_g.png"",""time"":2720.5},{""stimulus"":""blank"",""time"":3030.599999997765},{""stimulus"":""https://ziweizhang0304.github.io/Stats_learning_trig/img/Stim/FN_026_g.png"",""time"":3063.800000000745},{""stimulus"":""blank"",""time"":3378.099999997765},{""stimulus"":""https://ziweizhang0304.github.io/Stats_learning_trig/img/Stim/FN_014_g.png"",""time"":3407.199999999255},{""stimulus"":""blank"",""time"":3710.199999999255},{""stimulus"":""https://ziweizhang0304.github.io/Stats_learning_trig/img/Stim/FN_019_g.png"",""time"":3744.300000000745},{""stimulus"":""blank"",""time"":4048.800000000745},{""stimulus"":""https://ziweizhang0304.github.io/Stats_learning_trig/img/Stim/FN_007_g.png"",""time"":4093.099999997765},{""stimulus"":""blank"",""time"":4399.099999997765}]","[{""key_press"":32,""rt"":2719.599999997765,""stimulus"":""blank""}]","330.5","https://ziweizhang0304.github.io/Stats_learning_trig/img/Stim/FN_003_g.png","post_TD","2","2389.099999997765","2719.599999997765","slow","7","1","5ef9df1812148a78af8e76dc","","","","","",""
"","image-keyboard-response","17","1337009","0.0-5.0-2.0-0.0","2731.39999999851","","","https://ziweizhang0304.github.io/Stats_learning_trig/img/Stim/FN_004_g.png","13","","","","","","","","","","","","","","","","","",""
"","animation","18","1341448","0.0-5.0-2.0-1.0","","","","","","[{""stimulus"":""https://ziweizhang0304.github.io/Stats_learning_trig/img/Stim/FN_014_g.png"",""time"":342.19999999925494},{""stimulus"":""blank"",""time"":658.0999999977648},{""stimulus"":""https://ziweizhang0304.github.io/Stats_learning_trig/img/Stim/FN_019_g.png"",""time"":701},{""stimulus"":""blank"",""time"":1012.5},{""stimulus"":""https://ziweizhang0304.github.io/Stats_learning_trig/img/Stim/FN_001_g.png"",""time"":1030},{""stimulus"":""blank"",""time"":1344.699999999255},{""stimulus"":""https://ziweizhang0304.github.io/Stats_learning_trig/img/Stim/FN_007_g.png"",""time"":1382.8999999985099},{""stimulus"":""blank"",""time"":1683.0999999977648},{""stimulus"":""https://ziweizhang0304.github.io/Stats_learning_trig/img/Stim/FN_021_g.png"",""time"":1700.5999999977648},{""stimulus"":""blank"",""time"":2015.5},{""stimulus"":""https://ziweizhang0304.github.io/Stats_learning_trig/img/Stim/FN_004_g.png"",""time"":2042.5999999977648},{""stimulus"":""blank"",""time"":2347.2999999970198},{""stimulus"":""https://ziweizhang0304.github.io/Stats_learning_trig/img/Stim/FN_025_g.png"",""time"":2385.099999997765},{""stimulus"":""blank"",""time"":2686.599999997765},{""stimulus"":""https://ziweizhang0304.github.io/Stats_learning_trig/img/Stim/FN_009_g.png"",""time"":2728.699999999255},{""stimulus"":""blank"",""time"":3034.199999999255},{""stimulus"":""https://ziweizhang0304.github.io/Stats_learning_trig/img/Stim/FN_015_g.png"",""time"":3063.599999997765},{""stimulus"":""blank"",""time"":3366},{""stimulus"":""https://ziweizhang0304.github.io/Stats_learning_trig/img/Stim/FN_018_g.png"",""time"":3404.199999999255},{""stimulus"":""blank"",""time"":3705.199999999255},{""stimulus"":""https://ziweizhang0304.github.io/Stats_learning_trig/img/Stim/FN_010_g.png"",""time"":3750.099999997765},{""stimulus"":""blank"",""time"":4053.2999999970198},{""stimulus"":""https://ziweizhang0304.github.io/Stats_learning_trig/img/Stim/FN_006_g.png"",""time"":4091.599999997765},{""stimulus"":""blank"",""time"":4407.699999999255}]","[{""key_press"":32,""rt"":2398.400000002235,""stimulus"":""https://ziweizhang0304.github.io/Stats_learning_trig/img/Stim/FN_025_g.png""}]","355.80000000447035","https://ziweizhang0304.github.io/Stats_learning_trig/img/Stim/FN_004_g.png","post_TD","3","2042.5999999977648","2398.400000002235","fast","6","2","5ef9df1812148a78af8e76dc","","","","","",""
"","image-keyboard-response","19","1343554","0.0-5.0-3.0-0.0","2104","","","https://ziweizhang0304.github.io/Stats_learning_trig/img/Stim/FN_003_g.png","13","","","","","","","","","","","","","","","","","",""
"","animation","20","1347977","0.0-5.0-3.0-1.0","","","","","","[{""stimulus"":""https://ziweizhang0304.github.io/Stats_learning_trig/img/Stim/FN_001_g.png"",""time"":356.79999999701977},{""stimulus"":""blank"",""time"":657.0999999977648},{""stimulus"":""https://ziweizhang0304.github.io/Stats_learning_trig/img/Stim/FN_007_g.png"",""time"":686.0999999977648},{""stimulus"":""blank"",""time"":989.3999999985099},{""stimulus"":""https://ziweizhang0304.github.io/Stats_learning_trig/img/Stim/FN_015_g.png"",""time"":1031.7999999970198},{""stimulus"":""blank"",""time"":1339},{""stimulus"":""https://ziweizhang0304.github.io/Stats_learning_trig/img/Stim/FN_014_g.png"",""time"":1370},{""stimulus"":""blank"",""time"":1676.199999999255},{""stimulus"":""https://ziweizhang0304.github.io/Stats_learning_trig/img/Stim/FN_006_g.png"",""time"":1702.699999999255},{""stimulus"":""blank"",""time"":2011.2999999970198},{""stimulus"":""https://ziweizhang0304.github.io/Stats_learning_trig/img/Stim/FN_003_g.png"",""time"":2062},{""stimulus"":""blank"",""time"":2363.199999999255},{""stimulus"":""https://ziweizhang0304.github.io/Stats_learning_trig/img/Stim/FN_012_g.png"",""time"":2390.5},{""stimulus"":""blank"",""time"":2694.699999999255},{""stimulus"":""https://ziweizhang0304.github.io/Stats_learning_trig/img/Stim/FN_026_g.png"",""time"":2723.699999999255},{""stimulus"":""blank"",""time"":3026.89999999851},{""stimulus"":""https://ziweizhang0304.github.io/Stats_learning_trig/img/Stim/FN_009_g.png"",""time"":3065},{""stimulus"":""blank"",""time"":3365.699999999255},{""stimulus"":""https://ziweizhang0304.github.io/Stats_learning_trig/img/Stim/FN_018_g.png"",""time"":3410},{""stimulus"":""blank"",""time"":3713.199999999255},{""stimulus"":""https://ziweizhang0304.github.io/Stats_learning_trig/img/Stim/FN_010_g.png"",""time"":3767.199999999255},{""stimulus"":""blank"",""time"":4068.2999999970198},{""stimulus"":""https://ziweizhang0304.github.io/Stats_learning_trig/img/Stim/FN_019_g.png"",""time"":4085.89999999851},{""stimulus"":""blank"",""time"":4400.099999997765}]","[{""key_press"":32,""rt"":2478.900000002235,""stimulus"":""https://ziweizhang0304.github.io/Stats_learning_trig/img/Stim/FN_012_g.png""}]","416.9000000022352","https://ziweizhang0304.github.io/Stats_learning_trig/img/Stim/FN_003_g.png","post_TD","4","2062","2478.900000002235","slow","6","1","5ef9df1812148a78af8e76dc","","","","","",""
"","image-keyboard-response","21","1349874","0.0-5.0-4.0-0.0","1894.9000000022352","","","https://ziweizhang0304.github.io/Stats_learning_trig/img/Stim/FN_003_g.png","13","","","","","","","","","","","","","","","","","",""
"","animation","22","1354306","0.0-5.0-4.0-1.0","","","","","","[{""stimulus"":""https://ziweizhang0304.github.io/Stats_learning_trig/img/Stim/FN_009_g.png"",""time"":342.79999999701977},{""stimulus"":""blank"",""time"":660.1999999992549},{""stimulus"":""https://ziweizhang0304.github.io/Stats_learning_trig/img/Stim/FN_001_g.png"",""time"":680.5},{""stimulus"":""blank"",""time"":994.5999999977648},{""stimulus"":""https://ziweizhang0304.github.io/Stats_learning_trig/img/Stim/FN_006_g.png"",""time"":1021.1999999992549},{""stimulus"":""blank"",""time"":1324.8999999985099},{""stimulus"":""https://ziweizhang0304.github.io/Stats_learning_trig/img/Stim/FN_003_g.png"",""time"":1363},{""stimulus"":""blank"",""time"":1663.8999999985099},{""stimulus"":""https://ziweizhang0304.github.io/Stats_learning_trig/img/Stim/FN_012_g.png"",""time"":1706.8999999985099},{""stimulus"":""blank"",""time"":2011.2999999970198},{""stimulus"":""https://ziweizhang0304.github.io/Stats_learning_trig/img/Stim/FN_026_g.png"",""time"":2045.699999999255},{""stimulus"":""blank"",""time"":2365.599999997765},{""stimulus"":""https://ziweizhang0304.github.io/Stats_learning_trig/img/Stim/FN_015_g.png"",""time"":2382.5},{""stimulus"":""blank"",""time"":2698},{""stimulus"":""https://ziweizhang0304.github.io/Stats_learning_trig/img/Stim/FN_014_g.png"",""time"":2721.5},{""stimulus"":""blank"",""time"":3032.699999999255},{""stimulus"":""https://ziweizhang0304.github.io/Stats_learning_trig/img/Stim/FN_018_g.png"",""time"":3069.699999999255},{""stimulus"":""blank"",""time"":3385.199999999255},{""stimulus"":""https://ziweizhang0304.github.io/Stats_learning_trig/img/Stim/FN_010_g.png"",""time"":3407.699999999255},{""stimulus"":""blank"",""time"":3717.699999999255},{""stimulus"":""https://ziweizhang0304.github.io/Stats_learning_trig/img/Stim/FN_019_g.png"",""time"":3745.89999999851},{""stimulus"":""blank"",""time"":4050.099999997765},{""stimulus"":""https://ziweizhang0304.github.io/Stats_learning_trig/img/Stim/FN_007_g.png"",""time"":4094.5},{""stimulus"":""blank"",""time"":4404.099999997765}]","[{""key_press"":32,""rt"":1742.7999999970198,""stimulus"":""https://ziweizhang0304.github.io/Stats_learning_trig/img/Stim/FN_012_g.png""}]","379.79999999701977","https://ziweizhang0304.github.io/Stats_learning_trig/img/Stim/FN_003_g.png","post_TD","5","1363","1742.7999999970198","slow","4","1","5ef9df1812148a78af8e76dc","","","","","",""
"","image-keyboard-response","23","1355522","0.0-5.0-5.0-0.0","1214.3999999985099","","","https://ziweizhang0304.github.io/Stats_learning_trig/img/Stim/FN_021_g.png","13","","","","","","","","","","","","","","","","","",""
"","animation","24","1359965","0.0-5.0-5.0-1.0","","","","","","[{""stimulus"":""https://ziweizhang0304.github.io/Stats_learning_trig/img/Stim/FN_014_g.png"",""time"":346},{""stimulus"":""blank"",""time"":646.6000000014901},{""stimulus"":""https://ziweizhang0304.github.io/Stats_learning_trig/img/Stim/FN_019_g.png"",""time"":685},{""stimulus"":""blank"",""time"":994.8000000007451},{""stimulus"":""https://ziweizhang0304.github.io/Stats_learning_trig/img/Stim/FN_001_g.png"",""time"":1033},{""stimulus"":""blank"",""time"":1333.1000000014901},{""stimulus"":""https://ziweizhang0304.github.io/Stats_learning_trig/img/Stim/FN_007_g.png"",""time"":1376},{""stimulus"":""blank"",""time"":1681.300000000745},{""stimulus"":""https://ziweizhang0304.github.io/Stats_learning_trig/img/Stim/FN_021_g.png"",""time"":1710.2000000029802},{""stimulus"":""blank"",""time"":2013.300000000745},{""stimulus"":""https://ziweizhang0304.github.io/Stats_learning_trig/img/Stim/FN_004_g.png"",""time"":2048.900000002235},{""stimulus"":""blank"",""time"":2352},{""stimulus"":""https://ziweizhang0304.github.io/Stats_learning_trig/img/Stim/FN_025_g.png"",""time"":2396.400000002235},{""stimulus"":""blank"",""time"":2699.800000000745},{""stimulus"":""https://ziweizhang0304.github.io/Stats_learning_trig/img/Stim/FN_009_g.png"",""time"":2722.400000002235},{""stimulus"":""blank"",""time"":3038.900000002235},{""stimulus"":""https://ziweizhang0304.github.io/Stats_learning_trig/img/Stim/FN_015_g.png"",""time"":3072.800000000745},{""stimulus"":""blank"",""time"":3386.60000000149},{""stimulus"":""https://ziweizhang0304.github.io/Stats_learning_trig/img/Stim/FN_018_g.png"",""time"":3414.10000000149},{""stimulus"":""blank"",""time"":3719},{""stimulus"":""https://ziweizhang0304.github.io/Stats_learning_trig/img/Stim/FN_010_g.png"",""time"":3747.800000000745},{""stimulus"":""blank"",""time"":4058.10000000149},{""stimulus"":""https://ziweizhang0304.github.io/Stats_learning_trig/img/Stim/FN_006_g.png"",""time"":4085},{""stimulus"":""blank"",""time"":4389.900000002235}]","[{""key_press"":32,""rt"":2062.800000000745,""stimulus"":""https://ziweizhang0304.github.io/Stats_learning_trig/img/Stim/FN_004_g.png""}]","352.5999999977648","https://ziweizhang0304.github.io/Stats_learning_trig/img/Stim/FN_021_g.png","post_TD","6","1710.2000000029802","2062.800000000745","fast","5","1","5ef9df1812148a78af8e76dc","","","","","",""
"","image-keyboard-response","25","1361121","0.0-5.0-6.0-0.0","1154.2000000029802","","","https://ziweizhang0304.github.io/Stats_learning_trig/img/Stim/FN_012_g.png","13","","","","","","","","","","","","","","","","","",""
"","animation","26","1365544","0.0-5.0-6.0-1.0","","","","","","[{""stimulus"":""https://ziweizhang0304.github.io/Stats_learning_trig/img/Stim/FN_009_g.png"",""time"":343.5999999977648},{""stimulus"":""blank"",""time"":644.0999999977648},{""stimulus"":""https://ziweizhang0304.github.io/Stats_learning_trig/img/Stim/FN_001_g.png"",""time"":693.3000000007451},{""stimulus"":""blank"",""time"":998},{""stimulus"":""https://ziweizhang0304.github.io/Stats_learning_trig/img/Stim/FN_006_g.png"",""time"":1031.699999999255},{""stimulus"":""blank"",""time"":1346},{""stimulus"":""https://ziweizhang0304.github.io/Stats_learning_trig/img/Stim/FN_003_g.png"",""time"":1373.300000000745},{""stimulus"":""blank"",""time"":1674.0999999977648},{""stimulus"":""https://ziweizhang0304.github.io/Stats_learning_trig/img/Stim/FN_012_g.png"",""time"":1702.3999999985099},{""stimulus"":""blank"",""time"":2017.0999999977648},{""stimulus"":""https://ziweizhang0304.github.io/Stats_learning_trig/img/Stim/FN_026_g.png"",""time"":2040.699999999255},{""stimulus"":""blank"",""time"":2352.5},{""stimulus"":""https://ziweizhang0304.github.io/Stats_learning_trig/img/Stim/FN_015_g.png"",""time"":2381.300000000745},{""stimulus"":""blank"",""time"":2688.599999997765},{""stimulus"":""https://ziweizhang0304.github.io/Stats_learning_trig/img/Stim/FN_014_g.png"",""time"":2732.199999999255},{""stimulus"":""blank"",""time"":3036.199999999255},{""stimulus"":""https://ziweizhang0304.github.io/Stats_learning_trig/img/Stim/FN_018_g.png"",""time"":3074.39999999851},{""stimulus"":""blank"",""time"":3375.300000000745},{""stimulus"":""https://ziweizhang0304.github.io/Stats_learning_trig/img/Stim/FN_010_g.png"",""time"":3402.199999999255},{""stimulus"":""blank"",""time"":3707.699999999255},{""stimulus"":""https://ziweizhang0304.github.io/Stats_learning_trig/img/Stim/FN_019_g.png"",""time"":3751.5},{""stimulus"":""blank"",""time"":4055.599999997765},{""stimulus"":""https://ziweizhang0304.github.io/Stats_learning_trig/img/Stim/FN_007_g.png"",""time"":4090.099999997765},{""stimulus"":""blank"",""time"":4395.099999997765}]","[{""key_press"":32,""rt"":2031.7000000029802,""stimulus"":""blank""}]","329.30000000447035","https://ziweizhang0304.github.io/Stats_learning_trig/img/Stim/FN_012_g.png","post_TD","7","1702.3999999985099","2031.7000000029802","slow","5","2","5ef9df1812148a78af8e76dc","","","","","",""
"","image-keyboard-response","27","1366850","0.0-5.0-7.0-0.0","1304.0999999977648","","","https://ziweizhang0304.github.io/Stats_learning_trig/img/Stim/FN_025_g.png","13","","","","","","","","","","","","","","","","","",""
"","animation","28","1371278","0.0-5.0-7.0-1.0","","","","","","[{""stimulus"":""https://ziweizhang0304.github.io/Stats_learning_trig/img/Stim/FN_001_g.png"",""time"":356.5},{""stimulus"":""blank"",""time"":657.6999999992549},{""stimulus"":""https://ziweizhang0304.github.io/Stats_learning_trig/img/Stim/FN_019_g.png"",""time"":686.3999999985099},{""stimulus"":""blank"",""time"":989.7999999970198},{""stimulus"":""https://ziweizhang0304.github.io/Stats_learning_trig/img/Stim/FN_010_g.png"",""time"":1023.7999999970198},{""stimulus"":""blank"",""time"":1337.3999999985099},{""stimulus"":""https://ziweizhang0304.github.io/Stats_learning_trig/img/Stim/FN_021_g.png"",""time"":1365.3999999985099},{""stimulus"":""blank"",""time"":1676},{""stimulus"":""https://ziweizhang0304.github.io/Stats_learning_trig/img/Stim/FN_004_g.png"",""time"":1702.8999999985099},{""stimulus"":""blank"",""time"":2010.199999999255},{""stimulus"":""https://ziweizhang0304.github.io/Stats_learning_trig/img/Stim/FN_025_g.png"",""time"":2043.0999999977648},{""stimulus"":""blank"",""time"":2363.099999997765},{""stimulus"":""https://ziweizhang0304.github.io/Stats_learning_trig/img/Stim/FN_009_g.png"",""time"":2390.099999997765},{""stimulus"":""blank"",""time"":2694.7999999970198},{""stimulus"":""https://ziweizhang0304.github.io/Stats_learning_trig/img/Stim/FN_015_g.png"",""time"":2723.89999999851},{""stimulus"":""blank"",""time"":3027.39999999851},{""stimulus"":""https://ziweizhang0304.github.io/Stats_learning_trig/img/Stim/FN_014_g.png"",""time"":3065.5},{""stimulus"":""blank"",""time"":3366},{""stimulus"":""https://ziweizhang0304.github.io/Stats_learning_trig/img/Stim/FN_018_g.png"",""time"":3409.89999999851},{""stimulus"":""blank"",""time"":3713.7999999970198},{""stimulus"":""https://ziweizhang0304.github.io/Stats_learning_trig/img/Stim/FN_006_g.png"",""time"":3767.699999999255},{""stimulus"":""blank"",""time"":4068.199999999255},{""stimulus"":""https://ziweizhang0304.github.io/Stats_learning_trig/img/Stim/FN_007_g.png"",""time"":4086},{""stimulus"":""blank"",""time"":4400.5}]","[{""key_press"":32,""rt"":2366.39999999851,""stimulus"":""blank""}]","323.30000000074506","https://ziweizhang0304.github.io/Stats_learning_trig/img/Stim/FN_025_g.png","post_TD","8","2043.0999999977648","2366.39999999851","fast","6","3","5ef9df1812148a78af8e76dc","","","","","",""
"","image-keyboard-response","29","1372386","0.0-5.0-8.0-0.0","1106.5999999977648","","","https://ziweizhang0304.github.io/Stats_learning_trig/img/Stim/FN_025_g.png","13","","","","","","","","","","","","","","","","","",""
"","animation","30","1376820","0.0-5.0-8.0-1.0","","","","","","[{""stimulus"":""https://ziweizhang0304.github.io/Stats_learning_trig/img/Stim/FN_007_g.png"",""time"":354.69999999925494},{""stimulus"":""blank"",""time"":670.5},{""stimulus"":""https://ziweizhang0304.github.io/Stats_learning_trig/img/Stim/FN_009_g.png"",""time"":680.6999999992549},{""stimulus"":""blank"",""time"":987},{""stimulus"":""https://ziweizhang0304.github.io/Stats_learning_trig/img/Stim/FN_018_g.png"",""time"":1024.800000000745},{""stimulus"":""blank"",""time"":1341},{""stimulus"":""https://ziweizhang0304.github.io/Stats_learning_trig/img/Stim/FN_010_g.png"",""time"":1360.3999999985099},{""stimulus"":""blank"",""time"":1661.699999999255},{""stimulus"":""https://ziweizhang0304.github.io/Stats_learning_trig/img/Stim/FN_006_g.png"",""time"":1713.6000000014901},{""stimulus"":""blank"",""time"":2020.1000000014901},{""stimulus"":""https://ziweizhang0304.github.io/Stats_learning_trig/img/Stim/FN_015_g.png"",""time"":2044.1000000014901},{""stimulus"":""blank"",""time"":2345.60000000149},{""stimulus"":""https://ziweizhang0304.github.io/Stats_learning_trig/img/Stim/FN_021_g.png"",""time"":2389.60000000149},{""stimulus"":""blank"",""time"":2704.300000000745},{""stimulus"":""https://ziweizhang0304.github.io/Stats_learning_trig/img/Stim/FN_004_g.png"",""time"":2732},{""stimulus"":""blank"",""time"":3049.300000000745},{""stimulus"":""https://ziweizhang0304.github.io/Stats_learning_trig/img/Stim/FN_025_g.png"",""time"":3061.10000000149},{""stimulus"":""blank"",""time"":3365.89999999851},{""stimulus"":""https://ziweizhang0304.github.io/Stats_learning_trig/img/Stim/FN_014_g.png"",""time"":3400.89999999851},{""stimulus"":""blank"",""time"":3714},{""stimulus"":""https://ziweizhang0304.github.io/Stats_learning_trig/img/Stim/FN_001_g.png"",""time"":3752.39999999851},{""stimulus"":""blank"",""time"":4053.10000000149},{""stimulus"":""https://ziweizhang0304.github.io/Stats_learning_trig/img/Stim/FN_019_g.png"",""time"":4091.60000000149},{""stimulus"":""blank"",""time"":4404.60000000149}]","[{""key_press"":32,""rt"":3375.2999999970198,""stimulus"":""blank""}]","314.19999999552965","https://ziweizhang0304.github.io/Stats_learning_trig/img/Stim/FN_025_g.png","post_TD","9","3061.10000000149","3375.2999999970198","fast","9","3","5ef9df1812148a78af8e76dc","","","","","",""
"","image-keyboard-response","31","1378594","0.0-5.0-9.0-0.0","1771.8999999985099","","","https://ziweizhang0304.github.io/Stats_learning_trig/img/Stim/FN_004_g.png","13","","","","","","","","","","","","","","","","","",""
"","animation","32","1383028","0.0-5.0-9.0-1.0","","","","","","[{""stimulus"":""https://ziweizhang0304.github.io/Stats_learning_trig/img/Stim/FN_007_g.png"",""time"":354.69999999925494},{""stimulus"":""blank"",""time"":655.2999999970198},{""stimulus"":""https://ziweizhang0304.github.io/Stats_learning_trig/img/Stim/FN_009_g.png"",""time"":694.8999999985099},{""stimulus"":""blank"",""time"":1002.7999999970198},{""stimulus"":""https://ziweizhang0304.github.io/Stats_learning_trig/img/Stim/FN_018_g.png"",""time"":1029.5999999977648},{""stimulus"":""blank"",""time"":1335},{""stimulus"":""https://ziweizhang0304.github.io/Stats_learning_trig/img/Stim/FN_010_g.png"",""time"":1362.7999999970198},{""stimulus"":""blank"",""time"":1673.7999999970198},{""stimulus"":""https://ziweizhang0304.github.io/Stats_learning_trig/img/Stim/FN_006_g.png"",""time"":1715.699999999255},{""stimulus"":""blank"",""time"":2021.0999999977648},{""stimulus"":""https://ziweizhang0304.github.io/Stats_learning_trig/img/Stim/FN_015_g.png"",""time"":2043.3999999985099},{""stimulus"":""blank"",""time"":2359.39999999851},{""stimulus"":""https://ziweizhang0304.github.io/Stats_learning_trig/img/Stim/FN_021_g.png"",""time"":2388.199999999255},{""stimulus"":""blank"",""time"":2691.7999999970198},{""stimulus"":""https://ziweizhang0304.github.io/Stats_learning_trig/img/Stim/FN_004_g.png"",""time"":2725.599999997765},{""stimulus"":""blank"",""time"":3027},{""stimulus"":""https://ziweizhang0304.github.io/Stats_learning_trig/img/Stim/FN_025_g.png"",""time"":3062.699999999255},{""stimulus"":""blank"",""time"":3379},{""stimulus"":""https://ziweizhang0304.github.io/Stats_learning_trig/img/Stim/FN_014_g.png"",""time"":3412.89999999851},{""stimulus"":""blank"",""time"":3727.099999997765},{""stimulus"":""https://ziweizhang0304.github.io/Stats_learning_trig/img/Stim/FN_001_g.png"",""time"":3749.2999999970198},{""stimulus"":""blank"",""time"":4056.89999999851},{""stimulus"":""https://ziweizhang0304.github.io/Stats_learning_trig/img/Stim/FN_019_g.png"",""time"":4089.199999999255},{""stimulus"":""blank"",""time"":4404.39999999851}]","[{""key_press"":32,""rt"":3023.10000000149,""stimulus"":""https://ziweizhang0304.github.io/Stats_learning_trig/img/Stim/FN_004_g.png""}]","297.5000000037253","https://ziweizhang0304.github.io/Stats_learning_trig/img/Stim/FN_004_g.png","post_TD","10","2725.599999997765","3023.10000000149","fast","8","2","5ef9df1812148a78af8e76dc","","","","","",""
"","image-keyboard-response","33","1383777","0.0-5.0-10.0-0.0","748.6000000014901","","","https://ziweizhang0304.github.io/Stats_learning_trig/img/Stim/FN_026_g.png","13","","","","","","","","","","","","","","","","","",""
"","animation","34","1388214","0.0-5.0-10.0-1.0","","","","","","[{""stimulus"":""https://ziweizhang0304.github.io/Stats_learning_trig/img/Stim/FN_001_g.png"",""time"":347.20000000298023},{""stimulus"":""blank"",""time"":647.6000000014901},{""stimulus"":""https://ziweizhang0304.github.io/Stats_learning_trig/img/Stim/FN_007_g.png"",""time"":690.3000000007451},{""stimulus"":""blank"",""time"":997.3000000007451},{""stimulus"":""https://ziweizhang0304.github.io/Stats_learning_trig/img/Stim/FN_015_g.png"",""time"":1025.5},{""stimulus"":""blank"",""time"":1327.7000000029802},{""stimulus"":""https://ziweizhang0304.github.io/Stats_learning_trig/img/Stim/FN_014_g.png"",""time"":1369.9000000022352},{""stimulus"":""blank"",""time"":1671},{""stimulus"":""https://ziweizhang0304.github.io/Stats_learning_trig/img/Stim/FN_006_g.png"",""time"":1715.7000000029802},{""stimulus"":""blank"",""time"":2027.9000000022352},{""stimulus"":""https://ziweizhang0304.github.io/Stats_learning_trig/img/Stim/FN_003_g.png"",""time"":2053.400000002235},{""stimulus"":""blank"",""time"":2354.5},{""stimulus"":""https://ziweizhang0304.github.io/Stats_learning_trig/img/Stim/FN_012_g.png"",""time"":2380.5},{""stimulus"":""blank"",""time"":2681},{""stimulus"":""https://ziweizhang0304.github.io/Stats_learning_trig/img/Stim/FN_026_g.png"",""time"":2723.800000000745},{""stimulus"":""blank"",""time"":3038.2000000029802},{""stimulus"":""https://ziweizhang0304.github.io/Stats_learning_trig/img/Stim/FN_009_g.png"",""time"":3066.60000000149},{""stimulus"":""blank"",""time"":3372.7000000029802},{""stimulus"":""https://ziweizhang0304.github.io/Stats_learning_trig/img/Stim/FN_018_g.png"",""time"":3415.800000000745},{""stimulus"":""blank"",""time"":3721},{""stimulus"":""https://ziweizhang0304.github.io/Stats_learning_trig/img/Stim/FN_010_g.png"",""time"":3743.10000000149},{""stimulus"":""blank"",""time"":4059.7000000029802},{""stimulus"":""https://ziweizhang0304.github.io/Stats_learning_trig/img/Stim/FN_019_g.png"",""time"":4087.2000000029802},{""stimulus"":""blank"",""time"":4392.400000002235}]","[{""key_press"":32,""rt"":3040,""stimulus"":""blank""}]","316.19999999925494","https://ziweizhang0304.github.io/Stats_learning_trig/img/Stim/FN_026_g.png","post_TD","11","2723.800000000745","3040","slow","8","3","5ef9df1812148a78af8e76dc","","","","","",""
"","image-keyboard-response","35","1388962","0.0-5.0-11.0-0.0","747","","","https://ziweizhang0304.github.io/Stats_learning_trig/img/Stim/FN_025_g.png","13","","","","","","","","","","","","","","","","","",""
"","animation","36","1393390","0.0-5.0-11.0-1.0","","","","","","[{""stimulus"":""https://ziweizhang0304.github.io/Stats_learning_trig/img/Stim/FN_001_g.png"",""time"":343.5},{""stimulus"":""blank"",""time"":644.5},{""stimulus"":""https://ziweizhang0304.github.io/Stats_learning_trig/img/Stim/FN_018_g.png"",""time"":682.5999999977648},{""stimulus"":""blank"",""time"":983.6999999992549},{""stimulus"":""https://ziweizhang0304.github.io/Stats_learning_trig/img/Stim/FN_007_g.png"",""time"":1027.5},{""stimulus"":""blank"",""time"":1331.699999999255},{""stimulus"":""https://ziweizhang0304.github.io/Stats_learning_trig/img/Stim/FN_015_g.png"",""time"":1364.3999999985099},{""stimulus"":""blank"",""time"":1686.199999999255},{""stimulus"":""https://ziweizhang0304.github.io/Stats_learning_trig/img/Stim/FN_009_g.png"",""time"":1712.3999999985099},{""stimulus"":""blank"",""time"":2018.3999999985099},{""stimulus"":""https://ziweizhang0304.github.io/Stats_learning_trig/img/Stim/FN_021_g.png"",""time"":2044.5999999977648},{""stimulus"":""blank"",""time"":2350.599999997765},{""stimulus"":""https://ziweizhang0304.github.io/Stats_learning_trig/img/Stim/FN_004_g.png"",""time"":2389},{""stimulus"":""blank"",""time"":2689.699999999255},{""stimulus"":""https://ziweizhang0304.github.io/Stats_learning_trig/img/Stim/FN_025_g.png"",""time"":2728.39999999851},{""stimulus"":""blank"",""time"":3038},{""stimulus"":""https://ziweizhang0304.github.io/Stats_learning_trig/img/Stim/FN_014_g.png"",""time"":3065.699999999255},{""stimulus"":""blank"",""time"":3370.699999999255},{""stimulus"":""https://ziweizhang0304.github.io/Stats_learning_trig/img/Stim/FN_010_g.png"",""time"":3414.89999999851},{""stimulus"":""blank"",""time"":3724.89999999851},{""stimulus"":""https://ziweizhang0304.github.io/Stats_learning_trig/img/Stim/FN_006_g.png"",""time"":3753.7999999970198},{""stimulus"":""blank"",""time"":4056.89999999851},{""stimulus"":""https://ziweizhang0304.github.io/Stats_learning_trig/img/Stim/FN_019_g.png"",""time"":4094.7999999970198},{""stimulus"":""blank"",""time"":4411.29999999702}]","[{""key_press"":32,""rt"":3039.89999999851,""stimulus"":""blank""}]","311.5","https://ziweizhang0304.github.io/Stats_learning_trig/img/Stim/FN_025_g.png","post_TD","12","2728.39999999851","3039.89999999851","fast","8","3","5ef9df1812148a78af8e76dc","","","","","",""
"","image-keyboard-response","37","1393698","0.0-5.0-12.0-0.0","306.69999999925494","","","https://ziweizhang0304.github.io/Stats_learning_trig/img/Stim/FN_021_g.png","13","","","","","","","","","","","","","","","","","",""
"","animation","38","1398120","0.0-5.0-12.0-1.0","","","","","","[{""stimulus"":""https://ziweizhang0304.github.io/Stats_learning_trig/img/Stim/FN_001_g.png"",""time"":363},{""stimulus"":""blank"",""time"":678.3999999985099},{""stimulus"":""https://ziweizhang0304.github.io/Stats_learning_trig/img/Stim/FN_018_g.png"",""time"":682.1000000014901},{""stimulus"":""blank"",""time"":994.8999999985099},{""stimulus"":""https://ziweizhang0304.github.io/Stats_learning_trig/img/Stim/FN_007_g.png"",""time"":1021.6999999992549},{""stimulus"":""blank"",""time"":1327.5},{""stimulus"":""https://ziweizhang0304.github.io/Stats_learning_trig/img/Stim/FN_015_g.png"",""time"":1365.6000000014901},{""stimulus"":""blank"",""time"":1666.800000000745},{""stimulus"":""https://ziweizhang0304.github.io/Stats_learning_trig/img/Stim/FN_009_g.png"",""time"":1701.6000000014901},{""stimulus"":""blank"",""time"":2014.800000000745},{""stimulus"":""https://ziweizhang0304.github.io/Stats_learning_trig/img/Stim/FN_021_g.png"",""time"":2042.300000000745},{""stimulus"":""blank"",""time"":2347.60000000149},{""stimulus"":""https://ziweizhang0304.github.io/Stats_learning_trig/img/Stim/FN_004_g.png"",""time"":2391.300000000745},{""stimulus"":""blank"",""time"":2701.60000000149},{""stimulus"":""https://ziweizhang0304.github.io/Stats_learning_trig/img/Stim/FN_025_g.png"",""time"":2726.60000000149},{""stimulus"":""blank"",""time"":3033.89999999851},{""stimulus"":""https://ziweizhang0304.github.io/Stats_learning_trig/img/Stim/FN_014_g.png"",""time"":3071.699999999255},{""stimulus"":""blank"",""time"":3372.60000000149},{""stimulus"":""https://ziweizhang0304.github.io/Stats_learning_trig/img/Stim/FN_010_g.png"",""time"":3416.300000000745},{""stimulus"":""blank"",""time"":3720.10000000149},{""stimulus"":""https://ziweizhang0304.github.io/Stats_learning_trig/img/Stim/FN_006_g.png"",""time"":3752},{""stimulus"":""blank"",""time"":4074.39999999851},{""stimulus"":""https://ziweizhang0304.github.io/Stats_learning_trig/img/Stim/FN_019_g.png"",""time"":4081},{""stimulus"":""blank"",""time"":4391.10000000149}]","[{""key_press"":32,""rt"":2414.89999999851,""stimulus"":""https://ziweizhang0304.github.io/Stats_learning_trig/img/Stim/FN_004_g.png""}]","372.5999999977648","https://ziweizhang0304.github.io/Stats_learning_trig/img/Stim/FN_021_g.png","post_TD","13","2042.300000000745","2414.89999999851","fast","6","1","5ef9df1812148a78af8e76dc","","","","","",""
"","image-keyboard-response","39","1398834","0.0-5.0-13.0-0.0","712.4000000022352","","","https://ziweizhang0304.github.io/Stats_learning_trig/img/Stim/FN_004_g.png","13","","","","","","","","","","","","","","","","","",""
"","animation","40","1403260","0.0-5.0-13.0-1.0","","","","","","[{""stimulus"":""https://ziweizhang0304.github.io/Stats_learning_trig/img/Stim/FN_001_g.png"",""time"":342.3999999985099},{""stimulus"":""blank"",""time"":643.1999999992549},{""stimulus"":""https://ziweizhang0304.github.io/Stats_learning_trig/img/Stim/FN_019_g.png"",""time"":685.8999999985099},{""stimulus"":""blank"",""time"":990.3999999985099},{""stimulus"":""https://ziweizhang0304.github.io/Stats_learning_trig/img/Stim/FN_010_g.png"",""time"":1030.699999999255},{""stimulus"":""blank"",""time"":1345.199999999255},{""stimulus"":""https://ziweizhang0304.github.io/Stats_learning_trig/img/Stim/FN_021_g.png"",""time"":1373.699999999255},{""stimulus"":""blank"",""time"":1683.699999999255},{""stimulus"":""https://ziweizhang0304.github.io/Stats_learning_trig/img/Stim/FN_004_g.png"",""time"":1710.6000000014901},{""stimulus"":""blank"",""time"":2017.300000000745},{""stimulus"":""https://ziweizhang0304.github.io/Stats_learning_trig/img/Stim/FN_025_g.png"",""time"":2044.1000000014901},{""stimulus"":""blank"",""time"":2348},{""stimulus"":""https://ziweizhang0304.github.io/Stats_learning_trig/img/Stim/FN_009_g.png"",""time"":2393.10000000149},{""stimulus"":""blank"",""time"":2702.60000000149},{""stimulus"":""https://ziweizhang0304.github.io/Stats_learning_trig/img/Stim/FN_015_g.png"",""time"":2731.800000000745},{""stimulus"":""blank"",""time"":3035},{""stimulus"":""https://ziweizhang0304.github.io/Stats_learning_trig/img/Stim/FN_014_g.png"",""time"":3073.39999999851},{""stimulus"":""blank"",""time"":3374.5},{""stimulus"":""https://ziweizhang0304.github.io/Stats_learning_trig/img/Stim/FN_018_g.png"",""time"":3402.300000000745},{""stimulus"":""blank"",""time"":3706.89999999851},{""stimulus"":""https://ziweizhang0304.github.io/Stats_learning_trig/img/Stim/FN_006_g.png"",""time"":3751.300000000745},{""stimulus"":""blank"",""time"":4056.300000000745},{""stimulus"":""https://ziweizhang0304.github.io/Stats_learning_trig/img/Stim/FN_007_g.png"",""time"":4086.10000000149},{""stimulus"":""blank"",""time"":4393.10000000149}]","[{""key_press"":32,""rt"":2062.5,""stimulus"":""https://ziweizhang0304.github.io/Stats_learning_trig/img/Stim/FN_025_g.png""}]","351.8999999985099","https://ziweizhang0304.github.io/Stats_learning_trig/img/Stim/FN_004_g.png","post_TD","14","1710.6000000014901","2062.5","fast","5","2","5ef9df1812148a78af8e76dc","","","","","",""
"","image-keyboard-response","41","1404306","0.0-5.0-14.0-0.0","1044.699999999255","","","https://ziweizhang0304.github.io/Stats_learning_trig/img/Stim/FN_026_g.png","13","","","","","","","","","","","","","","","","","",""
"","animation","42","1408735","0.0-5.0-14.0-1.0","","","","","","[{""stimulus"":""https://ziweizhang0304.github.io/Stats_learning_trig/img/Stim/FN_010_g.png"",""time"":348.4000000022352},{""stimulus"":""blank"",""time"":664.7000000029802},{""stimulus"":""https://ziweizhang0304.github.io/Stats_learning_trig/img/Stim/FN_018_g.png"",""time"":693.2000000029802},{""stimulus"":""blank"",""time"":997.3000000007451},{""stimulus"":""https://ziweizhang0304.github.io/Stats_learning_trig/img/Stim/FN_009_g.png"",""time"":1035.4000000022352},{""stimulus"":""blank"",""time"":1351.300000000745},{""stimulus"":""https://ziweizhang0304.github.io/Stats_learning_trig/img/Stim/FN_006_g.png"",""time"":1360.6000000014901},{""stimulus"":""blank"",""time"":1668.1000000014901},{""stimulus"":""https://ziweizhang0304.github.io/Stats_learning_trig/img/Stim/FN_015_g.png"",""time"":1712.7000000029802},{""stimulus"":""blank"",""time"":2015.800000000745},{""stimulus"":""https://ziweizhang0304.github.io/Stats_learning_trig/img/Stim/FN_001_g.png"",""time"":2043},{""stimulus"":""blank"",""time"":2354},{""stimulus"":""https://ziweizhang0304.github.io/Stats_learning_trig/img/Stim/FN_003_g.png"",""time"":2396},{""stimulus"":""blank"",""time"":2701.800000000745},{""stimulus"":""https://ziweizhang0304.github.io/Stats_learning_trig/img/Stim/FN_012_g.png"",""time"":2723.900000002235},{""stimulus"":""blank"",""time"":3040.300000000745},{""stimulus"":""https://ziweizhang0304.github.io/Stats_learning_trig/img/Stim/FN_026_g.png"",""time"":3068},{""stimulus"":""blank"",""time"":3372.60000000149},{""stimulus"":""https://ziweizhang0304.github.io/Stats_learning_trig/img/Stim/FN_014_g.png"",""time"":3413.300000000745},{""stimulus"":""blank"",""time"":3720.5},{""stimulus"":""https://ziweizhang0304.github.io/Stats_learning_trig/img/Stim/FN_019_g.png"",""time"":3747.400000002235},{""stimulus"":""blank"",""time"":4058.7000000029802},{""stimulus"":""https://ziweizhang0304.github.io/Stats_learning_trig/img/Stim/FN_007_g.png"",""time"":4091.5},{""stimulus"":""blank"",""time"":4406.800000000745}]","[{""key_press"":32,""rt"":3391.199999999255,""stimulus"":""blank""}]","323.19999999925494","https://ziweizhang0304.github.io/Stats_learning_trig/img/Stim/FN_026_g.png","post_TD","15","3068","3391.199999999255","slow","9","3","5ef9df1812148a78af8e76dc","","","","","",""
"","image-keyboard-response","43","1409634","0.0-5.0-15.0-0.0","898","","","https://ziweizhang0304.github.io/Stats_learning_trig/img/Stim/FN_026_g.png","13","","","","","","","","","","","","","","","","","",""
"","animation","44","1414070","0.0-5.0-15.0-1.0","","","","","","[{""stimulus"":""https://ziweizhang0304.github.io/Stats_learning_trig/img/Stim/FN_009_g.png"",""time"":352.5},{""stimulus"":""blank"",""time"":653},{""stimulus"":""https://ziweizhang0304.github.io/Stats_learning_trig/img/Stim/FN_001_g.png"",""time"":681.6000000014901},{""stimulus"":""blank"",""time"":985.1000000014901},{""stimulus"":""https://ziweizhang0304.github.io/Stats_learning_trig/img/Stim/FN_006_g.png"",""time"":1023.4000000022352},{""stimulus"":""blank"",""time"":1339.300000000745},{""stimulus"":""https://ziweizhang0304.github.io/Stats_learning_trig/img/Stim/FN_003_g.png"",""time"":1373.5},{""stimulus"":""blank"",""time"":1687.1000000014901},{""stimulus"":""https://ziweizhang0304.github.io/Stats_learning_trig/img/Stim/FN_012_g.png"",""time"":1709.5},{""stimulus"":""blank"",""time"":2025.7000000029802},{""stimulus"":""https://ziweizhang0304.github.io/Stats_learning_trig/img/Stim/FN_026_g.png"",""time"":2052.60000000149},{""stimulus"":""blank"",""time"":2358.400000002235},{""stimulus"":""https://ziweizhang0304.github.io/Stats_learning_trig/img/Stim/FN_015_g.png"",""time"":2384.10000000149},{""stimulus"":""blank"",""time"":2690.60000000149},{""stimulus"":""https://ziweizhang0304.github.io/Stats_learning_trig/img/Stim/FN_014_g.png"",""time"":2728.60000000149},{""stimulus"":""blank"",""time"":3029.300000000745},{""stimulus"":""https://ziweizhang0304.github.io/Stats_learning_trig/img/Stim/FN_018_g.png"",""time"":3072},{""stimulus"":""blank"",""time"":3381.7000000029802},{""stimulus"":""https://ziweizhang0304.github.io/Stats_learning_trig/img/Stim/FN_010_g.png"",""time"":3410.400000002235},{""stimulus"":""blank"",""time"":3721.10000000149},{""stimulus"":""https://ziweizhang0304.github.io/Stats_learning_trig/img/Stim/FN_019_g.png"",""time"":3749.10000000149},{""stimulus"":""blank"",""time"":4053.300000000745},{""stimulus"":""https://ziweizhang0304.github.io/Stats_learning_trig/img/Stim/FN_007_g.png"",""time"":4106.900000002235},{""stimulus"":""blank"",""time"":4408.20000000298}]","[{""key_press"":32,""rt"":2383.400000002235,""stimulus"":""blank""}]","330.80000000074506","https://ziweizhang0304.github.io/Stats_learning_trig/img/Stim/FN_026_g.png","post_TD","16","2052.60000000149","2383.400000002235","slow","6","3","5ef9df1812148a78af8e76dc","","","","","",""
"","image-keyboard-response","45","1414930","0.0-5.0-16.0-0.0","859","","","https://ziweizhang0304.github.io/Stats_learning_trig/img/Stim/FN_021_g.png","13","","","","","","","","","","","","","","","","","",""
"","animation","46","1419358","0.0-5.0-16.0-1.0","","","","","","[{""stimulus"":""https://ziweizhang0304.github.io/Stats_learning_trig/img/Stim/FN_007_g.png"",""time"":347.3999999985099},{""stimulus"":""blank"",""time"":663.1999999992549},{""stimulus"":""https://ziweizhang0304.github.io/Stats_learning_trig/img/Stim/FN_009_g.png"",""time"":689.7999999970198},{""stimulus"":""blank"",""time"":995.1999999992549},{""stimulus"":""https://ziweizhang0304.github.io/Stats_learning_trig/img/Stim/FN_018_g.png"",""time"":1023.0999999977648},{""stimulus"":""blank"",""time"":1333.3999999985099},{""stimulus"":""https://ziweizhang0304.github.io/Stats_learning_trig/img/Stim/FN_010_g.png"",""time"":1375.8999999985099},{""stimulus"":""blank"",""time"":1681.0999999977648},{""stimulus"":""https://ziweizhang0304.github.io/Stats_learning_trig/img/Stim/FN_006_g.png"",""time"":1719.5999999977648},{""stimulus"":""blank"",""time"":2035.3999999985099},{""stimulus"":""https://ziweizhang0304.github.io/Stats_learning_trig/img/Stim/FN_015_g.png"",""time"":2041.5999999977648},{""stimulus"":""blank"",""time"":2352.199999999255},{""stimulus"":""https://ziweizhang0304.github.io/Stats_learning_trig/img/Stim/FN_021_g.png"",""time"":2381.699999999255},{""stimulus"":""blank"",""time"":2684.89999999851},{""stimulus"":""https://ziweizhang0304.github.io/Stats_learning_trig/img/Stim/FN_004_g.png"",""time"":2722.5},{""stimulus"":""blank"",""time"":3022.7999999970198},{""stimulus"":""https://ziweizhang0304.github.io/Stats_learning_trig/img/Stim/FN_025_g.png"",""time"":3067.89999999851},{""stimulus"":""blank"",""time"":3370.5},{""stimulus"":""https://ziweizhang0304.github.io/Stats_learning_trig/img/Stim/FN_014_g.png"",""time"":3424.199999999255},{""stimulus"":""blank"",""time"":3725.099999997765},{""stimulus"":""https://ziweizhang0304.github.io/Stats_learning_trig/img/Stim/FN_001_g.png"",""time"":3752.2999999970198},{""stimulus"":""blank"",""time"":4057.7999999970198},{""stimulus"":""https://ziweizhang0304.github.io/Stats_learning_trig/img/Stim/FN_019_g.png"",""time"":4085.89999999851},{""stimulus"":""blank"",""time"":4389.89999999851}]","[{""key_press"":32,""rt"":2751.10000000149,""stimulus"":""https://ziweizhang0304.github.io/Stats_learning_trig/img/Stim/FN_004_g.png""}]","369.4000000022352","https://ziweizhang0304.github.io/Stats_learning_trig/img/Stim/FN_021_g.png","post_TD","17","2381.699999999255","2751.10000000149","fast","7","1","5ef9df1812148a78af8e76dc","","","","","",""
"","image-keyboard-response","47","1419714","0.0-5.0-17.0-0.0","354.5999999977648","","","https://ziweizhang0304.github.io/Stats_learning_trig/img/Stim/FN_012_g.png","13","","","","","","","","","","","","","","","","","",""
"","animation","48","1424149","0.0-5.0-17.0-1.0","","","","","","[{""stimulus"":""https://ziweizhang0304.github.io/Stats_learning_trig/img/Stim/FN_006_g.png"",""time"":346.70000000298023},{""stimulus"":""blank"",""time"":647.1000000014901},{""stimulus"":""https://ziweizhang0304.github.io/Stats_learning_trig/img/Stim/FN_015_g.png"",""time"":696.5},{""stimulus"":""blank"",""time"":1010.8000000007451},{""stimulus"":""https://ziweizhang0304.github.io/Stats_learning_trig/img/Stim/FN_018_g.png"",""time"":1021},{""stimulus"":""blank"",""time"":1327.6000000014901},{""stimulus"":""https://ziweizhang0304.github.io/Stats_learning_trig/img/Stim/FN_009_g.png"",""time"":1371.6000000014901},{""stimulus"":""blank"",""time"":1675},{""stimulus"":""https://ziweizhang0304.github.io/Stats_learning_trig/img/Stim/FN_003_g.png"",""time"":1701.2000000029802},{""stimulus"":""blank"",""time"":2014.300000000745},{""stimulus"":""https://ziweizhang0304.github.io/Stats_learning_trig/img/Stim/FN_012_g.png"",""time"":2043.300000000745},{""stimulus"":""blank"",""time"":2346.900000002235},{""stimulus"":""https://ziweizhang0304.github.io/Stats_learning_trig/img/Stim/FN_026_g.png"",""time"":2400.7000000029802},{""stimulus"":""blank"",""time"":2701.60000000149},{""stimulus"":""https://ziweizhang0304.github.io/Stats_learning_trig/img/Stim/FN_014_g.png"",""time"":2734.900000002235},{""stimulus"":""blank"",""time"":3049.800000000745},{""stimulus"":""https://ziweizhang0304.github.io/Stats_learning_trig/img/Stim/FN_001_g.png"",""time"":3060.900000002235},{""stimulus"":""blank"",""time"":3366.300000000745},{""stimulus"":""https://ziweizhang0304.github.io/Stats_learning_trig/img/Stim/FN_010_g.png"",""time"":3404.10000000149},{""stimulus"":""blank"",""time"":3704.800000000745},{""stimulus"":""https://ziweizhang0304.github.io/Stats_learning_trig/img/Stim/FN_019_g.png"",""time"":3743.60000000149},{""stimulus"":""blank"",""time"":4052.400000002235},{""stimulus"":""https://ziweizhang0304.github.io/Stats_learning_trig/img/Stim/FN_007_g.png"",""time"":4106.400000002235},{""stimulus"":""blank"",""time"":4407.5}]","[{""key_press"":32,""rt"":3727.900000002235,""stimulus"":""blank""}]","1684.6000000014901","https://ziweizhang0304.github.io/Stats_learning_trig/img/Stim/FN_012_g.png","post_TD","18","2043.300000000745","3727.900000002235","slow","6","2","5ef9df1812148a78af8e76dc","","","","","",""
"","image-keyboard-response","49","1425250","0.0-5.0-18.0-0.0","1099.5","","","https://ziweizhang0304.github.io/Stats_learning_trig/img/Stim/FN_026_g.png","13","","","","","","","","","","","","","","","","","",""
"","animation","50","1429683","0.0-5.0-18.0-1.0","","","","","","[{""stimulus"":""https://ziweizhang0304.github.io/Stats_learning_trig/img/Stim/FN_006_g.png"",""time"":356},{""stimulus"":""blank"",""time"":656.6999999992549},{""stimulus"":""https://ziweizhang0304.github.io/Stats_learning_trig/img/Stim/FN_015_g.png"",""time"":690.8999999985099},{""stimulus"":""blank"",""time"":991.5},{""stimulus"":""https://ziweizhang0304.github.io/Stats_learning_trig/img/Stim/FN_018_g.png"",""time"":1026.199999999255},{""stimulus"":""blank"",""time"":1340.199999999255},{""stimulus"":""https://ziweizhang0304.github.io/Stats_learning_trig/img/Stim/FN_009_g.png"",""time"":1380.699999999255},{""stimulus"":""blank"",""time"":1681.699999999255},{""stimulus"":""https://ziweizhang0304.github.io/Stats_learning_trig/img/Stim/FN_003_g.png"",""time"":1700.6000000014901},{""stimulus"":""blank"",""time"":2014.199999999255},{""stimulus"":""https://ziweizhang0304.github.io/Stats_learning_trig/img/Stim/FN_012_g.png"",""time"":2055},{""stimulus"":""blank"",""time"":2361.800000000745},{""stimulus"":""https://ziweizhang0304.github.io/Stats_learning_trig/img/Stim/FN_026_g.png"",""time"":2391},{""stimulus"":""blank"",""time"":2699.89999999851},{""stimulus"":""https://ziweizhang0304.github.io/Stats_learning_trig/img/Stim/FN_014_g.png"",""time"":2728.5},{""stimulus"":""blank"",""time"":3032.39999999851},{""stimulus"":""https://ziweizhang0304.github.io/Stats_learning_trig/img/Stim/FN_001_g.png"",""time"":3061.5},{""stimulus"":""blank"",""time"":3371.199999999255},{""stimulus"":""https://ziweizhang0304.github.io/Stats_learning_trig/img/Stim/FN_010_g.png"",""time"":3414.699999999255},{""stimulus"":""blank"",""time"":3719.5},{""stimulus"":""https://ziweizhang0304.github.io/Stats_learning_trig/img/Stim/FN_019_g.png"",""time"":3749},{""stimulus"":""blank"",""time"":4051.800000000745},{""stimulus"":""https://ziweizhang0304.github.io/Stats_learning_trig/img/Stim/FN_007_g.png"",""time"":4090.800000000745},{""stimulus"":""blank"",""time"":4405.699999999255}]","[{""key_press"":32,""rt"":2735.10000000149,""stimulus"":""https://ziweizhang0304.github.io/Stats_learning_trig/img/Stim/FN_014_g.png""}]","344.1000000014901","https://ziweizhang0304.github.io/Stats_learning_trig/img/Stim/FN_026_g.png","post_TD","19","2391","2735.10000000149","slow","7","3","5ef9df1812148a78af8e76dc","","","","","",""
"","image-keyboard-response","51","1430498","0.0-5.0-19.0-0.0","814.4000000022352","","","https://ziweizhang0304.github.io/Stats_learning_trig/img/Stim/FN_021_g.png","13","","","","","","","","","","","","","","","","","",""
"","animation","52","1434932","0.0-5.0-19.0-1.0","","","","","","[{""stimulus"":""https://ziweizhang0304.github.io/Stats_learning_trig/img/Stim/FN_001_g.png"",""time"":346.5999999977648},{""stimulus"":""blank"",""time"":647.0999999977648},{""stimulus"":""https://ziweizhang0304.github.io/Stats_learning_trig/img/Stim/FN_019_g.png"",""time"":691.6999999992549},{""stimulus"":""blank"",""time"":995},{""stimulus"":""https://ziweizhang0304.github.io/Stats_learning_trig/img/Stim/FN_010_g.png"",""time"":1025.8999999985099},{""stimulus"":""blank"",""time"":1326.699999999255},{""stimulus"":""https://ziweizhang0304.github.io/Stats_learning_trig/img/Stim/FN_021_g.png"",""time"":1370.8999999985099},{""stimulus"":""blank"",""time"":1681},{""stimulus"":""https://ziweizhang0304.github.io/Stats_learning_trig/img/Stim/FN_004_g.png"",""time"":1701.0999999977648},{""stimulus"":""blank"",""time"":2013.2999999970198},{""stimulus"":""https://ziweizhang0304.github.io/Stats_learning_trig/img/Stim/FN_025_g.png"",""time"":2051.599999997765},{""stimulus"":""blank"",""time"":2352.2999999970198},{""stimulus"":""https://ziweizhang0304.github.io/Stats_learning_trig/img/Stim/FN_009_g.png"",""time"":2395.89999999851},{""stimulus"":""blank"",""time"":2700.2999999970198},{""stimulus"":""https://ziweizhang0304.github.io/Stats_learning_trig/img/Stim/FN_015_g.png"",""time"":2734.199999999255},{""stimulus"":""blank"",""time"":3054.699999999255},{""stimulus"":""https://ziweizhang0304.github.io/Stats_learning_trig/img/Stim/FN_014_g.png"",""time"":3070.599999997765},{""stimulus"":""blank"",""time"":3371.599999997765},{""stimulus"":""https://ziweizhang0304.github.io/Stats_learning_trig/img/Stim/FN_018_g.png"",""time"":3405.099999997765},{""stimulus"":""blank"",""time"":3719.2999999970198},{""stimulus"":""https://ziweizhang0304.github.io/Stats_learning_trig/img/Stim/FN_006_g.png"",""time"":3741.599999997765},{""stimulus"":""blank"",""time"":4058.199999999255},{""stimulus"":""https://ziweizhang0304.github.io/Stats_learning_trig/img/Stim/FN_007_g.png"",""time"":4089.39999999851},{""stimulus"":""blank"",""time"":4391.099999997765}]","[{""key_press"":32,""rt"":1694.5,""stimulus"":""blank""}]","323.6000000014901","https://ziweizhang0304.github.io/Stats_learning_trig/img/Stim/FN_021_g.png","post_TD","20","1370.8999999985099","1694.5","fast","4","1","5ef9df1812148a78af8e76dc","","","","","",""
"","image-keyboard-response","53","1435906","0.0-5.0-20.0-0.0","973.5","","","https://ziweizhang0304.github.io/Stats_learning_trig/img/Stim/FN_012_g.png","13","","","","","","","","","","","","","","","","","",""
"","animation","54","1440329","0.0-5.0-20.0-1.0","","","","","","[{""stimulus"":""https://ziweizhang0304.github.io/Stats_learning_trig/img/Stim/FN_001_g.png"",""time"":355.80000000074506},{""stimulus"":""blank"",""time"":656.8000000007451},{""stimulus"":""https://ziweizhang0304.github.io/Stats_learning_trig/img/Stim/FN_007_g.png"",""time"":684.5999999977648},{""stimulus"":""blank"",""time"":989},{""stimulus"":""https://ziweizhang0304.github.io/Stats_learning_trig/img/Stim/FN_015_g.png"",""time"":1033.5999999977648},{""stimulus"":""blank"",""time"":1337.199999999255},{""stimulus"":""https://ziweizhang0304.github.io/Stats_learning_trig/img/Stim/FN_014_g.png"",""time"":1380.3999999985099},{""stimulus"":""blank"",""time"":1691.5999999977648},{""stimulus"":""https://ziweizhang0304.github.io/Stats_learning_trig/img/Stim/FN_006_g.png"",""time"":1709.300000000745},{""stimulus"":""blank"",""time"":2024.300000000745},{""stimulus"":""https://ziweizhang0304.github.io/Stats_learning_trig/img/Stim/FN_003_g.png"",""time"":2046.5999999977648},{""stimulus"":""blank"",""time"":2362.699999999255},{""stimulus"":""https://ziweizhang0304.github.io/Stats_learning_trig/img/Stim/FN_012_g.png"",""time"":2381.599999997765},{""stimulus"":""blank"",""time"":2694.800000000745},{""stimulus"":""https://ziweizhang0304.github.io/Stats_learning_trig/img/Stim/FN_026_g.png"",""time"":2720.199999999255},{""stimulus"":""blank"",""time"":3027.199999999255},{""stimulus"":""https://ziweizhang0304.github.io/Stats_learning_trig/img/Stim/FN_009_g.png"",""time"":3065.099999997765},{""stimulus"":""blank"",""time"":3365.89999999851},{""stimulus"":""https://ziweizhang0304.github.io/Stats_learning_trig/img/Stim/FN_018_g.png"",""time"":3408.699999999255},{""stimulus"":""blank"",""time"":3714},{""stimulus"":""https://ziweizhang0304.github.io/Stats_learning_trig/img/Stim/FN_010_g.png"",""time"":3743.300000000745},{""stimulus"":""blank"",""time"":4046},{""stimulus"":""https://ziweizhang0304.github.io/Stats_learning_trig/img/Stim/FN_019_g.png"",""time"":4091.599999997765},{""stimulus"":""blank"",""time"":4392.099999997765}]","[{""key_press"":32,""rt"":2719.300000000745,""stimulus"":""blank""}]","337.70000000298023","https://ziweizhang0304.github.io/Stats_learning_trig/img/Stim/FN_012_g.png","post_TD","21","2381.599999997765","2719.300000000745","slow","7","2","5ef9df1812148a78af8e76dc","","","","","",""
"","image-keyboard-response","55","1440914","0.0-5.0-21.0-0.0","584.4000000022352","","","https://ziweizhang0304.github.io/Stats_learning_trig/img/Stim/FN_003_g.png","13","","","","","","","","","","","","","","","","","",""
"","animation","56","1445337","0.0-5.0-21.0-1.0","","","","","","[{""stimulus"":""https://ziweizhang0304.github.io/Stats_learning_trig/img/Stim/FN_006_g.png"",""time"":342.29999999701977},{""stimulus"":""blank"",""time"":644.6999999992549},{""stimulus"":""https://ziweizhang0304.github.io/Stats_learning_trig/img/Stim/FN_015_g.png"",""time"":684.2999999970198},{""stimulus"":""blank"",""time"":999.0999999977648},{""stimulus"":""https://ziweizhang0304.github.io/Stats_learning_trig/img/Stim/FN_018_g.png"",""time"":1026.8999999985099},{""stimulus"":""blank"",""time"":1331.199999999255},{""stimulus"":""https://ziweizhang0304.github.io/Stats_learning_trig/img/Stim/FN_009_g.png"",""time"":1369.5999999977648},{""stimulus"":""blank"",""time"":1670.2999999970198},{""stimulus"":""https://ziweizhang0304.github.io/Stats_learning_trig/img/Stim/FN_003_g.png"",""time"":1711.3999999985099},{""stimulus"":""blank"",""time"":2018.0999999977648},{""stimulus"":""https://ziweizhang0304.github.io/Stats_learning_trig/img/Stim/FN_012_g.png"",""time"":2047.699999999255},{""stimulus"":""blank"",""time"":2350.199999999255},{""stimulus"":""https://ziweizhang0304.github.io/Stats_learning_trig/img/Stim/FN_026_g.png"",""time"":2388},{""stimulus"":""blank"",""time"":2688.7999999970198},{""stimulus"":""https://ziweizhang0304.github.io/Stats_learning_trig/img/Stim/FN_014_g.png"",""time"":2722.5},{""stimulus"":""blank"",""time"":3038.699999999255},{""stimulus"":""https://ziweizhang0304.github.io/Stats_learning_trig/img/Stim/FN_001_g.png"",""time"":3074.89999999851},{""stimulus"":""blank"",""time"":3375.39999999851},{""stimulus"":""https://ziweizhang0304.github.io/Stats_learning_trig/img/Stim/FN_010_g.png"",""time"":3402.099999997765},{""stimulus"":""blank"",""time"":3707.699999999255},{""stimulus"":""https://ziweizhang0304.github.io/Stats_learning_trig/img/Stim/FN_019_g.png"",""time"":3750.5},{""stimulus"":""blank"",""time"":4055.7999999970198},{""stimulus"":""https://ziweizhang0304.github.io/Stats_learning_trig/img/Stim/FN_007_g.png"",""time"":4085.2999999970198},{""stimulus"":""blank"",""time"":4394.199999999255}]","[{""key_press"":32,""rt"":2095.099999997765,""stimulus"":""https://ziweizhang0304.github.io/Stats_learning_trig/img/Stim/FN_012_g.png""}]","383.69999999925494","https://ziweizhang0304.github.io/Stats_learning_trig/img/Stim/FN_003_g.png","post_TD","22","1711.3999999985099","2095.099999997765","slow","5","1","5ef9df1812148a78af8e76dc","","","","","",""
"","image-keyboard-response","57","1446114","0.0-5.0-22.0-0.0","776","","","https://ziweizhang0304.github.io/Stats_learning_trig/img/Stim/FN_004_g.png","13","","","","","","","","","","","","","","","","","",""
"","animation","58","1450545","0.0-5.0-22.0-1.0","","","","","","[{""stimulus"":""https://ziweizhang0304.github.io/Stats_learning_trig/img/Stim/FN_001_g.png"",""time"":346},{""stimulus"":""blank"",""time"":646.1999999992549},{""stimulus"":""https://ziweizhang0304.github.io/Stats_learning_trig/img/Stim/FN_018_g.png"",""time"":685.3999999985099},{""stimulus"":""blank"",""time"":1000.2999999970198},{""stimulus"":""https://ziweizhang0304.github.io/Stats_learning_trig/img/Stim/FN_007_g.png"",""time"":1026.699999999255},{""stimulus"":""blank"",""time"":1332.699999999255},{""stimulus"":""https://ziweizhang0304.github.io/Stats_learning_trig/img/Stim/FN_015_g.png"",""time"":1387},{""stimulus"":""blank"",""time"":1703.5},{""stimulus"":""https://ziweizhang0304.github.io/Stats_learning_trig/img/Stim/FN_009_g.png"",""time"":1703.8999999985099},{""stimulus"":""blank"",""time"":2004.7999999970198},{""stimulus"":""https://ziweizhang0304.github.io/Stats_learning_trig/img/Stim/FN_021_g.png"",""time"":2043.199999999255},{""stimulus"":""blank"",""time"":2352.5},{""stimulus"":""https://ziweizhang0304.github.io/Stats_learning_trig/img/Stim/FN_004_g.png"",""time"":2391.2999999970198},{""stimulus"":""blank"",""time"":2691.599999997765},{""stimulus"":""https://ziweizhang0304.github.io/Stats_learning_trig/img/Stim/FN_025_g.png"",""time"":2735.2999999970198},{""stimulus"":""blank"",""time"":3039.699999999255},{""stimulus"":""https://ziweizhang0304.github.io/Stats_learning_trig/img/Stim/FN_014_g.png"",""time"":3068.699999999255},{""stimulus"":""blank"",""time"":3371.599999997765},{""stimulus"":""https://ziweizhang0304.github.io/Stats_learning_trig/img/Stim/FN_010_g.png"",""time"":3401.89999999851},{""stimulus"":""blank"",""time"":3710.39999999851},{""stimulus"":""https://ziweizhang0304.github.io/Stats_learning_trig/img/Stim/FN_006_g.png"",""time"":3754.89999999851},{""stimulus"":""blank"",""time"":4058.2999999970198},{""stimulus"":""https://ziweizhang0304.github.io/Stats_learning_trig/img/Stim/FN_019_g.png"",""time"":4096.599999997765},{""stimulus"":""blank"",""time"":4397.5}]","[{""key_press"":32,""rt"":2735.5,""stimulus"":""https://ziweizhang0304.github.io/Stats_learning_trig/img/Stim/FN_025_g.png""}]","344.20000000298023","https://ziweizhang0304.github.io/Stats_learning_trig/img/Stim/FN_004_g.png","post_TD","23","2391.2999999970198","2735.5","fast","7","2","5ef9df1812148a78af8e76dc","","","","","",""
"","image-keyboard-response","59","1451130","0.0-5.0-23.0-0.0","591.6000000014901","","","https://ziweizhang0304.github.io/Stats_learning_trig/img/Stim/FN_025_g.png","13","","","","","","","","","","","","","","","","","",""
"","animation","60","1455551","0.0-5.0-23.0-1.0","","","","","","[{""stimulus"":""https://ziweizhang0304.github.io/Stats_learning_trig/img/Stim/FN_014_g.png"",""time"":355.5},{""stimulus"":""blank"",""time"":677.6999999992549},{""stimulus"":""https://ziweizhang0304.github.io/Stats_learning_trig/img/Stim/FN_019_g.png"",""time"":681.3999999985099},{""stimulus"":""blank"",""time"":995.3000000007451},{""stimulus"":""https://ziweizhang0304.github.io/Stats_learning_trig/img/Stim/FN_001_g.png"",""time"":1023.8000000007451},{""stimulus"":""blank"",""time"":1327.5},{""stimulus"":""https://ziweizhang0304.github.io/Stats_learning_trig/img/Stim/FN_007_g.png"",""time"":1381.5},{""stimulus"":""blank"",""time"":1682.3999999985099},{""stimulus"":""https://ziweizhang0304.github.io/Stats_learning_trig/img/Stim/FN_021_g.png"",""time"":1711.3999999985099},{""stimulus"":""blank"",""time"":2014.5},{""stimulus"":""https://ziweizhang0304.github.io/Stats_learning_trig/img/Stim/FN_004_g.png"",""time"":2052.89999999851},{""stimulus"":""blank"",""time"":2362.5},{""stimulus"":""https://ziweizhang0304.github.io/Stats_learning_trig/img/Stim/FN_025_g.png"",""time"":2390.199999999255},{""stimulus"":""blank"",""time"":2700.699999999255},{""stimulus"":""https://ziweizhang0304.github.io/Stats_learning_trig/img/Stim/FN_009_g.png"",""time"":2721},{""stimulus"":""blank"",""time"":3032.800000000745},{""stimulus"":""https://ziweizhang0304.github.io/Stats_learning_trig/img/Stim/FN_015_g.png"",""time"":3087},{""stimulus"":""blank"",""time"":3387.699999999255},{""stimulus"":""https://ziweizhang0304.github.io/Stats_learning_trig/img/Stim/FN_018_g.png"",""time"":3411.39999999851},{""stimulus"":""blank"",""time"":3712.5},{""stimulus"":""https://ziweizhang0304.github.io/Stats_learning_trig/img/Stim/FN_010_g.png"",""time"":3756},{""stimulus"":""blank"",""time"":4068.199999999255},{""stimulus"":""https://ziweizhang0304.github.io/Stats_learning_trig/img/Stim/FN_006_g.png"",""time"":4090.5},{""stimulus"":""blank"",""time"":4391.199999999255}]","[{""key_press"":32,""rt"":2719.300000000745,""stimulus"":""blank""}]","329.1000000014901","https://ziweizhang0304.github.io/Stats_learning_trig/img/Stim/FN_025_g.png","post_TD","24","2390.199999999255","2719.300000000745","fast","7","3","5ef9df1812148a78af8e76dc","93b38","","","","",""
"","survey-text","61","1481630","0.0-6.0","26074.800000000745","","","","","","","","","","","","","","","","","","{""Q0"":""I connected the symbol with what I thought it looked like (Japanese symbol, Batman symbol, Alien figure, etc.)""}","","","",""
"","survey-text","62","1495986","0.0-7.0","14354.5","","","","","","","","","","","","","","","","","","{""[object Object]"":""The figure never seemed to appear at the beginning or end""}","","","",""
"","instructions","63","1501674","0.0-8.0","5688.199999999255","","[{""page_index"":0,""viewing_time"":5687.800000000745}]","","","","","","","","","","","","","","","","","","","",""
"","free-sort","64","1517792","0.0-9.0","16109.20000000298","","","","","","","","","post_drag","","","","fast","","","","","","[{""src"":""https://ziweizhang0304.github.io/Stats_learning_trig/img/Stim/FN_004_g.png"",""x"":475,""y"":0},{""src"":""https://ziweizhang0304.github.io/Stats_learning_trig/img/Stim/FN_025_g.png"",""x"":-225,""y"":50},{""src"":""https://ziweizhang0304.github.io/Stats_learning_trig/img/Stim/FN_021_g.png"",""x"":475,""y"":50}]","[{""src"":""https://ziweizhang0304.github.io/Stats_learning_trig/img/Stim/FN_021_g.png"",""x"":17,""y"":15},{""src"":""https://ziweizhang0304.github.io/Stats_learning_trig/img/Stim/FN_004_g.png"",""x"":256,""y"":24},{""src"":""https://ziweizhang0304.github.io/Stats_learning_trig/img/Stim/FN_025_g.png"",""x"":80,""y"":32},{""src"":""https://ziweizhang0304.github.io/Stats_learning_trig/img/Stim/FN_004_g.png"",""x"":215,""y"":22}]","[{""src"":""https://ziweizhang0304.github.io/Stats_learning_trig/img/Stim/FN_004_g.png"",""x"":215,""y"":22},{""src"":""https://ziweizhang0304.github.io/Stats_learning_trig/img/Stim/FN_025_g.png"",""x"":80,""y"":32},{""src"":""https://ziweizhang0304.github.io/Stats_learning_trig/img/Stim/FN_021_g.png"",""x"":17,""y"":15}]",""
"","free-sort","65","1526258","0.0-10.0","8465.10000000149","","","","","","","","","post_drag","","","","slow","","","","","","[{""src"":""https://ziweizhang0304.github.io/Stats_learning_trig/img/Stim/FN_026_g.png"",""x"":475,""y"":0},{""src"":""https://ziweizhang0304.github.io/Stats_learning_trig/img/Stim/FN_012_g.png"",""x"":-225,""y"":50},{""src"":""https://ziweizhang0304.github.io/Stats_learning_trig/img/Stim/FN_003_g.png"",""x"":475,""y"":50}]","[{""src"":""https://ziweizhang0304.github.io/Stats_learning_trig/img/Stim/FN_026_g.png"",""x"":52,""y"":21},{""src"":""https://ziweizhang0304.github.io/Stats_learning_trig/img/Stim/FN_003_g.png"",""x"":16,""y"":18},{""src"":""https://ziweizhang0304.github.io/Stats_learning_trig/img/Stim/FN_026_g.png"",""x"":75,""y"":22},{""src"":""https://ziweizhang0304.github.io/Stats_learning_trig/img/Stim/FN_012_g.png"",""x"":181,""y"":37}]","[{""src"":""https://ziweizhang0304.github.io/Stats_learning_trig/img/Stim/FN_026_g.png"",""x"":75,""y"":22},{""src"":""https://ziweizhang0304.github.io/Stats_learning_trig/img/Stim/FN_012_g.png"",""x"":181,""y"":37},{""src"":""https://ziweizhang0304.github.io/Stats_learning_trig/img/Stim/FN_003_g.png"",""x"":16,""y"":18}]",""
"","survey-multi-choice","66","1536266","0.0-11.0","10006","","","","","","","","","","","","","","","","5ef9df1812148a78af8e76dc","","{""awareness"":""No"",""attention_check"":""Press SPACEBAR to a target""}","","","","[0,1]"
