"success","trial_type","trial_index","time_elapsed","internal_node_id","rt","url","view_history","stimulus","key_press","animation_sequence","response","TD_rt","TD_target","test_part","TD_trial_number","onset","offset","attention_state","TD_target_position","TD_within_triplet_counter","participant","yoke_participant","responses","init_locations","moves","final_locations","question_order"
"true","fullscreen","0","73722","0.0-0.0","","","","","","","","","","","","","","","","","","","","","","",""
"","external-html","1","82216","0.0-1.0","8057.9000000003725","https://ziweizhang0304.github.io/Stats_learning_trig/content/consent.html","","","","","","","","","","","","","","","","","","","","",""
"","instructions","2","363845","0.0-2.0","230350.19999999925","","[{""page_index"":0,""viewing_time"":2396.300000000745},{""page_index"":1,""viewing_time"":208917.79999999888},{""page_index"":2,""viewing_time"":16469.099999999627},{""page_index"":3,""viewing_time"":2561.800000000745}]","","","","","","","","","","","","","","","","","","","",""
"","image-keyboard-response","3","372322","0.0-3.0-0.0-0.0","8466.400000000373","","","https://ziweizhang0304.github.io/Stats_learning_trig/img/Stim/FN_004_g.png","13","","","","","","","","","","","","","","","","","",""
"","animation","4","376753","0.0-3.0-0.0-1.0","","","","","","[{""stimulus"":""https://ziweizhang0304.github.io/Stats_learning_trig/img/Stim/FN_004_g.png"",""time"":377},{""stimulus"":""blank"",""time"":678.5999999996275},{""stimulus"":""https://ziweizhang0304.github.io/Stats_learning_trig/img/Stim/FN_017_g.png"",""time"":688.5},{""stimulus"":""blank"",""time"":989.3999999985099},{""stimulus"":""https://ziweizhang0304.github.io/Stats_learning_trig/img/Stim/FN_011_g.png"",""time"":1025.699999999255},{""stimulus"":""blank"",""time"":1327},{""stimulus"":""https://ziweizhang0304.github.io/Stats_learning_trig/img/Stim/FN_025_g.png"",""time"":1365.5},{""stimulus"":""blank"",""time"":1666.199999999255},{""stimulus"":""https://ziweizhang0304.github.io/Stats_learning_trig/img/Stim/FN_015_g.png"",""time"":1705.199999999255},{""stimulus"":""blank"",""time"":2006.3999999985099},{""stimulus"":""https://ziweizhang0304.github.io/Stats_learning_trig/img/Stim/FN_002_g.png"",""time"":2045.3999999985099},{""stimulus"":""blank"",""time"":2346.5999999996275},{""stimulus"":""https://ziweizhang0304.github.io/Stats_learning_trig/img/Stim/FN_018_g.png"",""time"":2385.39999999851},{""stimulus"":""blank"",""time"":2686.39999999851},{""stimulus"":""https://ziweizhang0304.github.io/Stats_learning_trig/img/Stim/FN_008_g.png"",""time"":2725.5},{""stimulus"":""blank"",""time"":3026.7999999988824},{""stimulus"":""https://ziweizhang0304.github.io/Stats_learning_trig/img/Stim/FN_005_g.png"",""time"":3065.7999999988824},{""stimulus"":""blank"",""time"":3366.699999999255},{""stimulus"":""https://ziweizhang0304.github.io/Stats_learning_trig/img/Stim/FN_003_g.png"",""time"":3405.39999999851},{""stimulus"":""blank"",""time"":3706.5999999996275},{""stimulus"":""https://ziweizhang0304.github.io/Stats_learning_trig/img/Stim/FN_016_g.png"",""time"":3745.39999999851},{""stimulus"":""blank"",""time"":4047.199999999255},{""stimulus"":""https://ziweizhang0304.github.io/Stats_learning_trig/img/Stim/FN_020_g.png"",""time"":4085.699999999255},{""stimulus"":""blank"",""time"":4386.5}]","[{""key_press"":32,""rt"":863.8000000007451,""stimulus"":""https://ziweizhang0304.github.io/Stats_learning_trig/img/Stim/FN_017_g.png""},{""key_press"":32,""rt"":1366.6000000014901,""stimulus"":""https://ziweizhang0304.github.io/Stats_learning_trig/img/Stim/FN_025_g.png""},{""key_press"":32,""rt"":2251.7000000011176,""stimulus"":""https://ziweizhang0304.github.io/Stats_learning_trig/img/Stim/FN_002_g.png""}]","486.80000000074506","https://ziweizhang0304.github.io/Stats_learning_trig/img/Stim/FN_004_g.png","post_prac","","","","","","","","","","","","",""
"","html-keyboard-response","5","388959","0.0-3.0-0.0-2.0","12181.099999999627","","","<p>Your reaction time for this trial was 486.8 ms.</p><p>Remember that you should only press the SPACEBAR when you see the shape presented at the beginning of the trial. </b> </p><p>Press enter to move on.</p>","13","","","","","","","","","","","","","","","","","",""
"","image-keyboard-response","6","394960","0.0-3.0-1.0-0.0","5994","","","https://ziweizhang0304.github.io/Stats_learning_trig/img/Stim/FN_010_g.png","13","","","","","","","","","","","","","","","","","",""
"","animation","7","399387","0.0-3.0-1.0-1.0","","","","","","[{""stimulus"":""https://ziweizhang0304.github.io/Stats_learning_trig/img/Stim/FN_017_g.png"",""time"":344.09999999962747},{""stimulus"":""blank"",""time"":645},{""stimulus"":""https://ziweizhang0304.github.io/Stats_learning_trig/img/Stim/FN_002_g.png"",""time"":683.1999999992549},{""stimulus"":""blank"",""time"":984.5999999996275},{""stimulus"":""https://ziweizhang0304.github.io/Stats_learning_trig/img/Stim/FN_011_g.png"",""time"":1023.1999999992549},{""stimulus"":""blank"",""time"":1324.199999999255},{""stimulus"":""https://ziweizhang0304.github.io/Stats_learning_trig/img/Stim/FN_008_g.png"",""time"":1363.3999999985099},{""stimulus"":""blank"",""time"":1664.7999999988824},{""stimulus"":""https://ziweizhang0304.github.io/Stats_learning_trig/img/Stim/FN_006_g.png"",""time"":1703.5999999996275},{""stimulus"":""blank"",""time"":2004.3999999985099},{""stimulus"":""https://ziweizhang0304.github.io/Stats_learning_trig/img/Stim/FN_010_g.png"",""time"":2043},{""stimulus"":""blank"",""time"":2344.199999999255},{""stimulus"":""https://ziweizhang0304.github.io/Stats_learning_trig/img/Stim/FN_022_g.png"",""time"":2383.5999999996275},{""stimulus"":""blank"",""time"":2684.89999999851},{""stimulus"":""https://ziweizhang0304.github.io/Stats_learning_trig/img/Stim/FN_015_g.png"",""time"":2723.2999999988824},{""stimulus"":""blank"",""time"":3024.199999999255},{""stimulus"":""https://ziweizhang0304.github.io/Stats_learning_trig/img/Stim/FN_005_g.png"",""time"":3063.0999999996275},{""stimulus"":""blank"",""time"":3364.199999999255},{""stimulus"":""https://ziweizhang0304.github.io/Stats_learning_trig/img/Stim/FN_025_g.png"",""time"":3403.39999999851},{""stimulus"":""blank"",""time"":3704.39999999851},{""stimulus"":""https://ziweizhang0304.github.io/Stats_learning_trig/img/Stim/FN_003_g.png"",""time"":3743.199999999255},{""stimulus"":""blank"",""time"":4043.89999999851},{""stimulus"":""https://ziweizhang0304.github.io/Stats_learning_trig/img/Stim/FN_016_g.png"",""time"":4083.39999999851},{""stimulus"":""blank"",""time"":4384.199999999255}]","[{""key_press"":32,""rt"":2428.5,""stimulus"":""https://ziweizhang0304.github.io/Stats_learning_trig/img/Stim/FN_022_g.png""}]","385.5","https://ziweizhang0304.github.io/Stats_learning_trig/img/Stim/FN_010_g.png","post_prac","","","","","","","","","","","","",""
"","html-keyboard-response","8","403946","0.0-3.0-1.0-2.0","4546.5","","","<p>Your reaction time for this trial was 385.5 ms.</p><p>Remember that you should only press the SPACEBAR when you see the shape presented at the beginning of the trial. </b> </p><p>Press enter to move on.</p>","13","","","","","","","","","","","","","","","","","",""
"","image-keyboard-response","9","406184","0.0-3.0-2.0-0.0","2233.0999999996275","","","https://ziweizhang0304.github.io/Stats_learning_trig/img/Stim/FN_006_g.png","13","","","","","","","","","","","","","","","","","",""
"","animation","10","410611","0.0-3.0-2.0-1.0","","","","","","[{""stimulus"":""https://ziweizhang0304.github.io/Stats_learning_trig/img/Stim/FN_017_g.png"",""time"":343.7999999988824},{""stimulus"":""blank"",""time"":645.3999999985099},{""stimulus"":""https://ziweizhang0304.github.io/Stats_learning_trig/img/Stim/FN_015_g.png"",""time"":683.1999999992549},{""stimulus"":""blank"",""time"":984.3999999985099},{""stimulus"":""https://ziweizhang0304.github.io/Stats_learning_trig/img/Stim/FN_016_g.png"",""time"":1023.0999999996275},{""stimulus"":""blank"",""time"":1324.0999999996275},{""stimulus"":""https://ziweizhang0304.github.io/Stats_learning_trig/img/Stim/FN_025_g.png"",""time"":1363.5},{""stimulus"":""blank"",""time"":1664.0999999996275},{""stimulus"":""https://ziweizhang0304.github.io/Stats_learning_trig/img/Stim/FN_002_g.png"",""time"":1703.5},{""stimulus"":""blank"",""time"":2004.199999999255},{""stimulus"":""https://ziweizhang0304.github.io/Stats_learning_trig/img/Stim/FN_008_g.png"",""time"":2044},{""stimulus"":""blank"",""time"":2344.7999999988824},{""stimulus"":""https://ziweizhang0304.github.io/Stats_learning_trig/img/Stim/FN_006_g.png"",""time"":2383.5999999996275},{""stimulus"":""blank"",""time"":2684.7999999988824},{""stimulus"":""https://ziweizhang0304.github.io/Stats_learning_trig/img/Stim/FN_010_g.png"",""time"":2723.7999999988824},{""stimulus"":""blank"",""time"":3024.699999999255},{""stimulus"":""https://ziweizhang0304.github.io/Stats_learning_trig/img/Stim/FN_022_g.png"",""time"":3063.39999999851},{""stimulus"":""blank"",""time"":3364.699999999255},{""stimulus"":""https://ziweizhang0304.github.io/Stats_learning_trig/img/Stim/FN_011_g.png"",""time"":3404.0999999996275},{""stimulus"":""blank"",""time"":3704.5999999996275},{""stimulus"":""https://ziweizhang0304.github.io/Stats_learning_trig/img/Stim/FN_005_g.png"",""time"":3743.2999999988824},{""stimulus"":""blank"",""time"":4044.0999999996275},{""stimulus"":""https://ziweizhang0304.github.io/Stats_learning_trig/img/Stim/FN_003_g.png"",""time"":4083.5},{""stimulus"":""blank"",""time"":4384.5999999996275}]","[{""key_press"":32,""rt"":1554.2000000011176,""stimulus"":""https://ziweizhang0304.github.io/Stats_learning_trig/img/Stim/FN_025_g.png""},{""key_press"":32,""rt"":2793.800000000745,""stimulus"":""https://ziweizhang0304.github.io/Stats_learning_trig/img/Stim/FN_010_g.png""}]","410.2000000011176","https://ziweizhang0304.github.io/Stats_learning_trig/img/Stim/FN_006_g.png","post_prac","","","","","","","","","","","","",""
"","html-keyboard-response","11","412595","0.0-3.0-2.0-2.0","1973.9000000003725","","","<p>Your reaction time for this trial was 410.2 ms.</p><p>Remember that you should only press the SPACEBAR when you see the shape presented at the beginning of the trial. </b> </p><p>Press enter to move on.</p>","13","","","","","","","","","","","","","","","","","",""
"","instructions","12","418744","0.0-4.0","6146.5","","[{""page_index"":0,""viewing_time"":6145.10000000149}]","","","","","","","","","","","","","","","","","","","",""
"","image-keyboard-response","13","421014","0.0-5.0-0.0-0.0","2262.199999999255","","","https://ziweizhang0304.github.io/Stats_learning_trig/img/Stim/FN_004_g.png","13","","","","","","","","","","","","","","","","","",""
"","animation","14","425443","0.0-5.0-0.0-1.0","","","","","","[{""stimulus"":""https://ziweizhang0304.github.io/Stats_learning_trig/img/Stim/FN_025_g.png"",""time"":344.2999999988824},{""stimulus"":""blank"",""time"":645.5999999996275},{""stimulus"":""https://ziweizhang0304.github.io/Stats_learning_trig/img/Stim/FN_005_g.png"",""time"":683.6999999992549},{""stimulus"":""blank"",""time"":984.6999999992549},{""stimulus"":""https://ziweizhang0304.github.io/Stats_learning_trig/img/Stim/FN_002_g.png"",""time"":1023.4000000003725},{""stimulus"":""blank"",""time"":1324.0999999996275},{""stimulus"":""https://ziweizhang0304.github.io/Stats_learning_trig/img/Stim/FN_018_g.png"",""time"":1364},{""stimulus"":""blank"",""time"":1664.9000000003725},{""stimulus"":""https://ziweizhang0304.github.io/Stats_learning_trig/img/Stim/FN_020_g.png"",""time"":1703.7999999988824},{""stimulus"":""blank"",""time"":2004.5999999996275},{""stimulus"":""https://ziweizhang0304.github.io/Stats_learning_trig/img/Stim/FN_004_g.png"",""time"":2043.5},{""stimulus"":""blank"",""time"":2344.4000000003725},{""stimulus"":""https://ziweizhang0304.github.io/Stats_learning_trig/img/Stim/FN_015_g.png"",""time"":2383.2999999988824},{""stimulus"":""blank"",""time"":2684.5999999996275},{""stimulus"":""https://ziweizhang0304.github.io/Stats_learning_trig/img/Stim/FN_011_g.png"",""time"":2723.4000000003725},{""stimulus"":""blank"",""time"":3024},{""stimulus"":""https://ziweizhang0304.github.io/Stats_learning_trig/img/Stim/FN_003_g.png"",""time"":3063.4000000003725},{""stimulus"":""blank"",""time"":3364.5999999996275},{""stimulus"":""https://ziweizhang0304.github.io/Stats_learning_trig/img/Stim/FN_017_g.png"",""time"":3403.5999999996275},{""stimulus"":""blank"",""time"":3704.699999999255},{""stimulus"":""https://ziweizhang0304.github.io/Stats_learning_trig/img/Stim/FN_008_g.png"",""time"":3743.699999999255},{""stimulus"":""blank"",""time"":4045.4000000003725},{""stimulus"":""https://ziweizhang0304.github.io/Stats_learning_trig/img/Stim/FN_016_g.png"",""time"":4083.2999999988824},{""stimulus"":""blank"",""time"":4384.5}]","[{""key_press"":32,""rt"":2459.2999999988824,""stimulus"":""https://ziweizhang0304.github.io/Stats_learning_trig/img/Stim/FN_015_g.png""}]","415.7999999988824","https://ziweizhang0304.github.io/Stats_learning_trig/img/Stim/FN_004_g.png","post_TD","1","2043.5","2459.2999999988824","slow","6","3","56849d528f456f000c45e1dd","","","","","",""
"","image-keyboard-response","15","428736","0.0-5.0-1.0-0.0","3281","","","https://ziweizhang0304.github.io/Stats_learning_trig/img/Stim/FN_020_g.png","13","","","","","","","","","","","","","","","","","",""
"","animation","16","433162","0.0-5.0-1.0-1.0","","","","","","[{""stimulus"":""https://ziweizhang0304.github.io/Stats_learning_trig/img/Stim/FN_025_g.png"",""time"":344.2999999988824},{""stimulus"":""blank"",""time"":645.2999999988824},{""stimulus"":""https://ziweizhang0304.github.io/Stats_learning_trig/img/Stim/FN_005_g.png"",""time"":683.5999999996275},{""stimulus"":""blank"",""time"":984.8999999985099},{""stimulus"":""https://ziweizhang0304.github.io/Stats_learning_trig/img/Stim/FN_002_g.png"",""time"":1023.3999999985099},{""stimulus"":""blank"",""time"":1324.699999999255},{""stimulus"":""https://ziweizhang0304.github.io/Stats_learning_trig/img/Stim/FN_018_g.png"",""time"":1363.699999999255},{""stimulus"":""blank"",""time"":1665},{""stimulus"":""https://ziweizhang0304.github.io/Stats_learning_trig/img/Stim/FN_020_g.png"",""time"":1703.5},{""stimulus"":""blank"",""time"":2004.0999999996275},{""stimulus"":""https://ziweizhang0304.github.io/Stats_learning_trig/img/Stim/FN_004_g.png"",""time"":2043.7999999988824},{""stimulus"":""blank"",""time"":2344.699999999255},{""stimulus"":""https://ziweizhang0304.github.io/Stats_learning_trig/img/Stim/FN_015_g.png"",""time"":2384.39999999851},{""stimulus"":""blank"",""time"":2685.5},{""stimulus"":""https://ziweizhang0304.github.io/Stats_learning_trig/img/Stim/FN_011_g.png"",""time"":2723.7999999988824},{""stimulus"":""blank"",""time"":3024.89999999851},{""stimulus"":""https://ziweizhang0304.github.io/Stats_learning_trig/img/Stim/FN_003_g.png"",""time"":3063.7999999988824},{""stimulus"":""blank"",""time"":3365.0999999996275},{""stimulus"":""https://ziweizhang0304.github.io/Stats_learning_trig/img/Stim/FN_017_g.png"",""time"":3403.5},{""stimulus"":""blank"",""time"":3704.5},{""stimulus"":""https://ziweizhang0304.github.io/Stats_learning_trig/img/Stim/FN_008_g.png"",""time"":3744.5999999996275},{""stimulus"":""blank"",""time"":4045.5999999996275},{""stimulus"":""https://ziweizhang0304.github.io/Stats_learning_trig/img/Stim/FN_016_g.png"",""time"":4083.5999999996275},{""stimulus"":""blank"",""time"":4384.5999999996275}]","[{""key_press"":32,""rt"":1678.800000000745,""stimulus"":""blank""}]","NaN","https://ziweizhang0304.github.io/Stats_learning_trig/img/Stim/FN_020_g.png","post_TD","2","1703.5","","slow","5","2","56849d528f456f000c45e1dd","","","","","",""
"","image-keyboard-response","17","435245","0.0-5.0-2.0-0.0","2076.39999999851","","","https://ziweizhang0304.github.io/Stats_learning_trig/img/Stim/FN_022_g.png","13","","","","","","","","","","","","","","","","","",""
"","animation","18","439671","0.0-5.0-2.0-1.0","","","","","","[{""stimulus"":""https://ziweizhang0304.github.io/Stats_learning_trig/img/Stim/FN_002_g.png"",""time"":344},{""stimulus"":""blank"",""time"":644.5},{""stimulus"":""https://ziweizhang0304.github.io/Stats_learning_trig/img/Stim/FN_015_g.png"",""time"":683.4000000003725},{""stimulus"":""blank"",""time"":984.8000000007451},{""stimulus"":""https://ziweizhang0304.github.io/Stats_learning_trig/img/Stim/FN_008_g.png"",""time"":1023.4000000003725},{""stimulus"":""blank"",""time"":1324.300000000745},{""stimulus"":""https://ziweizhang0304.github.io/Stats_learning_trig/img/Stim/FN_006_g.png"",""time"":1363.4000000003725},{""stimulus"":""blank"",""time"":1664.5},{""stimulus"":""https://ziweizhang0304.github.io/Stats_learning_trig/img/Stim/FN_010_g.png"",""time"":1703.4000000003725},{""stimulus"":""blank"",""time"":2004.0999999996275},{""stimulus"":""https://ziweizhang0304.github.io/Stats_learning_trig/img/Stim/FN_022_g.png"",""time"":2043.5999999996275},{""stimulus"":""blank"",""time"":2344.0999999996275},{""stimulus"":""https://ziweizhang0304.github.io/Stats_learning_trig/img/Stim/FN_011_g.png"",""time"":2383.5},{""stimulus"":""blank"",""time"":2684.300000000745},{""stimulus"":""https://ziweizhang0304.github.io/Stats_learning_trig/img/Stim/FN_005_g.png"",""time"":2723.5},{""stimulus"":""blank"",""time"":3024.4000000003725},{""stimulus"":""https://ziweizhang0304.github.io/Stats_learning_trig/img/Stim/FN_025_g.png"",""time"":3063.4000000003725},{""stimulus"":""blank"",""time"":3364.699999999255},{""stimulus"":""https://ziweizhang0304.github.io/Stats_learning_trig/img/Stim/FN_003_g.png"",""time"":3403.800000000745},{""stimulus"":""blank"",""time"":3705},{""stimulus"":""https://ziweizhang0304.github.io/Stats_learning_trig/img/Stim/FN_017_g.png"",""time"":3743.9000000003725},{""stimulus"":""blank"",""time"":4044.5},{""stimulus"":""https://ziweizhang0304.github.io/Stats_learning_trig/img/Stim/FN_016_g.png"",""time"":4083.5999999996275},{""stimulus"":""blank"",""time"":4384.5}]","[{""key_press"":32,""rt"":2456.800000000745,""stimulus"":""https://ziweizhang0304.github.io/Stats_learning_trig/img/Stim/FN_011_g.png""}]","413.2000000011176","https://ziweizhang0304.github.io/Stats_learning_trig/img/Stim/FN_022_g.png","post_TD","3","2043.5999999996275","2456.800000000745","fast","6","3","56849d528f456f000c45e1dd","","","","","",""
"","image-keyboard-response","19","441471","0.0-5.0-3.0-0.0","1789.800000000745","","","https://ziweizhang0304.github.io/Stats_learning_trig/img/Stim/FN_022_g.png","13","","","","","","","","","","","","","","","","","",""
"","animation","20","445897","0.0-5.0-3.0-1.0","","","","","","[{""stimulus"":""https://ziweizhang0304.github.io/Stats_learning_trig/img/Stim/FN_017_g.png"",""time"":344},{""stimulus"":""blank"",""time"":645.2000000011176},{""stimulus"":""https://ziweizhang0304.github.io/Stats_learning_trig/img/Stim/FN_002_g.png"",""time"":683.3000000007451},{""stimulus"":""blank"",""time"":984.5},{""stimulus"":""https://ziweizhang0304.github.io/Stats_learning_trig/img/Stim/FN_011_g.png"",""time"":1023},{""stimulus"":""blank"",""time"":1323.6000000014901},{""stimulus"":""https://ziweizhang0304.github.io/Stats_learning_trig/img/Stim/FN_008_g.png"",""time"":1363.300000000745},{""stimulus"":""blank"",""time"":1664.2000000011176},{""stimulus"":""https://ziweizhang0304.github.io/Stats_learning_trig/img/Stim/FN_006_g.png"",""time"":1703.300000000745},{""stimulus"":""blank"",""time"":2004.2000000011176},{""stimulus"":""https://ziweizhang0304.github.io/Stats_learning_trig/img/Stim/FN_010_g.png"",""time"":2043.6000000014901},{""stimulus"":""blank"",""time"":2345},{""stimulus"":""https://ziweizhang0304.github.io/Stats_learning_trig/img/Stim/FN_022_g.png"",""time"":2383.5},{""stimulus"":""blank"",""time"":2684.800000000745},{""stimulus"":""https://ziweizhang0304.github.io/Stats_learning_trig/img/Stim/FN_015_g.png"",""time"":2723.300000000745},{""stimulus"":""blank"",""time"":3023.9000000003725},{""stimulus"":""https://ziweizhang0304.github.io/Stats_learning_trig/img/Stim/FN_005_g.png"",""time"":3063.300000000745},{""stimulus"":""blank"",""time"":3364.2000000011176},{""stimulus"":""https://ziweizhang0304.github.io/Stats_learning_trig/img/Stim/FN_025_g.png"",""time"":3403.4000000003725},{""stimulus"":""blank"",""time"":3704.5},{""stimulus"":""https://ziweizhang0304.github.io/Stats_learning_trig/img/Stim/FN_003_g.png"",""time"":3743.300000000745},{""stimulus"":""blank"",""time"":4044.5},{""stimulus"":""https://ziweizhang0304.github.io/Stats_learning_trig/img/Stim/FN_016_g.png"",""time"":4083.4000000003725},{""stimulus"":""blank"",""time"":4384.4000000003725}]","[{""key_press"":32,""rt"":2731.4000000003725,""stimulus"":""https://ziweizhang0304.github.io/Stats_learning_trig/img/Stim/FN_015_g.png""}]","347.90000000037253","https://ziweizhang0304.github.io/Stats_learning_trig/img/Stim/FN_022_g.png","post_TD","4","2383.5","2731.4000000003725","fast","7","3","56849d528f456f000c45e1dd","","","","","",""
"","image-keyboard-response","21","447096","0.0-5.0-4.0-0.0","1189.0999999996275","","","https://ziweizhang0304.github.io/Stats_learning_trig/img/Stim/FN_018_g.png","13","","","","","","","","","","","","","","","","","",""
"","animation","22","451522","0.0-5.0-4.0-1.0","","","","","","[{""stimulus"":""https://ziweizhang0304.github.io/Stats_learning_trig/img/Stim/FN_011_g.png"",""time"":343.3999999985099},{""stimulus"":""blank"",""time"":644.0999999996275},{""stimulus"":""https://ziweizhang0304.github.io/Stats_learning_trig/img/Stim/FN_002_g.png"",""time"":683.8999999985099},{""stimulus"":""blank"",""time"":984.7999999988824},{""stimulus"":""https://ziweizhang0304.github.io/Stats_learning_trig/img/Stim/FN_015_g.png"",""time"":1023.7999999988824},{""stimulus"":""blank"",""time"":1325.0999999996275},{""stimulus"":""https://ziweizhang0304.github.io/Stats_learning_trig/img/Stim/FN_016_g.png"",""time"":1363.0999999996275},{""stimulus"":""blank"",""time"":1664.5999999996275},{""stimulus"":""https://ziweizhang0304.github.io/Stats_learning_trig/img/Stim/FN_025_g.png"",""time"":1703.3999999985099},{""stimulus"":""blank"",""time"":2004.699999999255},{""stimulus"":""https://ziweizhang0304.github.io/Stats_learning_trig/img/Stim/FN_008_g.png"",""time"":2043.199999999255},{""stimulus"":""blank"",""time"":2343.699999999255},{""stimulus"":""https://ziweizhang0304.github.io/Stats_learning_trig/img/Stim/FN_018_g.png"",""time"":2383.5},{""stimulus"":""blank"",""time"":2684.7999999988824},{""stimulus"":""https://ziweizhang0304.github.io/Stats_learning_trig/img/Stim/FN_020_g.png"",""time"":2723.199999999255},{""stimulus"":""blank"",""time"":3024},{""stimulus"":""https://ziweizhang0304.github.io/Stats_learning_trig/img/Stim/FN_004_g.png"",""time"":3063.39999999851},{""stimulus"":""blank"",""time"":3364.5},{""stimulus"":""https://ziweizhang0304.github.io/Stats_learning_trig/img/Stim/FN_005_g.png"",""time"":3403.2999999988824},{""stimulus"":""blank"",""time"":3704.5999999996275},{""stimulus"":""https://ziweizhang0304.github.io/Stats_learning_trig/img/Stim/FN_003_g.png"",""time"":3743.199999999255},{""stimulus"":""blank"",""time"":4043.89999999851},{""stimulus"":""https://ziweizhang0304.github.io/Stats_learning_trig/img/Stim/FN_017_g.png"",""time"":4083.5999999996275},{""stimulus"":""blank"",""time"":4384.699999999255}]","[{""key_press"":32,""rt"":2742.9000000003725,""stimulus"":""https://ziweizhang0304.github.io/Stats_learning_trig/img/Stim/FN_020_g.png""}]","359.40000000037253","https://ziweizhang0304.github.io/Stats_learning_trig/img/Stim/FN_018_g.png","post_TD","5","2383.5","2742.9000000003725","slow","7","1","56849d528f456f000c45e1dd","","","","","",""
"","image-keyboard-response","23","452670","0.0-5.0-5.0-0.0","1137.699999999255","","","https://ziweizhang0304.github.io/Stats_learning_trig/img/Stim/FN_018_g.png","13","","","","","","","","","","","","","","","","","",""
"","animation","24","457097","0.0-5.0-5.0-1.0","","","","","","[{""stimulus"":""https://ziweizhang0304.github.io/Stats_learning_trig/img/Stim/FN_002_g.png"",""time"":344.2000000011176},{""stimulus"":""blank"",""time"":645.4000000003725},{""stimulus"":""https://ziweizhang0304.github.io/Stats_learning_trig/img/Stim/FN_008_g.png"",""time"":683.3000000007451},{""stimulus"":""blank"",""time"":984.4000000003725},{""stimulus"":""https://ziweizhang0304.github.io/Stats_learning_trig/img/Stim/FN_025_g.png"",""time"":1023.1000000014901},{""stimulus"":""blank"",""time"":1323.7000000011176},{""stimulus"":""https://ziweizhang0304.github.io/Stats_learning_trig/img/Stim/FN_003_g.png"",""time"":1363.2000000011176},{""stimulus"":""blank"",""time"":1664.5},{""stimulus"":""https://ziweizhang0304.github.io/Stats_learning_trig/img/Stim/FN_018_g.png"",""time"":1703.300000000745},{""stimulus"":""blank"",""time"":2004.2000000011176},{""stimulus"":""https://ziweizhang0304.github.io/Stats_learning_trig/img/Stim/FN_020_g.png"",""time"":2043.6000000014901},{""stimulus"":""blank"",""time"":2344.300000000745},{""stimulus"":""https://ziweizhang0304.github.io/Stats_learning_trig/img/Stim/FN_004_g.png"",""time"":2383.800000000745},{""stimulus"":""blank"",""time"":2685},{""stimulus"":""https://ziweizhang0304.github.io/Stats_learning_trig/img/Stim/FN_015_g.png"",""time"":2723.5},{""stimulus"":""blank"",""time"":3024.2000000011176},{""stimulus"":""https://ziweizhang0304.github.io/Stats_learning_trig/img/Stim/FN_011_g.png"",""time"":3063.60000000149},{""stimulus"":""blank"",""time"":3364.7000000011176},{""stimulus"":""https://ziweizhang0304.github.io/Stats_learning_trig/img/Stim/FN_005_g.png"",""time"":3403.300000000745},{""stimulus"":""blank"",""time"":3704.4000000003725},{""stimulus"":""https://ziweizhang0304.github.io/Stats_learning_trig/img/Stim/FN_017_g.png"",""time"":3743.5},{""stimulus"":""blank"",""time"":4044.60000000149},{""stimulus"":""https://ziweizhang0304.github.io/Stats_learning_trig/img/Stim/FN_016_g.png"",""time"":4083.300000000745},{""stimulus"":""blank"",""time"":4384.4000000003725}]","[{""key_press"":32,""rt"":2082.300000000745,""stimulus"":""https://ziweizhang0304.github.io/Stats_learning_trig/img/Stim/FN_020_g.png""}]","379","https://ziweizhang0304.github.io/Stats_learning_trig/img/Stim/FN_018_g.png","post_TD","6","1703.300000000745","2082.300000000745","slow","5","1","56849d528f456f000c45e1dd","","","","","",""
"","image-keyboard-response","25","457947","0.0-5.0-6.0-0.0","840.1000000014901","","","https://ziweizhang0304.github.io/Stats_learning_trig/img/Stim/FN_004_g.png","13","","","","","","","","","","","","","","","","","",""
"","animation","26","462373","0.0-5.0-6.0-1.0","","","","","","[{""stimulus"":""https://ziweizhang0304.github.io/Stats_learning_trig/img/Stim/FN_011_g.png"",""time"":343.5},{""stimulus"":""blank"",""time"":644},{""stimulus"":""https://ziweizhang0304.github.io/Stats_learning_trig/img/Stim/FN_002_g.png"",""time"":683.1999999992549},{""stimulus"":""blank"",""time"":984.2999999988824},{""stimulus"":""https://ziweizhang0304.github.io/Stats_learning_trig/img/Stim/FN_015_g.png"",""time"":1023.3999999985099},{""stimulus"":""blank"",""time"":1324.3999999985099},{""stimulus"":""https://ziweizhang0304.github.io/Stats_learning_trig/img/Stim/FN_016_g.png"",""time"":1363.199999999255},{""stimulus"":""blank"",""time"":1664.0999999996275},{""stimulus"":""https://ziweizhang0304.github.io/Stats_learning_trig/img/Stim/FN_025_g.png"",""time"":1704},{""stimulus"":""blank"",""time"":2005.199999999255},{""stimulus"":""https://ziweizhang0304.github.io/Stats_learning_trig/img/Stim/FN_008_g.png"",""time"":2043.699999999255},{""stimulus"":""blank"",""time"":2344.39999999851},{""stimulus"":""https://ziweizhang0304.github.io/Stats_learning_trig/img/Stim/FN_018_g.png"",""time"":2383.2999999988824},{""stimulus"":""blank"",""time"":2684.199999999255},{""stimulus"":""https://ziweizhang0304.github.io/Stats_learning_trig/img/Stim/FN_020_g.png"",""time"":2723.89999999851},{""stimulus"":""blank"",""time"":3024.5},{""stimulus"":""https://ziweizhang0304.github.io/Stats_learning_trig/img/Stim/FN_004_g.png"",""time"":3063.2999999988824},{""stimulus"":""blank"",""time"":3364.5},{""stimulus"":""https://ziweizhang0304.github.io/Stats_learning_trig/img/Stim/FN_005_g.png"",""time"":3403.5999999996275},{""stimulus"":""blank"",""time"":3704.5999999996275},{""stimulus"":""https://ziweizhang0304.github.io/Stats_learning_trig/img/Stim/FN_003_g.png"",""time"":3742.89999999851},{""stimulus"":""blank"",""time"":4043.5},{""stimulus"":""https://ziweizhang0304.github.io/Stats_learning_trig/img/Stim/FN_017_g.png"",""time"":4083.39999999851},{""stimulus"":""blank"",""time"":4384.299999998882}]","[{""key_press"":32,""rt"":3006.9000000003725,""stimulus"":""https://ziweizhang0304.github.io/Stats_learning_trig/img/Stim/FN_020_g.png""}]","NaN","https://ziweizhang0304.github.io/Stats_learning_trig/img/Stim/FN_004_g.png","post_TD","7","3063.2999999988824","","slow","9","3","56849d528f456f000c45e1dd","","","","","",""
"","image-keyboard-response","27","465973","0.0-5.0-7.0-0.0","3591.7999999988824","","","https://ziweizhang0304.github.io/Stats_learning_trig/img/Stim/FN_006_g.png","13","","","","","","","","","","","","","","","","","",""
"","animation","28","470400","0.0-5.0-7.0-1.0","","","","","","[{""stimulus"":""https://ziweizhang0304.github.io/Stats_learning_trig/img/Stim/FN_008_g.png"",""time"":343.80000000074506},{""stimulus"":""blank"",""time"":645},{""stimulus"":""https://ziweizhang0304.github.io/Stats_learning_trig/img/Stim/FN_003_g.png"",""time"":684},{""stimulus"":""blank"",""time"":985.2000000011176},{""stimulus"":""https://ziweizhang0304.github.io/Stats_learning_trig/img/Stim/FN_011_g.png"",""time"":1023.4000000003725},{""stimulus"":""blank"",""time"":1324},{""stimulus"":""https://ziweizhang0304.github.io/Stats_learning_trig/img/Stim/FN_005_g.png"",""time"":1363.7000000011176},{""stimulus"":""blank"",""time"":1664.7000000011176},{""stimulus"":""https://ziweizhang0304.github.io/Stats_learning_trig/img/Stim/FN_017_g.png"",""time"":1703.4000000003725},{""stimulus"":""blank"",""time"":2004.7000000011176},{""stimulus"":""https://ziweizhang0304.github.io/Stats_learning_trig/img/Stim/FN_006_g.png"",""time"":2043.300000000745},{""stimulus"":""blank"",""time"":2344.300000000745},{""stimulus"":""https://ziweizhang0304.github.io/Stats_learning_trig/img/Stim/FN_010_g.png"",""time"":2383.5},{""stimulus"":""blank"",""time"":2684.800000000745},{""stimulus"":""https://ziweizhang0304.github.io/Stats_learning_trig/img/Stim/FN_022_g.png"",""time"":2723.60000000149},{""stimulus"":""blank"",""time"":3024.300000000745},{""stimulus"":""https://ziweizhang0304.github.io/Stats_learning_trig/img/Stim/FN_015_g.png"",""time"":3063.800000000745},{""stimulus"":""blank"",""time"":3364.5},{""stimulus"":""https://ziweizhang0304.github.io/Stats_learning_trig/img/Stim/FN_025_g.png"",""time"":3403.7000000011176},{""stimulus"":""blank"",""time"":3704.9000000003725},{""stimulus"":""https://ziweizhang0304.github.io/Stats_learning_trig/img/Stim/FN_016_g.png"",""time"":3743.7000000011176},{""stimulus"":""blank"",""time"":4044.7000000011176},{""stimulus"":""https://ziweizhang0304.github.io/Stats_learning_trig/img/Stim/FN_002_g.png"",""time"":4083.7000000011176},{""stimulus"":""blank"",""time"":4384.700000001118}]","[{""key_press"":32,""rt"":2465,""stimulus"":""https://ziweizhang0304.github.io/Stats_learning_trig/img/Stim/FN_010_g.png""}]","421.69999999925494","https://ziweizhang0304.github.io/Stats_learning_trig/img/Stim/FN_006_g.png","post_TD","8","2043.300000000745","2465","fast","6","1","56849d528f456f000c45e1dd","","","","","",""
"","image-keyboard-response","29","474447","0.0-5.0-8.0-0.0","4037.5","","","https://ziweizhang0304.github.io/Stats_learning_trig/img/Stim/FN_004_g.png","13","","","","","","","","","","","","","","","","","",""
"","animation","30","478874","0.0-5.0-8.0-1.0","","","","","","[{""stimulus"":""https://ziweizhang0304.github.io/Stats_learning_trig/img/Stim/FN_002_g.png"",""time"":343.40000000037253},{""stimulus"":""blank"",""time"":644},{""stimulus"":""https://ziweizhang0304.github.io/Stats_learning_trig/img/Stim/FN_008_g.png"",""time"":683.4000000003725},{""stimulus"":""blank"",""time"":984.2000000011176},{""stimulus"":""https://ziweizhang0304.github.io/Stats_learning_trig/img/Stim/FN_025_g.png"",""time"":1022.7000000011176},{""stimulus"":""blank"",""time"":1324.0999999996275},{""stimulus"":""https://ziweizhang0304.github.io/Stats_learning_trig/img/Stim/FN_003_g.png"",""time"":1363.0999999996275},{""stimulus"":""blank"",""time"":1663.800000000745},{""stimulus"":""https://ziweizhang0304.github.io/Stats_learning_trig/img/Stim/FN_018_g.png"",""time"":1703.2000000011176},{""stimulus"":""blank"",""time"":2004.4000000003725},{""stimulus"":""https://ziweizhang0304.github.io/Stats_learning_trig/img/Stim/FN_020_g.png"",""time"":2043.5},{""stimulus"":""blank"",""time"":2344.0999999996275},{""stimulus"":""https://ziweizhang0304.github.io/Stats_learning_trig/img/Stim/FN_004_g.png"",""time"":2383.5},{""stimulus"":""blank"",""time"":2684.5},{""stimulus"":""https://ziweizhang0304.github.io/Stats_learning_trig/img/Stim/FN_015_g.png"",""time"":2723.7000000011176},{""stimulus"":""blank"",""time"":3024.300000000745},{""stimulus"":""https://ziweizhang0304.github.io/Stats_learning_trig/img/Stim/FN_011_g.png"",""time"":3063.4000000003725},{""stimulus"":""blank"",""time"":3364.0999999996275},{""stimulus"":""https://ziweizhang0304.github.io/Stats_learning_trig/img/Stim/FN_005_g.png"",""time"":3403.5},{""stimulus"":""blank"",""time"":3704.5999999996275},{""stimulus"":""https://ziweizhang0304.github.io/Stats_learning_trig/img/Stim/FN_017_g.png"",""time"":3743.0999999996275},{""stimulus"":""blank"",""time"":4043.7000000011176},{""stimulus"":""https://ziweizhang0304.github.io/Stats_learning_trig/img/Stim/FN_016_g.png"",""time"":4083.0999999996275},{""stimulus"":""blank"",""time"":4383.9000000003725}]","[{""key_press"":32,""rt"":2778.5999999996275,""stimulus"":""https://ziweizhang0304.github.io/Stats_learning_trig/img/Stim/FN_015_g.png""}]","395.09999999962747","https://ziweizhang0304.github.io/Stats_learning_trig/img/Stim/FN_004_g.png","post_TD","9","2383.5","2778.5999999996275","slow","7","3","56849d528f456f000c45e1dd","","","","","",""
"","image-keyboard-response","31","479797","0.0-5.0-9.0-0.0","914.1999999992549","","","https://ziweizhang0304.github.io/Stats_learning_trig/img/Stim/FN_010_g.png","13","","","","","","","","","","","","","","","","","",""
"","animation","32","484223","0.0-5.0-9.0-1.0","","","","","","[{""stimulus"":""https://ziweizhang0304.github.io/Stats_learning_trig/img/Stim/FN_017_g.png"",""time"":343.40000000037253},{""stimulus"":""blank"",""time"":644},{""stimulus"":""https://ziweizhang0304.github.io/Stats_learning_trig/img/Stim/FN_015_g.png"",""time"":683.4000000003725},{""stimulus"":""blank"",""time"":984.5},{""stimulus"":""https://ziweizhang0304.github.io/Stats_learning_trig/img/Stim/FN_016_g.png"",""time"":1023.2000000011176},{""stimulus"":""blank"",""time"":1324},{""stimulus"":""https://ziweizhang0304.github.io/Stats_learning_trig/img/Stim/FN_025_g.png"",""time"":1363.4000000003725},{""stimulus"":""blank"",""time"":1664.300000000745},{""stimulus"":""https://ziweizhang0304.github.io/Stats_learning_trig/img/Stim/FN_002_g.png"",""time"":1703.300000000745},{""stimulus"":""blank"",""time"":2004.5999999996275},{""stimulus"":""https://ziweizhang0304.github.io/Stats_learning_trig/img/Stim/FN_008_g.png"",""time"":2043.300000000745},{""stimulus"":""blank"",""time"":2344},{""stimulus"":""https://ziweizhang0304.github.io/Stats_learning_trig/img/Stim/FN_006_g.png"",""time"":2383.4000000003725},{""stimulus"":""blank"",""time"":2684.800000000745},{""stimulus"":""https://ziweizhang0304.github.io/Stats_learning_trig/img/Stim/FN_010_g.png"",""time"":2723.4000000003725},{""stimulus"":""blank"",""time"":3024.5999999996275},{""stimulus"":""https://ziweizhang0304.github.io/Stats_learning_trig/img/Stim/FN_022_g.png"",""time"":3063.2000000011176},{""stimulus"":""blank"",""time"":3364.300000000745},{""stimulus"":""https://ziweizhang0304.github.io/Stats_learning_trig/img/Stim/FN_011_g.png"",""time"":3403.4000000003725},{""stimulus"":""blank"",""time"":3704.5999999996275},{""stimulus"":""https://ziweizhang0304.github.io/Stats_learning_trig/img/Stim/FN_005_g.png"",""time"":3743},{""stimulus"":""blank"",""time"":4043.7000000011176},{""stimulus"":""https://ziweizhang0304.github.io/Stats_learning_trig/img/Stim/FN_003_g.png"",""time"":4083.4000000003725},{""stimulus"":""blank"",""time"":4384.5}]","[{""key_press"":32,""rt"":3091.9000000003725,""stimulus"":""https://ziweizhang0304.github.io/Stats_learning_trig/img/Stim/FN_022_g.png""}]","368.5","https://ziweizhang0304.github.io/Stats_learning_trig/img/Stim/FN_010_g.png","post_TD","10","2723.4000000003725","3091.9000000003725","fast","8","2","56849d528f456f000c45e1dd","","","","","",""
"","image-keyboard-response","33","486509","0.0-5.0-10.0-0.0","2277.0999999996275","","","https://ziweizhang0304.github.io/Stats_learning_trig/img/Stim/FN_006_g.png","13","","","","","","","","","","","","","","","","","",""
"","animation","34","490935","0.0-5.0-10.0-1.0","","","","","","[{""stimulus"":""https://ziweizhang0304.github.io/Stats_learning_trig/img/Stim/FN_017_g.png"",""time"":344.5},{""stimulus"":""blank"",""time"":645.8000000007451},{""stimulus"":""https://ziweizhang0304.github.io/Stats_learning_trig/img/Stim/FN_002_g.png"",""time"":683.0999999996275},{""stimulus"":""blank"",""time"":983.7000000011176},{""stimulus"":""https://ziweizhang0304.github.io/Stats_learning_trig/img/Stim/FN_011_g.png"",""time"":1023.3000000007451},{""stimulus"":""blank"",""time"":1324.300000000745},{""stimulus"":""https://ziweizhang0304.github.io/Stats_learning_trig/img/Stim/FN_008_g.png"",""time"":1363.5},{""stimulus"":""blank"",""time"":1664.5},{""stimulus"":""https://ziweizhang0304.github.io/Stats_learning_trig/img/Stim/FN_006_g.png"",""time"":1703.5},{""stimulus"":""blank"",""time"":2004.5999999996275},{""stimulus"":""https://ziweizhang0304.github.io/Stats_learning_trig/img/Stim/FN_010_g.png"",""time"":2043.300000000745},{""stimulus"":""blank"",""time"":2344.300000000745},{""stimulus"":""https://ziweizhang0304.github.io/Stats_learning_trig/img/Stim/FN_022_g.png"",""time"":2383.2000000011176},{""stimulus"":""blank"",""time"":2683.7000000011176},{""stimulus"":""https://ziweizhang0304.github.io/Stats_learning_trig/img/Stim/FN_015_g.png"",""time"":2723.300000000745},{""stimulus"":""blank"",""time"":3024.2000000011176},{""stimulus"":""https://ziweizhang0304.github.io/Stats_learning_trig/img/Stim/FN_005_g.png"",""time"":3063.2000000011176},{""stimulus"":""blank"",""time"":3364.300000000745},{""stimulus"":""https://ziweizhang0304.github.io/Stats_learning_trig/img/Stim/FN_025_g.png"",""time"":3403.2000000011176},{""stimulus"":""blank"",""time"":3704.0999999996275},{""stimulus"":""https://ziweizhang0304.github.io/Stats_learning_trig/img/Stim/FN_003_g.png"",""time"":3743.2000000011176},{""stimulus"":""blank"",""time"":4044.2000000011176},{""stimulus"":""https://ziweizhang0304.github.io/Stats_learning_trig/img/Stim/FN_016_g.png"",""time"":4083.0999999996275},{""stimulus"":""blank"",""time"":4384}]","[{""key_press"":32,""rt"":2117.7999999988824,""stimulus"":""https://ziweizhang0304.github.io/Stats_learning_trig/img/Stim/FN_010_g.png""}]","414.2999999988824","https://ziweizhang0304.github.io/Stats_learning_trig/img/Stim/FN_006_g.png","post_TD","11","1703.5","2117.7999999988824","fast","5","1","56849d528f456f000c45e1dd","","","","","",""
"","image-keyboard-response","35","497796","0.0-5.0-11.0-0.0","6852","","","https://ziweizhang0304.github.io/Stats_learning_trig/img/Stim/FN_020_g.png","13","","","","","","","","","","","","","","","","","",""
"","animation","36","502223","0.0-5.0-11.0-1.0","","","","","","[{""stimulus"":""https://ziweizhang0304.github.io/Stats_learning_trig/img/Stim/FN_002_g.png"",""time"":343.59999999962747},{""stimulus"":""blank"",""time"":644.2999999988824},{""stimulus"":""https://ziweizhang0304.github.io/Stats_learning_trig/img/Stim/FN_008_g.png"",""time"":683.1999999992549},{""stimulus"":""blank"",""time"":984.5},{""stimulus"":""https://ziweizhang0304.github.io/Stats_learning_trig/img/Stim/FN_025_g.png"",""time"":1023},{""stimulus"":""blank"",""time"":1324},{""stimulus"":""https://ziweizhang0304.github.io/Stats_learning_trig/img/Stim/FN_003_g.png"",""time"":1363.199999999255},{""stimulus"":""blank"",""time"":1663.7999999988824},{""stimulus"":""https://ziweizhang0304.github.io/Stats_learning_trig/img/Stim/FN_018_g.png"",""time"":1703.5999999996275},{""stimulus"":""blank"",""time"":2004.7999999988824},{""stimulus"":""https://ziweizhang0304.github.io/Stats_learning_trig/img/Stim/FN_020_g.png"",""time"":2043.199999999255},{""stimulus"":""blank"",""time"":2343.9000000003725},{""stimulus"":""https://ziweizhang0304.github.io/Stats_learning_trig/img/Stim/FN_004_g.png"",""time"":2383.4000000003725},{""stimulus"":""blank"",""time"":2684.0999999996275},{""stimulus"":""https://ziweizhang0304.github.io/Stats_learning_trig/img/Stim/FN_015_g.png"",""time"":2723.2999999988824},{""stimulus"":""blank"",""time"":3024.4000000003725},{""stimulus"":""https://ziweizhang0304.github.io/Stats_learning_trig/img/Stim/FN_011_g.png"",""time"":3063.199999999255},{""stimulus"":""blank"",""time"":3364},{""stimulus"":""https://ziweizhang0304.github.io/Stats_learning_trig/img/Stim/FN_005_g.png"",""time"":3403.2999999988824},{""stimulus"":""blank"",""time"":3704.5999999996275},{""stimulus"":""https://ziweizhang0304.github.io/Stats_learning_trig/img/Stim/FN_017_g.png"",""time"":3743.0999999996275},{""stimulus"":""blank"",""time"":4043.699999999255},{""stimulus"":""https://ziweizhang0304.github.io/Stats_learning_trig/img/Stim/FN_016_g.png"",""time"":4083.0999999996275},{""stimulus"":""blank"",""time"":4383.9000000003725}]","[{""key_press"":32,""rt"":2529.300000000745,""stimulus"":""https://ziweizhang0304.github.io/Stats_learning_trig/img/Stim/FN_004_g.png""}]","486.1000000014901","https://ziweizhang0304.github.io/Stats_learning_trig/img/Stim/FN_020_g.png","post_TD","12","2043.199999999255","2529.300000000745","slow","6","2","56849d528f456f000c45e1dd","","","","","",""
"","image-keyboard-response","37","503583","0.0-5.0-12.0-0.0","1349.7000000011176","","","https://ziweizhang0304.github.io/Stats_learning_trig/img/Stim/FN_010_g.png","13","","","","","","","","","","","","","","","","","",""
"","animation","38","508009","0.0-5.0-12.0-1.0","","","","","","[{""stimulus"":""https://ziweizhang0304.github.io/Stats_learning_trig/img/Stim/FN_008_g.png"",""time"":343.40000000037253},{""stimulus"":""blank"",""time"":644.7000000011176},{""stimulus"":""https://ziweizhang0304.github.io/Stats_learning_trig/img/Stim/FN_003_g.png"",""time"":683.2000000011176},{""stimulus"":""blank"",""time"":984.1000000014901},{""stimulus"":""https://ziweizhang0304.github.io/Stats_learning_trig/img/Stim/FN_011_g.png"",""time"":1023.5},{""stimulus"":""blank"",""time"":1324.7000000011176},{""stimulus"":""https://ziweizhang0304.github.io/Stats_learning_trig/img/Stim/FN_005_g.png"",""time"":1363.6000000014901},{""stimulus"":""blank"",""time"":1664.2000000011176},{""stimulus"":""https://ziweizhang0304.github.io/Stats_learning_trig/img/Stim/FN_017_g.png"",""time"":1703.5},{""stimulus"":""blank"",""time"":2004},{""stimulus"":""https://ziweizhang0304.github.io/Stats_learning_trig/img/Stim/FN_006_g.png"",""time"":2043.4000000003725},{""stimulus"":""blank"",""time"":2344.4000000003725},{""stimulus"":""https://ziweizhang0304.github.io/Stats_learning_trig/img/Stim/FN_010_g.png"",""time"":2383.5},{""stimulus"":""blank"",""time"":2684.60000000149},{""stimulus"":""https://ziweizhang0304.github.io/Stats_learning_trig/img/Stim/FN_022_g.png"",""time"":2723.60000000149},{""stimulus"":""blank"",""time"":3024.2000000011176},{""stimulus"":""https://ziweizhang0304.github.io/Stats_learning_trig/img/Stim/FN_015_g.png"",""time"":3063},{""stimulus"":""blank"",""time"":3363.800000000745},{""stimulus"":""https://ziweizhang0304.github.io/Stats_learning_trig/img/Stim/FN_025_g.png"",""time"":3403.2000000011176},{""stimulus"":""blank"",""time"":3704.2000000011176},{""stimulus"":""https://ziweizhang0304.github.io/Stats_learning_trig/img/Stim/FN_016_g.png"",""time"":3743.300000000745},{""stimulus"":""blank"",""time"":4044.800000000745},{""stimulus"":""https://ziweizhang0304.github.io/Stats_learning_trig/img/Stim/FN_002_g.png"",""time"":4083.300000000745},{""stimulus"":""blank"",""time"":4384.300000000745}]","[{""key_press"":32,""rt"":2744.9000000003725,""stimulus"":""https://ziweizhang0304.github.io/Stats_learning_trig/img/Stim/FN_022_g.png""}]","361.40000000037253","https://ziweizhang0304.github.io/Stats_learning_trig/img/Stim/FN_010_g.png","post_TD","13","2383.5","2744.9000000003725","fast","7","2","56849d528f456f000c45e1dd","","","","","",""
"","image-keyboard-response","39","510847","0.0-5.0-13.0-0.0","2828.9000000003725","","","https://ziweizhang0304.github.io/Stats_learning_trig/img/Stim/FN_020_g.png","13","","","","","","","","","","","","","","","","","",""
"","animation","40","515273","0.0-5.0-13.0-1.0","","","","","","[{""stimulus"":""https://ziweizhang0304.github.io/Stats_learning_trig/img/Stim/FN_011_g.png"",""time"":343.30000000074506},{""stimulus"":""blank"",""time"":643.9000000003725},{""stimulus"":""https://ziweizhang0304.github.io/Stats_learning_trig/img/Stim/FN_002_g.png"",""time"":683},{""stimulus"":""blank"",""time"":984},{""stimulus"":""https://ziweizhang0304.github.io/Stats_learning_trig/img/Stim/FN_015_g.png"",""time"":1023.2000000011176},{""stimulus"":""blank"",""time"":1324},{""stimulus"":""https://ziweizhang0304.github.io/Stats_learning_trig/img/Stim/FN_016_g.png"",""time"":1363.300000000745},{""stimulus"":""blank"",""time"":1664.300000000745},{""stimulus"":""https://ziweizhang0304.github.io/Stats_learning_trig/img/Stim/FN_025_g.png"",""time"":1703.2000000011176},{""stimulus"":""blank"",""time"":2004.6000000014901},{""stimulus"":""https://ziweizhang0304.github.io/Stats_learning_trig/img/Stim/FN_008_g.png"",""time"":2043.5},{""stimulus"":""blank"",""time"":2344.2000000011176},{""stimulus"":""https://ziweizhang0304.github.io/Stats_learning_trig/img/Stim/FN_018_g.png"",""time"":2383.300000000745},{""stimulus"":""blank"",""time"":2684.5},{""stimulus"":""https://ziweizhang0304.github.io/Stats_learning_trig/img/Stim/FN_020_g.png"",""time"":2723.60000000149},{""stimulus"":""blank"",""time"":3024.9000000003725},{""stimulus"":""https://ziweizhang0304.github.io/Stats_learning_trig/img/Stim/FN_004_g.png"",""time"":3063.800000000745},{""stimulus"":""blank"",""time"":3365.7000000011176},{""stimulus"":""https://ziweizhang0304.github.io/Stats_learning_trig/img/Stim/FN_005_g.png"",""time"":3403.10000000149},{""stimulus"":""blank"",""time"":3704.2000000011176},{""stimulus"":""https://ziweizhang0304.github.io/Stats_learning_trig/img/Stim/FN_003_g.png"",""time"":3742.9000000003725},{""stimulus"":""blank"",""time"":4043.5},{""stimulus"":""https://ziweizhang0304.github.io/Stats_learning_trig/img/Stim/FN_017_g.png"",""time"":4083.2000000011176},{""stimulus"":""blank"",""time"":4385}]","[{""key_press"":32,""rt"":2744.0999999996275,""stimulus"":""https://ziweizhang0304.github.io/Stats_learning_trig/img/Stim/FN_020_g.png""}]","20.499999998137355","https://ziweizhang0304.github.io/Stats_learning_trig/img/Stim/FN_020_g.png","post_TD","14","2723.60000000149","2744.0999999996275","slow","8","2","56849d528f456f000c45e1dd","","","","","",""
"","image-keyboard-response","41","516822","0.0-5.0-14.0-0.0","1539","","","https://ziweizhang0304.github.io/Stats_learning_trig/img/Stim/FN_022_g.png","13","","","","","","","","","","","","","","","","","",""
"","animation","42","521248","0.0-5.0-14.0-1.0","","","","","","[{""stimulus"":""https://ziweizhang0304.github.io/Stats_learning_trig/img/Stim/FN_008_g.png"",""time"":343.80000000074506},{""stimulus"":""blank"",""time"":644.7000000011176},{""stimulus"":""https://ziweizhang0304.github.io/Stats_learning_trig/img/Stim/FN_003_g.png"",""time"":683.4000000003725},{""stimulus"":""blank"",""time"":984.2000000011176},{""stimulus"":""https://ziweizhang0304.github.io/Stats_learning_trig/img/Stim/FN_011_g.png"",""time"":1022.5},{""stimulus"":""blank"",""time"":1323.0999999996275},{""stimulus"":""https://ziweizhang0304.github.io/Stats_learning_trig/img/Stim/FN_005_g.png"",""time"":1363.2000000011176},{""stimulus"":""blank"",""time"":1664.4000000003725},{""stimulus"":""https://ziweizhang0304.github.io/Stats_learning_trig/img/Stim/FN_017_g.png"",""time"":1703.300000000745},{""stimulus"":""blank"",""time"":2004.5},{""stimulus"":""https://ziweizhang0304.github.io/Stats_learning_trig/img/Stim/FN_006_g.png"",""time"":2043.5},{""stimulus"":""blank"",""time"":2344.5999999996275},{""stimulus"":""https://ziweizhang0304.github.io/Stats_learning_trig/img/Stim/FN_010_g.png"",""time"":2383.2000000011176},{""stimulus"":""blank"",""time"":2684.4000000003725},{""stimulus"":""https://ziweizhang0304.github.io/Stats_learning_trig/img/Stim/FN_022_g.png"",""time"":2723.2000000011176},{""stimulus"":""blank"",""time"":3024.4000000003725},{""stimulus"":""https://ziweizhang0304.github.io/Stats_learning_trig/img/Stim/FN_015_g.png"",""time"":3063.0999999996275},{""stimulus"":""blank"",""time"":3364.0999999996275},{""stimulus"":""https://ziweizhang0304.github.io/Stats_learning_trig/img/Stim/FN_025_g.png"",""time"":3403.4000000003725},{""stimulus"":""blank"",""time"":3704.5},{""stimulus"":""https://ziweizhang0304.github.io/Stats_learning_trig/img/Stim/FN_016_g.png"",""time"":3743.5},{""stimulus"":""blank"",""time"":4044.800000000745},{""stimulus"":""https://ziweizhang0304.github.io/Stats_learning_trig/img/Stim/FN_002_g.png"",""time"":4083.2000000011176},{""stimulus"":""blank"",""time"":4383.800000000745}]","[{""key_press"":32,""rt"":3135.9000000003725,""stimulus"":""https://ziweizhang0304.github.io/Stats_learning_trig/img/Stim/FN_015_g.png""}]","412.69999999925494","https://ziweizhang0304.github.io/Stats_learning_trig/img/Stim/FN_022_g.png","post_TD","15","2723.2000000011176","3135.9000000003725","fast","8","3","56849d528f456f000c45e1dd","","","","","",""
"","image-keyboard-response","43","527795","0.0-5.0-15.0-0.0","6535.699999999255","","","https://ziweizhang0304.github.io/Stats_learning_trig/img/Stim/FN_006_g.png","13","","","","","","","","","","","","","","","","","",""
"","animation","44","532222","0.0-5.0-15.0-1.0","","","","","","[{""stimulus"":""https://ziweizhang0304.github.io/Stats_learning_trig/img/Stim/FN_017_g.png"",""time"":343.3999999985099},{""stimulus"":""blank"",""time"":644},{""stimulus"":""https://ziweizhang0304.github.io/Stats_learning_trig/img/Stim/FN_015_g.png"",""time"":683.3999999985099},{""stimulus"":""blank"",""time"":984.6999999992549},{""stimulus"":""https://ziweizhang0304.github.io/Stats_learning_trig/img/Stim/FN_016_g.png"",""time"":1023.3999999985099},{""stimulus"":""blank"",""time"":1324.199999999255},{""stimulus"":""https://ziweizhang0304.github.io/Stats_learning_trig/img/Stim/FN_025_g.png"",""time"":1363.3999999985099},{""stimulus"":""blank"",""time"":1664.7999999988824},{""stimulus"":""https://ziweizhang0304.github.io/Stats_learning_trig/img/Stim/FN_002_g.png"",""time"":1703.3999999985099},{""stimulus"":""blank"",""time"":2004.0999999996275},{""stimulus"":""https://ziweizhang0304.github.io/Stats_learning_trig/img/Stim/FN_008_g.png"",""time"":2043.199999999255},{""stimulus"":""blank"",""time"":2343.7999999988824},{""stimulus"":""https://ziweizhang0304.github.io/Stats_learning_trig/img/Stim/FN_006_g.png"",""time"":2383.199999999255},{""stimulus"":""blank"",""time"":2684.7999999988824},{""stimulus"":""https://ziweizhang0304.github.io/Stats_learning_trig/img/Stim/FN_010_g.png"",""time"":2723.2999999988824},{""stimulus"":""blank"",""time"":3024.0999999996275},{""stimulus"":""https://ziweizhang0304.github.io/Stats_learning_trig/img/Stim/FN_022_g.png"",""time"":3063.5},{""stimulus"":""blank"",""time"":3365},{""stimulus"":""https://ziweizhang0304.github.io/Stats_learning_trig/img/Stim/FN_011_g.png"",""time"":3403.5},{""stimulus"":""blank"",""time"":3704.199999999255},{""stimulus"":""https://ziweizhang0304.github.io/Stats_learning_trig/img/Stim/FN_005_g.png"",""time"":3743.2999999988824},{""stimulus"":""blank"",""time"":4044},{""stimulus"":""https://ziweizhang0304.github.io/Stats_learning_trig/img/Stim/FN_003_g.png"",""time"":4083.5999999996275},{""stimulus"":""blank"",""time"":4385}]","[{""key_press"":32,""rt"":2756.2000000011176,""stimulus"":""https://ziweizhang0304.github.io/Stats_learning_trig/img/Stim/FN_010_g.png""}]","373.00000000186265","https://ziweizhang0304.github.io/Stats_learning_trig/img/Stim/FN_006_g.png","post_TD","16","2383.199999999255","2756.2000000011176","fast","7","1","56849d528f456f000c45e1dd","","","","","",""
"","image-keyboard-response","45","535045","0.0-5.0-16.0-0.0","2812.699999999255","","","https://ziweizhang0304.github.io/Stats_learning_trig/img/Stim/FN_010_g.png","13","","","","","","","","","","","","","","","","","",""
"","animation","46","539471","0.0-5.0-16.0-1.0","","","","","","[{""stimulus"":""https://ziweizhang0304.github.io/Stats_learning_trig/img/Stim/FN_017_g.png"",""time"":343.5},{""stimulus"":""blank"",""time"":644.0999999996275},{""stimulus"":""https://ziweizhang0304.github.io/Stats_learning_trig/img/Stim/FN_002_g.png"",""time"":683.5999999996275},{""stimulus"":""blank"",""time"":984.5999999996275},{""stimulus"":""https://ziweizhang0304.github.io/Stats_learning_trig/img/Stim/FN_011_g.png"",""time"":1023.5999999996275},{""stimulus"":""blank"",""time"":1324.800000000745},{""stimulus"":""https://ziweizhang0304.github.io/Stats_learning_trig/img/Stim/FN_008_g.png"",""time"":1363.699999999255},{""stimulus"":""blank"",""time"":1664.800000000745},{""stimulus"":""https://ziweizhang0304.github.io/Stats_learning_trig/img/Stim/FN_006_g.png"",""time"":1704.5},{""stimulus"":""blank"",""time"":2005.5999999996275},{""stimulus"":""https://ziweizhang0304.github.io/Stats_learning_trig/img/Stim/FN_010_g.png"",""time"":2043.4000000003725},{""stimulus"":""blank"",""time"":2344.0999999996275},{""stimulus"":""https://ziweizhang0304.github.io/Stats_learning_trig/img/Stim/FN_022_g.png"",""time"":2386.0999999996275},{""stimulus"":""blank"",""time"":2687.4000000003725},{""stimulus"":""https://ziweizhang0304.github.io/Stats_learning_trig/img/Stim/FN_015_g.png"",""time"":2723.5},{""stimulus"":""blank"",""time"":3024.4000000003725},{""stimulus"":""https://ziweizhang0304.github.io/Stats_learning_trig/img/Stim/FN_005_g.png"",""time"":3063.4000000003725},{""stimulus"":""blank"",""time"":3364.5},{""stimulus"":""https://ziweizhang0304.github.io/Stats_learning_trig/img/Stim/FN_025_g.png"",""time"":3403.300000000745},{""stimulus"":""blank"",""time"":3704.5999999996275},{""stimulus"":""https://ziweizhang0304.github.io/Stats_learning_trig/img/Stim/FN_003_g.png"",""time"":3743.4000000003725},{""stimulus"":""blank"",""time"":4044.0999999996275},{""stimulus"":""https://ziweizhang0304.github.io/Stats_learning_trig/img/Stim/FN_016_g.png"",""time"":4083.4000000003725},{""stimulus"":""blank"",""time"":4384.699999999255}]","[{""key_press"":32,""rt"":2380.5,""stimulus"":""blank""}]","337.09999999962747","https://ziweizhang0304.github.io/Stats_learning_trig/img/Stim/FN_010_g.png","post_TD","17","2043.4000000003725","2380.5","fast","6","2","56849d528f456f000c45e1dd","","","","","",""
"","image-keyboard-response","47","540795","0.0-5.0-17.0-0.0","1314.199999999255","","","https://ziweizhang0304.github.io/Stats_learning_trig/img/Stim/FN_020_g.png","13","","","","","","","","","","","","","","","","","",""
"","animation","48","545222","0.0-5.0-17.0-1.0","","","","","","[{""stimulus"":""https://ziweizhang0304.github.io/Stats_learning_trig/img/Stim/FN_025_g.png"",""time"":343.90000000037253},{""stimulus"":""blank"",""time"":644.5},{""stimulus"":""https://ziweizhang0304.github.io/Stats_learning_trig/img/Stim/FN_003_g.png"",""time"":683.4000000003725},{""stimulus"":""blank"",""time"":984.4000000003725},{""stimulus"":""https://ziweizhang0304.github.io/Stats_learning_trig/img/Stim/FN_016_g.png"",""time"":1023.1999999992549},{""stimulus"":""blank"",""time"":1324.199999999255},{""stimulus"":""https://ziweizhang0304.github.io/Stats_learning_trig/img/Stim/FN_015_g.png"",""time"":1363.199999999255},{""stimulus"":""blank"",""time"":1664.2999999988824},{""stimulus"":""https://ziweizhang0304.github.io/Stats_learning_trig/img/Stim/FN_008_g.png"",""time"":1703.5999999996275},{""stimulus"":""blank"",""time"":2004.9000000003725},{""stimulus"":""https://ziweizhang0304.github.io/Stats_learning_trig/img/Stim/FN_018_g.png"",""time"":2043.5},{""stimulus"":""blank"",""time"":2344.2999999988824},{""stimulus"":""https://ziweizhang0304.github.io/Stats_learning_trig/img/Stim/FN_020_g.png"",""time"":2383.4000000003725},{""stimulus"":""blank"",""time"":2684.4000000003725},{""stimulus"":""https://ziweizhang0304.github.io/Stats_learning_trig/img/Stim/FN_004_g.png"",""time"":2723.199999999255},{""stimulus"":""blank"",""time"":3024.7999999988824},{""stimulus"":""https://ziweizhang0304.github.io/Stats_learning_trig/img/Stim/FN_011_g.png"",""time"":3063.199999999255},{""stimulus"":""blank"",""time"":3364.5},{""stimulus"":""https://ziweizhang0304.github.io/Stats_learning_trig/img/Stim/FN_005_g.png"",""time"":3403.5999999996275},{""stimulus"":""blank"",""time"":3705.0999999996275},{""stimulus"":""https://ziweizhang0304.github.io/Stats_learning_trig/img/Stim/FN_017_g.png"",""time"":3743.5},{""stimulus"":""blank"",""time"":4044.199999999255},{""stimulus"":""https://ziweizhang0304.github.io/Stats_learning_trig/img/Stim/FN_002_g.png"",""time"":4083.5999999996275},{""stimulus"":""blank"",""time"":4385.0999999996275}]","[{""key_press"":32,""rt"":3454.89999999851,""stimulus"":""https://ziweizhang0304.github.io/Stats_learning_trig/img/Stim/FN_005_g.png""}]","1071.4999999981374","https://ziweizhang0304.github.io/Stats_learning_trig/img/Stim/FN_020_g.png","post_TD","18","2383.4000000003725","3454.89999999851","slow","7","2","56849d528f456f000c45e1dd","","","","","",""
"","image-keyboard-response","49","546947","0.0-5.0-18.0-0.0","1714.4000000003725","","","https://ziweizhang0304.github.io/Stats_learning_trig/img/Stim/FN_004_g.png","13","","","","","","","","","","","","","","","","","",""
"","animation","50","551372","0.0-5.0-18.0-1.0","","","","","","[{""stimulus"":""https://ziweizhang0304.github.io/Stats_learning_trig/img/Stim/FN_025_g.png"",""time"":343.80000000074506},{""stimulus"":""blank"",""time"":644.4000000003725},{""stimulus"":""https://ziweizhang0304.github.io/Stats_learning_trig/img/Stim/FN_003_g.png"",""time"":683.5},{""stimulus"":""blank"",""time"":984.5},{""stimulus"":""https://ziweizhang0304.github.io/Stats_learning_trig/img/Stim/FN_016_g.png"",""time"":1023.3000000007451},{""stimulus"":""blank"",""time"":1324.9000000003725},{""stimulus"":""https://ziweizhang0304.github.io/Stats_learning_trig/img/Stim/FN_015_g.png"",""time"":1363.300000000745},{""stimulus"":""blank"",""time"":1664.4000000003725},{""stimulus"":""https://ziweizhang0304.github.io/Stats_learning_trig/img/Stim/FN_008_g.png"",""time"":1703.4000000003725},{""stimulus"":""blank"",""time"":2004.300000000745},{""stimulus"":""https://ziweizhang0304.github.io/Stats_learning_trig/img/Stim/FN_018_g.png"",""time"":2043.4000000003725},{""stimulus"":""blank"",""time"":2344},{""stimulus"":""https://ziweizhang0304.github.io/Stats_learning_trig/img/Stim/FN_020_g.png"",""time"":2383.5999999996275},{""stimulus"":""blank"",""time"":2684.5999999996275},{""stimulus"":""https://ziweizhang0304.github.io/Stats_learning_trig/img/Stim/FN_004_g.png"",""time"":2723.5},{""stimulus"":""blank"",""time"":3024.7000000011176},{""stimulus"":""https://ziweizhang0304.github.io/Stats_learning_trig/img/Stim/FN_011_g.png"",""time"":3063.0999999996275},{""stimulus"":""blank"",""time"":3364},{""stimulus"":""https://ziweizhang0304.github.io/Stats_learning_trig/img/Stim/FN_005_g.png"",""time"":3403.300000000745},{""stimulus"":""blank"",""time"":3704.300000000745},{""stimulus"":""https://ziweizhang0304.github.io/Stats_learning_trig/img/Stim/FN_017_g.png"",""time"":3743.0999999996275},{""stimulus"":""blank"",""time"":4043.7000000011176},{""stimulus"":""https://ziweizhang0304.github.io/Stats_learning_trig/img/Stim/FN_002_g.png"",""time"":4082.9000000003725},{""stimulus"":""blank"",""time"":4384}]","[{""key_press"":32,""rt"":30.09999999962747,""stimulus"":""""},{""key_press"":32,""rt"":3131.199999999255,""stimulus"":""https://ziweizhang0304.github.io/Stats_learning_trig/img/Stim/FN_011_g.png""}]","407.69999999925494","https://ziweizhang0304.github.io/Stats_learning_trig/img/Stim/FN_004_g.png","post_TD","19","2723.5","3131.199999999255","slow","8","3","56849d528f456f000c45e1dd","","","","","",""
"","image-keyboard-response","51","553546","0.0-5.0-19.0-0.0","2158.7999999988824","","","https://ziweizhang0304.github.io/Stats_learning_trig/img/Stim/FN_018_g.png","13","","","","","","","","","","","","","","","","","",""
"","animation","52","557973","0.0-5.0-19.0-1.0","","","","","","[{""stimulus"":""https://ziweizhang0304.github.io/Stats_learning_trig/img/Stim/FN_025_g.png"",""time"":343.5},{""stimulus"":""blank"",""time"":644.0999999996275},{""stimulus"":""https://ziweizhang0304.github.io/Stats_learning_trig/img/Stim/FN_005_g.png"",""time"":683.3000000007451},{""stimulus"":""blank"",""time"":984.7000000011176},{""stimulus"":""https://ziweizhang0304.github.io/Stats_learning_trig/img/Stim/FN_002_g.png"",""time"":1023.4000000003725},{""stimulus"":""blank"",""time"":1324.2000000011176},{""stimulus"":""https://ziweizhang0304.github.io/Stats_learning_trig/img/Stim/FN_018_g.png"",""time"":1363.5},{""stimulus"":""blank"",""time"":1664.800000000745},{""stimulus"":""https://ziweizhang0304.github.io/Stats_learning_trig/img/Stim/FN_020_g.png"",""time"":1703.5},{""stimulus"":""blank"",""time"":2005.0999999996275},{""stimulus"":""https://ziweizhang0304.github.io/Stats_learning_trig/img/Stim/FN_004_g.png"",""time"":2043.2000000011176},{""stimulus"":""blank"",""time"":2343.9000000003725},{""stimulus"":""https://ziweizhang0304.github.io/Stats_learning_trig/img/Stim/FN_015_g.png"",""time"":2383.5},{""stimulus"":""blank"",""time"":2684.5999999996275},{""stimulus"":""https://ziweizhang0304.github.io/Stats_learning_trig/img/Stim/FN_011_g.png"",""time"":2722.800000000745},{""stimulus"":""blank"",""time"":3024},{""stimulus"":""https://ziweizhang0304.github.io/Stats_learning_trig/img/Stim/FN_003_g.png"",""time"":3063.300000000745},{""stimulus"":""blank"",""time"":3364.0999999996275},{""stimulus"":""https://ziweizhang0304.github.io/Stats_learning_trig/img/Stim/FN_017_g.png"",""time"":3403.2000000011176},{""stimulus"":""blank"",""time"":3704.0999999996275},{""stimulus"":""https://ziweizhang0304.github.io/Stats_learning_trig/img/Stim/FN_008_g.png"",""time"":3742.5999999996275},{""stimulus"":""blank"",""time"":4043.2000000011176},{""stimulus"":""https://ziweizhang0304.github.io/Stats_learning_trig/img/Stim/FN_016_g.png"",""time"":4083.7000000011176},{""stimulus"":""blank"",""time"":4384.800000000745}]","[{""key_press"":32,""rt"":1729.9000000003725,""stimulus"":""https://ziweizhang0304.github.io/Stats_learning_trig/img/Stim/FN_020_g.png""}]","366.40000000037253","https://ziweizhang0304.github.io/Stats_learning_trig/img/Stim/FN_018_g.png","post_TD","20","1363.5","1729.9000000003725","slow","4","1","56849d528f456f000c45e1dd","","","","","",""
"","image-keyboard-response","53","559847","0.0-5.0-20.0-0.0","1863.5999999996275","","","https://ziweizhang0304.github.io/Stats_learning_trig/img/Stim/FN_006_g.png","13","","","","","","","","","","","","","","","","","",""
"","animation","54","564275","0.0-5.0-20.0-1.0","","","","","","[{""stimulus"":""https://ziweizhang0304.github.io/Stats_learning_trig/img/Stim/FN_002_g.png"",""time"":343.5},{""stimulus"":""blank"",""time"":644},{""stimulus"":""https://ziweizhang0304.github.io/Stats_learning_trig/img/Stim/FN_015_g.png"",""time"":683.7999999988824},{""stimulus"":""blank"",""time"":985.3999999985099},{""stimulus"":""https://ziweizhang0304.github.io/Stats_learning_trig/img/Stim/FN_008_g.png"",""time"":1023.8999999985099},{""stimulus"":""blank"",""time"":1324.7999999988824},{""stimulus"":""https://ziweizhang0304.github.io/Stats_learning_trig/img/Stim/FN_006_g.png"",""time"":1363.5999999996275},{""stimulus"":""blank"",""time"":1664.5999999996275},{""stimulus"":""https://ziweizhang0304.github.io/Stats_learning_trig/img/Stim/FN_010_g.png"",""time"":1703.699999999255},{""stimulus"":""blank"",""time"":2004.699999999255},{""stimulus"":""https://ziweizhang0304.github.io/Stats_learning_trig/img/Stim/FN_022_g.png"",""time"":2043.199999999255},{""stimulus"":""blank"",""time"":2343.89999999851},{""stimulus"":""https://ziweizhang0304.github.io/Stats_learning_trig/img/Stim/FN_011_g.png"",""time"":2383.5},{""stimulus"":""blank"",""time"":2684.39999999851},{""stimulus"":""https://ziweizhang0304.github.io/Stats_learning_trig/img/Stim/FN_005_g.png"",""time"":2723.5},{""stimulus"":""blank"",""time"":3024.39999999851},{""stimulus"":""https://ziweizhang0304.github.io/Stats_learning_trig/img/Stim/FN_025_g.png"",""time"":3063.199999999255},{""stimulus"":""blank"",""time"":3364.199999999255},{""stimulus"":""https://ziweizhang0304.github.io/Stats_learning_trig/img/Stim/FN_003_g.png"",""time"":3403.2999999988824},{""stimulus"":""blank"",""time"":3704.699999999255},{""stimulus"":""https://ziweizhang0304.github.io/Stats_learning_trig/img/Stim/FN_017_g.png"",""time"":3743.2999999988824},{""stimulus"":""blank"",""time"":4044},{""stimulus"":""https://ziweizhang0304.github.io/Stats_learning_trig/img/Stim/FN_016_g.png"",""time"":4083.5},{""stimulus"":""blank"",""time"":4384.299999998882}]","[{""key_press"":32,""rt"":1790.1000000014901,""stimulus"":""https://ziweizhang0304.github.io/Stats_learning_trig/img/Stim/FN_010_g.png""}]","426.50000000186265","https://ziweizhang0304.github.io/Stats_learning_trig/img/Stim/FN_006_g.png","post_TD","21","1363.5999999996275","1790.1000000014901","fast","4","1","56849d528f456f000c45e1dd","","","","","",""
"","image-keyboard-response","55","565409","0.0-5.0-21.0-0.0","1124.0999999996275","","","https://ziweizhang0304.github.io/Stats_learning_trig/img/Stim/FN_018_g.png","13","","","","","","","","","","","","","","","","","",""
"","animation","56","569835","0.0-5.0-21.0-1.0","","","","","","[{""stimulus"":""https://ziweizhang0304.github.io/Stats_learning_trig/img/Stim/FN_025_g.png"",""time"":343.5},{""stimulus"":""blank"",""time"":644.6999999992549},{""stimulus"":""https://ziweizhang0304.github.io/Stats_learning_trig/img/Stim/FN_003_g.png"",""time"":683},{""stimulus"":""blank"",""time"":983.6999999992549},{""stimulus"":""https://ziweizhang0304.github.io/Stats_learning_trig/img/Stim/FN_016_g.png"",""time"":1023.3000000007451},{""stimulus"":""blank"",""time"":1324.0999999996275},{""stimulus"":""https://ziweizhang0304.github.io/Stats_learning_trig/img/Stim/FN_015_g.png"",""time"":1363.4000000003725},{""stimulus"":""blank"",""time"":1664.699999999255},{""stimulus"":""https://ziweizhang0304.github.io/Stats_learning_trig/img/Stim/FN_008_g.png"",""time"":1703.300000000745},{""stimulus"":""blank"",""time"":2004.300000000745},{""stimulus"":""https://ziweizhang0304.github.io/Stats_learning_trig/img/Stim/FN_018_g.png"",""time"":2043.300000000745},{""stimulus"":""blank"",""time"":2344.4000000003725},{""stimulus"":""https://ziweizhang0304.github.io/Stats_learning_trig/img/Stim/FN_020_g.png"",""time"":2383.4000000003725},{""stimulus"":""blank"",""time"":2684.0999999996275},{""stimulus"":""https://ziweizhang0304.github.io/Stats_learning_trig/img/Stim/FN_004_g.png"",""time"":2723.5},{""stimulus"":""blank"",""time"":3024.5},{""stimulus"":""https://ziweizhang0304.github.io/Stats_learning_trig/img/Stim/FN_011_g.png"",""time"":3063.5999999996275},{""stimulus"":""blank"",""time"":3364.699999999255},{""stimulus"":""https://ziweizhang0304.github.io/Stats_learning_trig/img/Stim/FN_005_g.png"",""time"":3403.300000000745},{""stimulus"":""blank"",""time"":3704.300000000745},{""stimulus"":""https://ziweizhang0304.github.io/Stats_learning_trig/img/Stim/FN_017_g.png"",""time"":3743.4000000003725},{""stimulus"":""blank"",""time"":4044.199999999255},{""stimulus"":""https://ziweizhang0304.github.io/Stats_learning_trig/img/Stim/FN_002_g.png"",""time"":4083.300000000745},{""stimulus"":""blank"",""time"":4384}]","[{""key_press"":32,""rt"":2405.199999999255,""stimulus"":""https://ziweizhang0304.github.io/Stats_learning_trig/img/Stim/FN_020_g.png""}]","361.8999999985099","https://ziweizhang0304.github.io/Stats_learning_trig/img/Stim/FN_018_g.png","post_TD","22","2043.300000000745","2405.199999999255","slow","6","1","56849d528f456f000c45e1dd","","","","","",""
"","image-keyboard-response","57","570934","0.0-5.0-22.0-0.0","1088.699999999255","","","https://ziweizhang0304.github.io/Stats_learning_trig/img/Stim/FN_010_g.png","13","","","","","","","","","","","","","","","","","",""
"","animation","58","575361","0.0-5.0-22.0-1.0","","","","","","[{""stimulus"":""https://ziweizhang0304.github.io/Stats_learning_trig/img/Stim/FN_002_g.png"",""time"":343.40000000037253},{""stimulus"":""blank"",""time"":644.2000000011176},{""stimulus"":""https://ziweizhang0304.github.io/Stats_learning_trig/img/Stim/FN_015_g.png"",""time"":683.3000000007451},{""stimulus"":""blank"",""time"":984.2000000011176},{""stimulus"":""https://ziweizhang0304.github.io/Stats_learning_trig/img/Stim/FN_008_g.png"",""time"":1023.4000000003725},{""stimulus"":""blank"",""time"":1324.5},{""stimulus"":""https://ziweizhang0304.github.io/Stats_learning_trig/img/Stim/FN_006_g.png"",""time"":1363.300000000745},{""stimulus"":""blank"",""time"":1664.5},{""stimulus"":""https://ziweizhang0304.github.io/Stats_learning_trig/img/Stim/FN_010_g.png"",""time"":1703.5},{""stimulus"":""blank"",""time"":2004.1000000014901},{""stimulus"":""https://ziweizhang0304.github.io/Stats_learning_trig/img/Stim/FN_022_g.png"",""time"":2043.7000000011176},{""stimulus"":""blank"",""time"":2344.800000000745},{""stimulus"":""https://ziweizhang0304.github.io/Stats_learning_trig/img/Stim/FN_011_g.png"",""time"":2383.10000000149},{""stimulus"":""blank"",""time"":2684},{""stimulus"":""https://ziweizhang0304.github.io/Stats_learning_trig/img/Stim/FN_005_g.png"",""time"":2723.300000000745},{""stimulus"":""blank"",""time"":3024.7000000011176},{""stimulus"":""https://ziweizhang0304.github.io/Stats_learning_trig/img/Stim/FN_025_g.png"",""time"":3063.10000000149},{""stimulus"":""blank"",""time"":3363.800000000745},{""stimulus"":""https://ziweizhang0304.github.io/Stats_learning_trig/img/Stim/FN_003_g.png"",""time"":3403.300000000745},{""stimulus"":""blank"",""time"":3703.9000000003725},{""stimulus"":""https://ziweizhang0304.github.io/Stats_learning_trig/img/Stim/FN_017_g.png"",""time"":3743.2000000011176},{""stimulus"":""blank"",""time"":4044.7000000011176},{""stimulus"":""https://ziweizhang0304.github.io/Stats_learning_trig/img/Stim/FN_016_g.png"",""time"":4083.2000000011176},{""stimulus"":""blank"",""time"":4384.300000000745}]","[{""key_press"":32,""rt"":2105,""stimulus"":""https://ziweizhang0304.github.io/Stats_learning_trig/img/Stim/FN_022_g.png""}]","401.5","https://ziweizhang0304.github.io/Stats_learning_trig/img/Stim/FN_010_g.png","post_TD","23","1703.5","2105","fast","5","2","56849d528f456f000c45e1dd","","","","","",""
"","image-keyboard-response","59","576322","0.0-5.0-23.0-0.0","950.9000000003725","","","https://ziweizhang0304.github.io/Stats_learning_trig/img/Stim/FN_022_g.png","13","","","","","","","","","","","","","","","","","",""
"","animation","60","580749","0.0-5.0-23.0-1.0","","","","","","[{""stimulus"":""https://ziweizhang0304.github.io/Stats_learning_trig/img/Stim/FN_017_g.png"",""time"":344.5},{""stimulus"":""blank"",""time"":645.3000000007451},{""stimulus"":""https://ziweizhang0304.github.io/Stats_learning_trig/img/Stim/FN_015_g.png"",""time"":683.4000000003725},{""stimulus"":""blank"",""time"":984.4000000003725},{""stimulus"":""https://ziweizhang0304.github.io/Stats_learning_trig/img/Stim/FN_016_g.png"",""time"":1023.5999999996275},{""stimulus"":""blank"",""time"":1324.9000000003725},{""stimulus"":""https://ziweizhang0304.github.io/Stats_learning_trig/img/Stim/FN_025_g.png"",""time"":1363.5999999996275},{""stimulus"":""blank"",""time"":1664.800000000745},{""stimulus"":""https://ziweizhang0304.github.io/Stats_learning_trig/img/Stim/FN_002_g.png"",""time"":1703.5999999996275},{""stimulus"":""blank"",""time"":2004.300000000745},{""stimulus"":""https://ziweizhang0304.github.io/Stats_learning_trig/img/Stim/FN_008_g.png"",""time"":2043.5},{""stimulus"":""blank"",""time"":2344.5},{""stimulus"":""https://ziweizhang0304.github.io/Stats_learning_trig/img/Stim/FN_006_g.png"",""time"":2383.7000000011176},{""stimulus"":""blank"",""time"":2684.9000000003725},{""stimulus"":""https://ziweizhang0304.github.io/Stats_learning_trig/img/Stim/FN_010_g.png"",""time"":2723.5},{""stimulus"":""blank"",""time"":3024.2000000011176},{""stimulus"":""https://ziweizhang0304.github.io/Stats_learning_trig/img/Stim/FN_022_g.png"",""time"":3063.4000000003725},{""stimulus"":""blank"",""time"":3364.5},{""stimulus"":""https://ziweizhang0304.github.io/Stats_learning_trig/img/Stim/FN_011_g.png"",""time"":3403.4000000003725},{""stimulus"":""blank"",""time"":3704.5},{""stimulus"":""https://ziweizhang0304.github.io/Stats_learning_trig/img/Stim/FN_005_g.png"",""time"":3744.800000000745},{""stimulus"":""blank"",""time"":4046.2000000011176},{""stimulus"":""https://ziweizhang0304.github.io/Stats_learning_trig/img/Stim/FN_003_g.png"",""time"":4083.5999999996275},{""stimulus"":""blank"",""time"":4384.5}]","[{""key_press"":32,""rt"":3429.9000000003725,""stimulus"":""https://ziweizhang0304.github.io/Stats_learning_trig/img/Stim/FN_011_g.png""},{""key_press"":32,""rt"":4167.5,""stimulus"":""https://ziweizhang0304.github.io/Stats_learning_trig/img/Stim/FN_003_g.png""}]","366.5","https://ziweizhang0304.github.io/Stats_learning_trig/img/Stim/FN_022_g.png","post_TD","24","3063.4000000003725","3429.9000000003725","fast","9","3","56849d528f456f000c45e1dd","358da","","","","",""
"","survey-text","61","615172","0.0-6.0","34386.5","","","","","","","","","","","","","","","","","","{""Q0"":""no i dd not use any strategies i just followed the instructions\n""}","","","",""
"","survey-text","62","621193","0.0-7.0","5998.799999998882","","","","","","","","","","","","","","","","","","{""[object Object]"":""nope""}","","","",""
"","instructions","63","655899","0.0-8.0","34702.20000000112","","[{""page_index"":0,""viewing_time"":34700.300000000745}]","","","","","","","","","","","","","","","","","","","",""
"","free-sort","64","680225","0.0-9.0","24313.900000000373","","","","","","","","","post_drag","","","","fast","","","","","","[{""src"":""https://ziweizhang0304.github.io/Stats_learning_trig/img/Stim/FN_010_g.png"",""x"":475,""y"":0},{""src"":""https://ziweizhang0304.github.io/Stats_learning_trig/img/Stim/FN_022_g.png"",""x"":-225,""y"":50},{""src"":""https://ziweizhang0304.github.io/Stats_learning_trig/img/Stim/FN_006_g.png"",""x"":475,""y"":50}]","[{""src"":""https://ziweizhang0304.github.io/Stats_learning_trig/img/Stim/FN_006_g.png"",""x"":21,""y"":22},{""src"":""https://ziweizhang0304.github.io/Stats_learning_trig/img/Stim/FN_022_g.png"",""x"":-150,""y"":68},{""src"":""https://ziweizhang0304.github.io/Stats_learning_trig/img/Stim/FN_010_g.png"",""x"":100,""y"":18},{""src"":""https://ziweizhang0304.github.io/Stats_learning_trig/img/Stim/FN_022_g.png"",""x"":200,""y"":22}]","[{""src"":""https://ziweizhang0304.github.io/Stats_learning_trig/img/Stim/FN_010_g.png"",""x"":99,""y"":18},{""src"":""https://ziweizhang0304.github.io/Stats_learning_trig/img/Stim/FN_022_g.png"",""x"":200,""y"":21},{""src"":""https://ziweizhang0304.github.io/Stats_learning_trig/img/Stim/FN_006_g.png"",""x"":20,""y"":22}]",""
"","free-sort","65","695539","0.0-10.0","15305.599999999627","","","","","","","","","post_drag","","","","slow","","","","","","[{""src"":""https://ziweizhang0304.github.io/Stats_learning_trig/img/Stim/FN_018_g.png"",""x"":475,""y"":0},{""src"":""https://ziweizhang0304.github.io/Stats_learning_trig/img/Stim/FN_020_g.png"",""x"":-225,""y"":50},{""src"":""https://ziweizhang0304.github.io/Stats_learning_trig/img/Stim/FN_004_g.png"",""x"":475,""y"":50}]","[{""src"":""https://ziweizhang0304.github.io/Stats_learning_trig/img/Stim/FN_004_g.png"",""x"":39,""y"":24},{""src"":""https://ziweizhang0304.github.io/Stats_learning_trig/img/Stim/FN_020_g.png"",""x"":116,""y"":32},{""src"":""https://ziweizhang0304.github.io/Stats_learning_trig/img/Stim/FN_018_g.png"",""x"":202,""y"":41}]","[{""src"":""https://ziweizhang0304.github.io/Stats_learning_trig/img/Stim/FN_018_g.png"",""x"":201,""y"":40},{""src"":""https://ziweizhang0304.github.io/Stats_learning_trig/img/Stim/FN_020_g.png"",""x"":116,""y"":31},{""src"":""https://ziweizhang0304.github.io/Stats_learning_trig/img/Stim/FN_004_g.png"",""x"":39,""y"":24}]",""
"","survey-multi-choice","66","713574","0.0-11.0","18008","","","","","","","","","","","","","","","","56849d528f456f000c45e1dd","","{""awareness"":""No"",""attention_check"":""Press SPACEBAR to a target""}","","","","[0,1]"
