"success","trial_type","trial_index","time_elapsed","internal_node_id","rt","url","view_history","stimulus","key_press","animation_sequence","response","TD_rt","TD_target","test_part","TD_trial_number","onset","offset","attention_state","TD_target_position","TD_within_triplet_counter","participant","yoke_participant","responses","init_locations","moves","final_locations","question_order"
"true","fullscreen","0","70175","0.0-0.0","","","","","","","","","","","","","","","","","","","","","","",""
"","external-html","1","74238","0.0-1.0","3927.89999999851","https://ziweizhang0304.github.io/Stats_learning_trig/content/consent.html","","","","","","","","","","","","","","","","","","","","",""
"","instructions","2","86455","0.0-2.0","12210.5","","[{""page_index"":0,""viewing_time"":1503.699999999255},{""page_index"":1,""viewing_time"":5229.5},{""page_index"":2,""viewing_time"":4159.300000000745},{""page_index"":3,""viewing_time"":1316.699999999255}]","","","","","","","","","","","","","","","","","","","",""
"","image-keyboard-response","3","91118","0.0-3.0-0.0-0.0","4659.89999999851","","","https://ziweizhang0304.github.io/Stats_learning_trig/img/Stim/FN_021_g.png","13","","","","","","","","","","","","","","","","","",""
"","animation","4","95540","0.0-3.0-0.0-1.0","","","","","","[{""stimulus"":""https://ziweizhang0304.github.io/Stats_learning_trig/img/Stim/FN_002_g.png"",""time"":359.1000000014901},{""stimulus"":""blank"",""time"":659.8000000007451},{""stimulus"":""https://ziweizhang0304.github.io/Stats_learning_trig/img/Stim/FN_009_g.png"",""time"":681.6000000014901},{""stimulus"":""blank"",""time"":982},{""stimulus"":""https://ziweizhang0304.github.io/Stats_learning_trig/img/Stim/FN_007_g.png"",""time"":1021.8000000007451},{""stimulus"":""blank"",""time"":1322.5},{""stimulus"":""https://ziweizhang0304.github.io/Stats_learning_trig/img/Stim/FN_021_g.png"",""time"":1361.4000000022352},{""stimulus"":""blank"",""time"":1661.699999999255},{""stimulus"":""https://ziweizhang0304.github.io/Stats_learning_trig/img/Stim/FN_011_g.png"",""time"":1701.6000000014901},{""stimulus"":""blank"",""time"":2002.1000000014901},{""stimulus"":""https://ziweizhang0304.github.io/Stats_learning_trig/img/Stim/FN_018_g.png"",""time"":2041.6000000014901},{""stimulus"":""blank"",""time"":2341.900000002235},{""stimulus"":""https://ziweizhang0304.github.io/Stats_learning_trig/img/Stim/FN_001_g.png"",""time"":2381.699999999255},{""stimulus"":""blank"",""time"":2682.60000000149},{""stimulus"":""https://ziweizhang0304.github.io/Stats_learning_trig/img/Stim/FN_026_g.png"",""time"":2722.10000000149},{""stimulus"":""blank"",""time"":3023},{""stimulus"":""https://ziweizhang0304.github.io/Stats_learning_trig/img/Stim/FN_019_g.png"",""time"":3061.5},{""stimulus"":""blank"",""time"":3362},{""stimulus"":""https://ziweizhang0304.github.io/Stats_learning_trig/img/Stim/FN_017_g.png"",""time"":3401.900000002235},{""stimulus"":""blank"",""time"":3702.699999999255},{""stimulus"":""https://ziweizhang0304.github.io/Stats_learning_trig/img/Stim/FN_004_g.png"",""time"":3741.60000000149},{""stimulus"":""blank"",""time"":4042},{""stimulus"":""https://ziweizhang0304.github.io/Stats_learning_trig/img/Stim/FN_005_g.png"",""time"":4081.800000000745},{""stimulus"":""blank"",""time"":4382.5}]","[{""key_press"":32,""rt"":1726,""stimulus"":""https://ziweizhang0304.github.io/Stats_learning_trig/img/Stim/FN_011_g.png""}]","364.5999999977648","https://ziweizhang0304.github.io/Stats_learning_trig/img/Stim/FN_021_g.png","post_prac","","","","","","","","","","","","",""
"","html-keyboard-response","5","103062","0.0-3.0-0.0-2.0","7514.099999997765","","","<p>Your reaction time for this trial was 364.6 ms.</p><p>Remember that you should only press the SPACEBAR when you see the shape presented at the beginning of the trial. </b> </p><p>Press enter to move on.</p>","13","","","","","","","","","","","","","","","","","",""
"","image-keyboard-response","6","105915","0.0-3.0-1.0-0.0","2852","","","https://ziweizhang0304.github.io/Stats_learning_trig/img/Stim/FN_008_g.png","13","","","","","","","","","","","","","","","","","",""
"","animation","7","110337","0.0-3.0-1.0-1.0","","","","","","[{""stimulus"":""https://ziweizhang0304.github.io/Stats_learning_trig/img/Stim/FN_009_g.png"",""time"":341.6000000014901},{""stimulus"":""blank"",""time"":642.1000000014901},{""stimulus"":""https://ziweizhang0304.github.io/Stats_learning_trig/img/Stim/FN_002_g.png"",""time"":681.3000000007451},{""stimulus"":""blank"",""time"":981.8000000007451},{""stimulus"":""https://ziweizhang0304.github.io/Stats_learning_trig/img/Stim/FN_007_g.png"",""time"":1021.1000000014901},{""stimulus"":""blank"",""time"":1321.300000000745},{""stimulus"":""https://ziweizhang0304.github.io/Stats_learning_trig/img/Stim/FN_011_g.png"",""time"":1361.300000000745},{""stimulus"":""blank"",""time"":1662},{""stimulus"":""https://ziweizhang0304.github.io/Stats_learning_trig/img/Stim/FN_001_g.png"",""time"":1701.1000000014901},{""stimulus"":""blank"",""time"":2001.9000000022352},{""stimulus"":""https://ziweizhang0304.github.io/Stats_learning_trig/img/Stim/FN_004_g.png"",""time"":2041.300000000745},{""stimulus"":""blank"",""time"":2342.300000000745},{""stimulus"":""https://ziweizhang0304.github.io/Stats_learning_trig/img/Stim/FN_008_g.png"",""time"":2381.199999999255},{""stimulus"":""blank"",""time"":2681.699999999255},{""stimulus"":""https://ziweizhang0304.github.io/Stats_learning_trig/img/Stim/FN_016_g.png"",""time"":2720.900000002235},{""stimulus"":""blank"",""time"":3021.400000002235},{""stimulus"":""https://ziweizhang0304.github.io/Stats_learning_trig/img/Stim/FN_003_g.png"",""time"":3061.300000000745},{""stimulus"":""blank"",""time"":3361.800000000745},{""stimulus"":""https://ziweizhang0304.github.io/Stats_learning_trig/img/Stim/FN_026_g.png"",""time"":3401.199999999255},{""stimulus"":""blank"",""time"":3702.300000000745},{""stimulus"":""https://ziweizhang0304.github.io/Stats_learning_trig/img/Stim/FN_019_g.png"",""time"":3741.199999999255},{""stimulus"":""blank"",""time"":4042},{""stimulus"":""https://ziweizhang0304.github.io/Stats_learning_trig/img/Stim/FN_005_g.png"",""time"":4081.300000000745},{""stimulus"":""blank"",""time"":4382.199999999255}]","[{""key_press"":32,""rt"":2807.400000002235,""stimulus"":""https://ziweizhang0304.github.io/Stats_learning_trig/img/Stim/FN_016_g.png""}]","426.20000000298023","https://ziweizhang0304.github.io/Stats_learning_trig/img/Stim/FN_008_g.png","post_prac","","","","","","","","","","","","",""
"","html-keyboard-response","8","111862","0.0-3.0-1.0-2.0","1520.800000000745","","","<p>Your reaction time for this trial was 426.2 ms.</p><p>Remember that you should only press the SPACEBAR when you see the shape presented at the beginning of the trial. </b> </p><p>Press enter to move on.</p>","13","","","","","","","","","","","","","","","","","",""
"","image-keyboard-response","9","113836","0.0-3.0-2.0-0.0","1973.300000000745","","","https://ziweizhang0304.github.io/Stats_learning_trig/img/Stim/FN_003_g.png","13","","","","","","","","","","","","","","","","","",""
"","animation","10","118258","0.0-3.0-2.0-1.0","","","","","","[{""stimulus"":""https://ziweizhang0304.github.io/Stats_learning_trig/img/Stim/FN_004_g.png"",""time"":341.5999999977648},{""stimulus"":""blank"",""time"":642.0999999977648},{""stimulus"":""https://ziweizhang0304.github.io/Stats_learning_trig/img/Stim/FN_005_g.png"",""time"":681.1999999992549},{""stimulus"":""blank"",""time"":982.0999999977648},{""stimulus"":""https://ziweizhang0304.github.io/Stats_learning_trig/img/Stim/FN_026_g.png"",""time"":1021.5},{""stimulus"":""blank"",""time"":1321.8999999985099},{""stimulus"":""https://ziweizhang0304.github.io/Stats_learning_trig/img/Stim/FN_008_g.png"",""time"":1361.5},{""stimulus"":""blank"",""time"":1662},{""stimulus"":""https://ziweizhang0304.github.io/Stats_learning_trig/img/Stim/FN_016_g.png"",""time"":1701.300000000745},{""stimulus"":""blank"",""time"":2001.699999999255},{""stimulus"":""https://ziweizhang0304.github.io/Stats_learning_trig/img/Stim/FN_003_g.png"",""time"":2041.300000000745},{""stimulus"":""blank"",""time"":2341.699999999255},{""stimulus"":""https://ziweizhang0304.github.io/Stats_learning_trig/img/Stim/FN_009_g.png"",""time"":2381.699999999255},{""stimulus"":""blank"",""time"":2682.099999997765},{""stimulus"":""https://ziweizhang0304.github.io/Stats_learning_trig/img/Stim/FN_007_g.png"",""time"":2721.099999997765},{""stimulus"":""blank"",""time"":3021.699999999255},{""stimulus"":""https://ziweizhang0304.github.io/Stats_learning_trig/img/Stim/FN_001_g.png"",""time"":3061.599999997765},{""stimulus"":""blank"",""time"":3362.099999997765},{""stimulus"":""https://ziweizhang0304.github.io/Stats_learning_trig/img/Stim/FN_011_g.png"",""time"":3401.39999999851},{""stimulus"":""blank"",""time"":3701.800000000745},{""stimulus"":""https://ziweizhang0304.github.io/Stats_learning_trig/img/Stim/FN_019_g.png"",""time"":3741.699999999255},{""stimulus"":""blank"",""time"":4042.300000000745},{""stimulus"":""https://ziweizhang0304.github.io/Stats_learning_trig/img/Stim/FN_002_g.png"",""time"":4081.099999997765},{""stimulus"":""blank"",""time"":4381.699999999255}]","[{""key_press"":32,""rt"":2353.7000000029802,""stimulus"":""blank""}]","312.4000000022352","https://ziweizhang0304.github.io/Stats_learning_trig/img/Stim/FN_003_g.png","post_prac","","","","","","","","","","","","",""
"","html-keyboard-response","11","119289","0.0-3.0-2.0-2.0","1028.699999999255","","","<p>Your reaction time for this trial was 312.4 ms.</p><p>Remember that you should only press the SPACEBAR when you see the shape presented at the beginning of the trial. </b> </p><p>Press enter to move on.</p>","13","","","","","","","","","","","","","","","","","",""
"","instructions","12","121370","0.0-4.0","2080.300000000745","","[{""page_index"":0,""viewing_time"":2079.60000000149}]","","","","","","","","","","","","","","","","","","","",""
"","image-keyboard-response","13","122798","0.0-5.0-0.0-0.0","1426","","","https://ziweizhang0304.github.io/Stats_learning_trig/img/Stim/FN_016_g.png","13","","","","","","","","","","","","","","","","","",""
"","animation","14","127220","0.0-5.0-0.0-1.0","","","","","","[{""stimulus"":""https://ziweizhang0304.github.io/Stats_learning_trig/img/Stim/FN_009_g.png"",""time"":341.5999999977648},{""stimulus"":""blank"",""time"":642.3000000007451},{""stimulus"":""https://ziweizhang0304.github.io/Stats_learning_trig/img/Stim/FN_002_g.png"",""time"":681.5},{""stimulus"":""blank"",""time"":982.0999999977648},{""stimulus"":""https://ziweizhang0304.github.io/Stats_learning_trig/img/Stim/FN_007_g.png"",""time"":1021.5},{""stimulus"":""blank"",""time"":1322.300000000745},{""stimulus"":""https://ziweizhang0304.github.io/Stats_learning_trig/img/Stim/FN_011_g.png"",""time"":1361.5},{""stimulus"":""blank"",""time"":1662.0999999977648},{""stimulus"":""https://ziweizhang0304.github.io/Stats_learning_trig/img/Stim/FN_001_g.png"",""time"":1701.199999999255},{""stimulus"":""blank"",""time"":2001.699999999255},{""stimulus"":""https://ziweizhang0304.github.io/Stats_learning_trig/img/Stim/FN_004_g.png"",""time"":2041.5},{""stimulus"":""blank"",""time"":2342.099999997765},{""stimulus"":""https://ziweizhang0304.github.io/Stats_learning_trig/img/Stim/FN_008_g.png"",""time"":2381.800000000745},{""stimulus"":""blank"",""time"":2682.800000000745},{""stimulus"":""https://ziweizhang0304.github.io/Stats_learning_trig/img/Stim/FN_016_g.png"",""time"":2721.5},{""stimulus"":""blank"",""time"":3022.199999999255},{""stimulus"":""https://ziweizhang0304.github.io/Stats_learning_trig/img/Stim/FN_003_g.png"",""time"":3061.5},{""stimulus"":""blank"",""time"":3362},{""stimulus"":""https://ziweizhang0304.github.io/Stats_learning_trig/img/Stim/FN_026_g.png"",""time"":3401.39999999851},{""stimulus"":""blank"",""time"":3702},{""stimulus"":""https://ziweizhang0304.github.io/Stats_learning_trig/img/Stim/FN_019_g.png"",""time"":3741.199999999255},{""stimulus"":""blank"",""time"":4041.699999999255},{""stimulus"":""https://ziweizhang0304.github.io/Stats_learning_trig/img/Stim/FN_005_g.png"",""time"":4081.199999999255},{""stimulus"":""blank"",""time"":4381.800000000745}]","[{""key_press"":32,""rt"":3080.7999999970198,""stimulus"":""https://ziweizhang0304.github.io/Stats_learning_trig/img/Stim/FN_003_g.png""}]","359.29999999701977","https://ziweizhang0304.github.io/Stats_learning_trig/img/Stim/FN_016_g.png","post_TD","1","2721.5","3080.7999999970198","slow","8","2","5e445469951000017c34358e","","","","","",""
"","image-keyboard-response","15","128416","0.0-5.0-1.0-0.0","1190.199999999255","","","https://ziweizhang0304.github.io/Stats_learning_trig/img/Stim/FN_018_g.png","13","","","","","","","","","","","","","","","","","",""
"","animation","16","132838","0.0-5.0-1.0-1.0","","","","","","[{""stimulus"":""https://ziweizhang0304.github.io/Stats_learning_trig/img/Stim/FN_004_g.png"",""time"":341.5},{""stimulus"":""blank"",""time"":642.6000000014901},{""stimulus"":""https://ziweizhang0304.github.io/Stats_learning_trig/img/Stim/FN_009_g.png"",""time"":681.4000000022352},{""stimulus"":""blank"",""time"":982},{""stimulus"":""https://ziweizhang0304.github.io/Stats_learning_trig/img/Stim/FN_026_g.png"",""time"":1021.1999999992549},{""stimulus"":""blank"",""time"":1321.4000000022352},{""stimulus"":""https://ziweizhang0304.github.io/Stats_learning_trig/img/Stim/FN_007_g.png"",""time"":1361.5},{""stimulus"":""blank"",""time"":1662.4000000022352},{""stimulus"":""https://ziweizhang0304.github.io/Stats_learning_trig/img/Stim/FN_002_g.png"",""time"":1701.300000000745},{""stimulus"":""blank"",""time"":2001.699999999255},{""stimulus"":""https://ziweizhang0304.github.io/Stats_learning_trig/img/Stim/FN_018_g.png"",""time"":2041.5},{""stimulus"":""blank"",""time"":2341.800000000745},{""stimulus"":""https://ziweizhang0304.github.io/Stats_learning_trig/img/Stim/FN_017_g.png"",""time"":2381.400000002235},{""stimulus"":""blank"",""time"":2681.699999999255},{""stimulus"":""https://ziweizhang0304.github.io/Stats_learning_trig/img/Stim/FN_021_g.png"",""time"":2721},{""stimulus"":""blank"",""time"":3021.300000000745},{""stimulus"":""https://ziweizhang0304.github.io/Stats_learning_trig/img/Stim/FN_001_g.png"",""time"":3061},{""stimulus"":""blank"",""time"":3361.60000000149},{""stimulus"":""https://ziweizhang0304.github.io/Stats_learning_trig/img/Stim/FN_011_g.png"",""time"":3401.10000000149},{""stimulus"":""blank"",""time"":3701.60000000149},{""stimulus"":""https://ziweizhang0304.github.io/Stats_learning_trig/img/Stim/FN_019_g.png"",""time"":3741.5},{""stimulus"":""blank"",""time"":4041.900000002235},{""stimulus"":""https://ziweizhang0304.github.io/Stats_learning_trig/img/Stim/FN_005_g.png"",""time"":4081.199999999255},{""stimulus"":""blank"",""time"":4381.900000002235}]","[{""key_press"":32,""rt"":2426.60000000149,""stimulus"":""https://ziweizhang0304.github.io/Stats_learning_trig/img/Stim/FN_017_g.png""}]","385.1000000014901","https://ziweizhang0304.github.io/Stats_learning_trig/img/Stim/FN_018_g.png","post_TD","2","2041.5","2426.60000000149","fast","6","1","5e445469951000017c34358e","","","","","",""
"","image-keyboard-response","17","133849","0.0-5.0-2.0-0.0","1004.9000000022352","","","https://ziweizhang0304.github.io/Stats_learning_trig/img/Stim/FN_016_g.png","13","","","","","","","","","","","","","","","","","",""
"","animation","18","138270","0.0-5.0-2.0-1.0","","","","","","[{""stimulus"":""https://ziweizhang0304.github.io/Stats_learning_trig/img/Stim/FN_004_g.png"",""time"":341.30000000074506},{""stimulus"":""blank"",""time"":641.9000000022352},{""stimulus"":""https://ziweizhang0304.github.io/Stats_learning_trig/img/Stim/FN_019_g.png"",""time"":681},{""stimulus"":""blank"",""time"":981.4000000022352},{""stimulus"":""https://ziweizhang0304.github.io/Stats_learning_trig/img/Stim/FN_002_g.png"",""time"":1021.1000000014901},{""stimulus"":""blank"",""time"":1321.699999999255},{""stimulus"":""https://ziweizhang0304.github.io/Stats_learning_trig/img/Stim/FN_005_g.png"",""time"":1361.6000000014901},{""stimulus"":""blank"",""time"":1662},{""stimulus"":""https://ziweizhang0304.github.io/Stats_learning_trig/img/Stim/FN_008_g.png"",""time"":1701.1000000014901},{""stimulus"":""blank"",""time"":2002.199999999255},{""stimulus"":""https://ziweizhang0304.github.io/Stats_learning_trig/img/Stim/FN_016_g.png"",""time"":2041.199999999255},{""stimulus"":""blank"",""time"":2341.5},{""stimulus"":""https://ziweizhang0304.github.io/Stats_learning_trig/img/Stim/FN_003_g.png"",""time"":2380.900000002235},{""stimulus"":""blank"",""time"":2681.300000000745},{""stimulus"":""https://ziweizhang0304.github.io/Stats_learning_trig/img/Stim/FN_009_g.png"",""time"":2720.900000002235},{""stimulus"":""blank"",""time"":3021.300000000745},{""stimulus"":""https://ziweizhang0304.github.io/Stats_learning_trig/img/Stim/FN_026_g.png"",""time"":3061.10000000149},{""stimulus"":""blank"",""time"":3361.699999999255},{""stimulus"":""https://ziweizhang0304.github.io/Stats_learning_trig/img/Stim/FN_007_g.png"",""time"":3401.199999999255},{""stimulus"":""blank"",""time"":3702.10000000149},{""stimulus"":""https://ziweizhang0304.github.io/Stats_learning_trig/img/Stim/FN_001_g.png"",""time"":3741.300000000745},{""stimulus"":""blank"",""time"":4041.900000002235},{""stimulus"":""https://ziweizhang0304.github.io/Stats_learning_trig/img/Stim/FN_011_g.png"",""time"":4081.10000000149},{""stimulus"":""blank"",""time"":4381.699999999255}]","[{""key_press"":32,""rt"":2081.7000000029802,""stimulus"":""https://ziweizhang0304.github.io/Stats_learning_trig/img/Stim/FN_016_g.png""}]","40.50000000372529","https://ziweizhang0304.github.io/Stats_learning_trig/img/Stim/FN_016_g.png","post_TD","3","2041.199999999255","2081.7000000029802","slow","6","2","5e445469951000017c34358e","","","","","",""
"","image-keyboard-response","19","139374","0.0-5.0-3.0-0.0","1100.7000000029802","","","https://ziweizhang0304.github.io/Stats_learning_trig/img/Stim/FN_017_g.png","13","","","","","","","","","","","","","","","","","",""
"","animation","20","143796","0.0-5.0-3.0-1.0","","","","","","[{""stimulus"":""https://ziweizhang0304.github.io/Stats_learning_trig/img/Stim/FN_009_g.png"",""time"":341.5},{""stimulus"":""blank"",""time"":642.0999999977648},{""stimulus"":""https://ziweizhang0304.github.io/Stats_learning_trig/img/Stim/FN_026_g.png"",""time"":681.5999999977648},{""stimulus"":""blank"",""time"":982.0999999977648},{""stimulus"":""https://ziweizhang0304.github.io/Stats_learning_trig/img/Stim/FN_007_g.png"",""time"":1021.5999999977648},{""stimulus"":""blank"",""time"":1321.8999999985099},{""stimulus"":""https://ziweizhang0304.github.io/Stats_learning_trig/img/Stim/FN_004_g.png"",""time"":1361.199999999255},{""stimulus"":""blank"",""time"":1662.0999999977648},{""stimulus"":""https://ziweizhang0304.github.io/Stats_learning_trig/img/Stim/FN_018_g.png"",""time"":1701.3999999985099},{""stimulus"":""blank"",""time"":2001.8999999985099},{""stimulus"":""https://ziweizhang0304.github.io/Stats_learning_trig/img/Stim/FN_017_g.png"",""time"":2041.699999999255},{""stimulus"":""blank"",""time"":2342.2999999970198},{""stimulus"":""https://ziweizhang0304.github.io/Stats_learning_trig/img/Stim/FN_021_g.png"",""time"":2381.099999997765},{""stimulus"":""blank"",""time"":2681.599999997765},{""stimulus"":""https://ziweizhang0304.github.io/Stats_learning_trig/img/Stim/FN_001_g.png"",""time"":2721.699999999255},{""stimulus"":""blank"",""time"":3022},{""stimulus"":""https://ziweizhang0304.github.io/Stats_learning_trig/img/Stim/FN_011_g.png"",""time"":3061.5},{""stimulus"":""blank"",""time"":3362},{""stimulus"":""https://ziweizhang0304.github.io/Stats_learning_trig/img/Stim/FN_019_g.png"",""time"":3401.099999997765},{""stimulus"":""blank"",""time"":3701.7999999970198},{""stimulus"":""https://ziweizhang0304.github.io/Stats_learning_trig/img/Stim/FN_005_g.png"",""time"":3741.599999997765},{""stimulus"":""blank"",""time"":4042.5},{""stimulus"":""https://ziweizhang0304.github.io/Stats_learning_trig/img/Stim/FN_002_g.png"",""time"":4081.5},{""stimulus"":""blank"",""time"":4381.89999999851}]","[{""key_press"":32,""rt"":1717.5,""stimulus"":""https://ziweizhang0304.github.io/Stats_learning_trig/img/Stim/FN_018_g.png""},{""key_press"":32,""rt"":2433.2000000029802,""stimulus"":""https://ziweizhang0304.github.io/Stats_learning_trig/img/Stim/FN_021_g.png""}]","391.5000000037253","https://ziweizhang0304.github.io/Stats_learning_trig/img/Stim/FN_017_g.png","post_TD","4","2041.699999999255","2433.2000000029802","fast","6","2","5e445469951000017c34358e","","","","","",""
"","image-keyboard-response","21","144646","0.0-5.0-4.0-0.0","847","","","https://ziweizhang0304.github.io/Stats_learning_trig/img/Stim/FN_018_g.png","13","","","","","","","","","","","","","","","","","",""
"","animation","22","149067","0.0-5.0-4.0-1.0","","","","","","[{""stimulus"":""https://ziweizhang0304.github.io/Stats_learning_trig/img/Stim/FN_026_g.png"",""time"":341.5},{""stimulus"":""blank"",""time"":642},{""stimulus"":""https://ziweizhang0304.github.io/Stats_learning_trig/img/Stim/FN_001_g.png"",""time"":681.1999999992549},{""stimulus"":""blank"",""time"":981.8000000007451},{""stimulus"":""https://ziweizhang0304.github.io/Stats_learning_trig/img/Stim/FN_004_g.png"",""time"":1021.3000000007451},{""stimulus"":""blank"",""time"":1321.800000000745},{""stimulus"":""https://ziweizhang0304.github.io/Stats_learning_trig/img/Stim/FN_002_g.png"",""time"":1361.4000000022352},{""stimulus"":""blank"",""time"":1662},{""stimulus"":""https://ziweizhang0304.github.io/Stats_learning_trig/img/Stim/FN_019_g.png"",""time"":1701.199999999255},{""stimulus"":""blank"",""time"":2001.9000000022352},{""stimulus"":""https://ziweizhang0304.github.io/Stats_learning_trig/img/Stim/FN_009_g.png"",""time"":2041.300000000745},{""stimulus"":""blank"",""time"":2341.900000002235},{""stimulus"":""https://ziweizhang0304.github.io/Stats_learning_trig/img/Stim/FN_018_g.png"",""time"":2381.400000002235},{""stimulus"":""blank"",""time"":2681.800000000745},{""stimulus"":""https://ziweizhang0304.github.io/Stats_learning_trig/img/Stim/FN_017_g.png"",""time"":2721.5},{""stimulus"":""blank"",""time"":3022},{""stimulus"":""https://ziweizhang0304.github.io/Stats_learning_trig/img/Stim/FN_021_g.png"",""time"":3061.400000002235},{""stimulus"":""blank"",""time"":3362.199999999255},{""stimulus"":""https://ziweizhang0304.github.io/Stats_learning_trig/img/Stim/FN_007_g.png"",""time"":3401.300000000745},{""stimulus"":""blank"",""time"":3702},{""stimulus"":""https://ziweizhang0304.github.io/Stats_learning_trig/img/Stim/FN_011_g.png"",""time"":3741.5},{""stimulus"":""blank"",""time"":4042.199999999255},{""stimulus"":""https://ziweizhang0304.github.io/Stats_learning_trig/img/Stim/FN_005_g.png"",""time"":4081.5},{""stimulus"":""blank"",""time"":4382.199999999255}]","[{""key_press"":32,""rt"":2757.400000002235,""stimulus"":""https://ziweizhang0304.github.io/Stats_learning_trig/img/Stim/FN_017_g.png""}]","376","https://ziweizhang0304.github.io/Stats_learning_trig/img/Stim/FN_018_g.png","post_TD","5","2381.400000002235","2757.400000002235","fast","7","1","5e445469951000017c34358e","","","","","",""
"","image-keyboard-response","23","149947","0.0-5.0-5.0-0.0","877.1000000014901","","","https://ziweizhang0304.github.io/Stats_learning_trig/img/Stim/FN_008_g.png","13","","","","","","","","","","","","","","","","","",""
"","animation","24","154369","0.0-5.0-5.0-1.0","","","","","","[{""stimulus"":""https://ziweizhang0304.github.io/Stats_learning_trig/img/Stim/FN_004_g.png"",""time"":341.69999999925494},{""stimulus"":""blank"",""time"":642.5},{""stimulus"":""https://ziweizhang0304.github.io/Stats_learning_trig/img/Stim/FN_005_g.png"",""time"":681.3999999985099},{""stimulus"":""blank"",""time"":982.0999999977648},{""stimulus"":""https://ziweizhang0304.github.io/Stats_learning_trig/img/Stim/FN_026_g.png"",""time"":1021.3000000007451},{""stimulus"":""blank"",""time"":1322.199999999255},{""stimulus"":""https://ziweizhang0304.github.io/Stats_learning_trig/img/Stim/FN_008_g.png"",""time"":1361.5999999977648},{""stimulus"":""blank"",""time"":1662.300000000745},{""stimulus"":""https://ziweizhang0304.github.io/Stats_learning_trig/img/Stim/FN_016_g.png"",""time"":1701.5},{""stimulus"":""blank"",""time"":2002},{""stimulus"":""https://ziweizhang0304.github.io/Stats_learning_trig/img/Stim/FN_003_g.png"",""time"":2041.5},{""stimulus"":""blank"",""time"":2342},{""stimulus"":""https://ziweizhang0304.github.io/Stats_learning_trig/img/Stim/FN_009_g.png"",""time"":2381.300000000745},{""stimulus"":""blank"",""time"":2682},{""stimulus"":""https://ziweizhang0304.github.io/Stats_learning_trig/img/Stim/FN_007_g.png"",""time"":2721.39999999851},{""stimulus"":""blank"",""time"":3023.599999997765},{""stimulus"":""https://ziweizhang0304.github.io/Stats_learning_trig/img/Stim/FN_001_g.png"",""time"":3061.300000000745},{""stimulus"":""blank"",""time"":3362.199999999255},{""stimulus"":""https://ziweizhang0304.github.io/Stats_learning_trig/img/Stim/FN_011_g.png"",""time"":3401.39999999851},{""stimulus"":""blank"",""time"":3702},{""stimulus"":""https://ziweizhang0304.github.io/Stats_learning_trig/img/Stim/FN_019_g.png"",""time"":3741.39999999851},{""stimulus"":""blank"",""time"":4041.89999999851},{""stimulus"":""https://ziweizhang0304.github.io/Stats_learning_trig/img/Stim/FN_002_g.png"",""time"":4081.599999997765},{""stimulus"":""blank"",""time"":4382.199999999255}]","[{""key_press"":32,""rt"":1791,""stimulus"":""https://ziweizhang0304.github.io/Stats_learning_trig/img/Stim/FN_016_g.png""}]","429.4000000022352","https://ziweizhang0304.github.io/Stats_learning_trig/img/Stim/FN_008_g.png","post_TD","6","1361.5999999977648","1791","slow","4","1","5e445469951000017c34358e","","","","","",""
"","image-keyboard-response","25","155779","0.0-5.0-6.0-0.0","1404.699999999255","","","https://ziweizhang0304.github.io/Stats_learning_trig/img/Stim/FN_017_g.png","13","","","","","","","","","","","","","","","","","",""
"","animation","26","160201","0.0-5.0-6.0-1.0","","","","","","[{""stimulus"":""https://ziweizhang0304.github.io/Stats_learning_trig/img/Stim/FN_004_g.png"",""time"":341.80000000074506},{""stimulus"":""blank"",""time"":642.3000000007451},{""stimulus"":""https://ziweizhang0304.github.io/Stats_learning_trig/img/Stim/FN_009_g.png"",""time"":681},{""stimulus"":""blank"",""time"":981.3999999985099},{""stimulus"":""https://ziweizhang0304.github.io/Stats_learning_trig/img/Stim/FN_026_g.png"",""time"":1021},{""stimulus"":""blank"",""time"":1321.5},{""stimulus"":""https://ziweizhang0304.github.io/Stats_learning_trig/img/Stim/FN_007_g.png"",""time"":1361.3999999985099},{""stimulus"":""blank"",""time"":1662.0999999977648},{""stimulus"":""https://ziweizhang0304.github.io/Stats_learning_trig/img/Stim/FN_002_g.png"",""time"":1701.199999999255},{""stimulus"":""blank"",""time"":2001.699999999255},{""stimulus"":""https://ziweizhang0304.github.io/Stats_learning_trig/img/Stim/FN_018_g.png"",""time"":2041.300000000745},{""stimulus"":""blank"",""time"":2341.89999999851},{""stimulus"":""https://ziweizhang0304.github.io/Stats_learning_trig/img/Stim/FN_017_g.png"",""time"":2381.5},{""stimulus"":""blank"",""time"":2682},{""stimulus"":""https://ziweizhang0304.github.io/Stats_learning_trig/img/Stim/FN_021_g.png"",""time"":2721.099999997765},{""stimulus"":""blank"",""time"":3021.39999999851},{""stimulus"":""https://ziweizhang0304.github.io/Stats_learning_trig/img/Stim/FN_001_g.png"",""time"":3061.5},{""stimulus"":""blank"",""time"":3362},{""stimulus"":""https://ziweizhang0304.github.io/Stats_learning_trig/img/Stim/FN_011_g.png"",""time"":3401.5},{""stimulus"":""blank"",""time"":3702.199999999255},{""stimulus"":""https://ziweizhang0304.github.io/Stats_learning_trig/img/Stim/FN_019_g.png"",""time"":3741.300000000745},{""stimulus"":""blank"",""time"":4041.800000000745},{""stimulus"":""https://ziweizhang0304.github.io/Stats_learning_trig/img/Stim/FN_005_g.png"",""time"":4081.199999999255},{""stimulus"":""blank"",""time"":4382.5}]","[{""key_press"":32,""rt"":2781.39999999851,""stimulus"":""https://ziweizhang0304.github.io/Stats_learning_trig/img/Stim/FN_021_g.png""}]","399.8999999985099","https://ziweizhang0304.github.io/Stats_learning_trig/img/Stim/FN_017_g.png","post_TD","7","2381.5","2781.39999999851","fast","7","2","5e445469951000017c34358e","","","","","",""
"","image-keyboard-response","27","161758","0.0-5.0-7.0-0.0","1554.4000000022352","","","https://ziweizhang0304.github.io/Stats_learning_trig/img/Stim/FN_021_g.png","13","","","","","","","","","","","","","","","","","",""
"","animation","28","166180","0.0-5.0-7.0-1.0","","","","","","[{""stimulus"":""https://ziweizhang0304.github.io/Stats_learning_trig/img/Stim/FN_009_g.png"",""time"":342},{""stimulus"":""blank"",""time"":642.6999999992549},{""stimulus"":""https://ziweizhang0304.github.io/Stats_learning_trig/img/Stim/FN_026_g.png"",""time"":681.5999999977648},{""stimulus"":""blank"",""time"":982.0999999977648},{""stimulus"":""https://ziweizhang0304.github.io/Stats_learning_trig/img/Stim/FN_007_g.png"",""time"":1021.1999999992549},{""stimulus"":""blank"",""time"":1321.7999999970198},{""stimulus"":""https://ziweizhang0304.github.io/Stats_learning_trig/img/Stim/FN_004_g.png"",""time"":1361.699999999255},{""stimulus"":""blank"",""time"":1662.199999999255},{""stimulus"":""https://ziweizhang0304.github.io/Stats_learning_trig/img/Stim/FN_018_g.png"",""time"":1701.5},{""stimulus"":""blank"",""time"":2002},{""stimulus"":""https://ziweizhang0304.github.io/Stats_learning_trig/img/Stim/FN_017_g.png"",""time"":2042.199999999255},{""stimulus"":""blank"",""time"":2342.699999999255},{""stimulus"":""https://ziweizhang0304.github.io/Stats_learning_trig/img/Stim/FN_021_g.png"",""time"":2381.5},{""stimulus"":""blank"",""time"":2682.199999999255},{""stimulus"":""https://ziweizhang0304.github.io/Stats_learning_trig/img/Stim/FN_001_g.png"",""time"":2721.2999999970198},{""stimulus"":""blank"",""time"":3021.5},{""stimulus"":""https://ziweizhang0304.github.io/Stats_learning_trig/img/Stim/FN_011_g.png"",""time"":3061.599999997765},{""stimulus"":""blank"",""time"":3362},{""stimulus"":""https://ziweizhang0304.github.io/Stats_learning_trig/img/Stim/FN_019_g.png"",""time"":3401.2999999970198},{""stimulus"":""blank"",""time"":3702.099999997765},{""stimulus"":""https://ziweizhang0304.github.io/Stats_learning_trig/img/Stim/FN_005_g.png"",""time"":3741.7999999970198},{""stimulus"":""blank"",""time"":4042.5},{""stimulus"":""https://ziweizhang0304.github.io/Stats_learning_trig/img/Stim/FN_002_g.png"",""time"":4081.599999997765},{""stimulus"":""blank"",""time"":4382}]","[{""key_press"":32,""rt"":2721.39999999851,""stimulus"":""https://ziweizhang0304.github.io/Stats_learning_trig/img/Stim/FN_001_g.png""}]","339.8999999985099","https://ziweizhang0304.github.io/Stats_learning_trig/img/Stim/FN_021_g.png","post_TD","8","2381.5","2721.39999999851","fast","7","3","5e445469951000017c34358e","","","","","",""
"","image-keyboard-response","29","167230","0.0-5.0-8.0-0.0","1047.199999999255","","","https://ziweizhang0304.github.io/Stats_learning_trig/img/Stim/FN_018_g.png","13","","","","","","","","","","","","","","","","","",""
"","animation","30","171652","0.0-5.0-8.0-1.0","","","","","","[{""stimulus"":""https://ziweizhang0304.github.io/Stats_learning_trig/img/Stim/FN_009_g.png"",""time"":341.5},{""stimulus"":""blank"",""time"":642.1000000014901},{""stimulus"":""https://ziweizhang0304.github.io/Stats_learning_trig/img/Stim/FN_026_g.png"",""time"":681.1999999992549},{""stimulus"":""blank"",""time"":981.6999999992549},{""stimulus"":""https://ziweizhang0304.github.io/Stats_learning_trig/img/Stim/FN_007_g.png"",""time"":1021.5},{""stimulus"":""blank"",""time"":1321.800000000745},{""stimulus"":""https://ziweizhang0304.github.io/Stats_learning_trig/img/Stim/FN_004_g.png"",""time"":1361.300000000745},{""stimulus"":""blank"",""time"":1661.8999999985099},{""stimulus"":""https://ziweizhang0304.github.io/Stats_learning_trig/img/Stim/FN_018_g.png"",""time"":1701.199999999255},{""stimulus"":""blank"",""time"":2001.800000000745},{""stimulus"":""https://ziweizhang0304.github.io/Stats_learning_trig/img/Stim/FN_017_g.png"",""time"":2041.199999999255},{""stimulus"":""blank"",""time"":2341.5},{""stimulus"":""https://ziweizhang0304.github.io/Stats_learning_trig/img/Stim/FN_021_g.png"",""time"":2381.199999999255},{""stimulus"":""blank"",""time"":2681.60000000149},{""stimulus"":""https://ziweizhang0304.github.io/Stats_learning_trig/img/Stim/FN_001_g.png"",""time"":2721.10000000149},{""stimulus"":""blank"",""time"":3021.699999999255},{""stimulus"":""https://ziweizhang0304.github.io/Stats_learning_trig/img/Stim/FN_011_g.png"",""time"":3061.300000000745},{""stimulus"":""blank"",""time"":3361.699999999255},{""stimulus"":""https://ziweizhang0304.github.io/Stats_learning_trig/img/Stim/FN_019_g.png"",""time"":3401.10000000149},{""stimulus"":""blank"",""time"":3701.5},{""stimulus"":""https://ziweizhang0304.github.io/Stats_learning_trig/img/Stim/FN_005_g.png"",""time"":3741.199999999255},{""stimulus"":""blank"",""time"":4042},{""stimulus"":""https://ziweizhang0304.github.io/Stats_learning_trig/img/Stim/FN_002_g.png"",""time"":4081},{""stimulus"":""blank"",""time"":4381.699999999255}]","[{""key_press"":32,""rt"":2129.699999999255,""stimulus"":""https://ziweizhang0304.github.io/Stats_learning_trig/img/Stim/FN_017_g.png""}]","428.5","https://ziweizhang0304.github.io/Stats_learning_trig/img/Stim/FN_018_g.png","post_TD","9","1701.199999999255","2129.699999999255","fast","5","1","5e445469951000017c34358e","","","","","",""
"","image-keyboard-response","31","172727","0.0-5.0-9.0-0.0","1071.800000000745","","","https://ziweizhang0304.github.io/Stats_learning_trig/img/Stim/FN_021_g.png","13","","","","","","","","","","","","","","","","","",""
"","animation","32","177149","0.0-5.0-9.0-1.0","","","","","","[{""stimulus"":""https://ziweizhang0304.github.io/Stats_learning_trig/img/Stim/FN_004_g.png"",""time"":341.3999999985099},{""stimulus"":""blank"",""time"":641.7999999970198},{""stimulus"":""https://ziweizhang0304.github.io/Stats_learning_trig/img/Stim/FN_009_g.png"",""time"":681.1999999992549},{""stimulus"":""blank"",""time"":981.6999999992549},{""stimulus"":""https://ziweizhang0304.github.io/Stats_learning_trig/img/Stim/FN_026_g.png"",""time"":1021.0999999977648},{""stimulus"":""blank"",""time"":1321.8999999985099},{""stimulus"":""https://ziweizhang0304.github.io/Stats_learning_trig/img/Stim/FN_007_g.png"",""time"":1361.0999999977648},{""stimulus"":""blank"",""time"":1661.8999999985099},{""stimulus"":""https://ziweizhang0304.github.io/Stats_learning_trig/img/Stim/FN_002_g.png"",""time"":1701.3999999985099},{""stimulus"":""blank"",""time"":2002.0999999977648},{""stimulus"":""https://ziweizhang0304.github.io/Stats_learning_trig/img/Stim/FN_018_g.png"",""time"":2041.2999999970198},{""stimulus"":""blank"",""time"":2341.7999999970198},{""stimulus"":""https://ziweizhang0304.github.io/Stats_learning_trig/img/Stim/FN_017_g.png"",""time"":2381.199999999255},{""stimulus"":""blank"",""time"":2681.699999999255},{""stimulus"":""https://ziweizhang0304.github.io/Stats_learning_trig/img/Stim/FN_021_g.png"",""time"":2721.2999999970198},{""stimulus"":""blank"",""time"":3021.7999999970198},{""stimulus"":""https://ziweizhang0304.github.io/Stats_learning_trig/img/Stim/FN_001_g.png"",""time"":3061},{""stimulus"":""blank"",""time"":3361.7999999970198},{""stimulus"":""https://ziweizhang0304.github.io/Stats_learning_trig/img/Stim/FN_011_g.png"",""time"":3401.2999999970198},{""stimulus"":""blank"",""time"":3701.7999999970198},{""stimulus"":""https://ziweizhang0304.github.io/Stats_learning_trig/img/Stim/FN_019_g.png"",""time"":3741.2999999970198},{""stimulus"":""blank"",""time"":4041.599999997765},{""stimulus"":""https://ziweizhang0304.github.io/Stats_learning_trig/img/Stim/FN_005_g.png"",""time"":4081.099999997765},{""stimulus"":""blank"",""time"":4382.099999997765}]","[{""key_press"":32,""rt"":3065.5,""stimulus"":""https://ziweizhang0304.github.io/Stats_learning_trig/img/Stim/FN_001_g.png""}]","344.20000000298023","https://ziweizhang0304.github.io/Stats_learning_trig/img/Stim/FN_021_g.png","post_TD","10","2721.2999999970198","3065.5","fast","8","3","5e445469951000017c34358e","","","","","",""
"","image-keyboard-response","33","178137","0.0-5.0-10.0-0.0","984.8000000007451","","","https://ziweizhang0304.github.io/Stats_learning_trig/img/Stim/FN_003_g.png","13","","","","","","","","","","","","","","","","","",""
"","animation","34","182559","0.0-5.0-10.0-1.0","","","","","","[{""stimulus"":""https://ziweizhang0304.github.io/Stats_learning_trig/img/Stim/FN_004_g.png"",""time"":341.4000000022352},{""stimulus"":""blank"",""time"":641.7000000029802},{""stimulus"":""https://ziweizhang0304.github.io/Stats_learning_trig/img/Stim/FN_019_g.png"",""time"":681.3000000007451},{""stimulus"":""blank"",""time"":981.6000000014901},{""stimulus"":""https://ziweizhang0304.github.io/Stats_learning_trig/img/Stim/FN_002_g.png"",""time"":1021},{""stimulus"":""blank"",""time"":1321.7000000029802},{""stimulus"":""https://ziweizhang0304.github.io/Stats_learning_trig/img/Stim/FN_005_g.png"",""time"":1361.4000000022352},{""stimulus"":""blank"",""time"":1661.800000000745},{""stimulus"":""https://ziweizhang0304.github.io/Stats_learning_trig/img/Stim/FN_008_g.png"",""time"":1701.5},{""stimulus"":""blank"",""time"":2002},{""stimulus"":""https://ziweizhang0304.github.io/Stats_learning_trig/img/Stim/FN_016_g.png"",""time"":2041.2000000029802},{""stimulus"":""blank"",""time"":2341.7000000029802},{""stimulus"":""https://ziweizhang0304.github.io/Stats_learning_trig/img/Stim/FN_003_g.png"",""time"":2381.300000000745},{""stimulus"":""blank"",""time"":2681.800000000745},{""stimulus"":""https://ziweizhang0304.github.io/Stats_learning_trig/img/Stim/FN_009_g.png"",""time"":2721.300000000745},{""stimulus"":""blank"",""time"":3021.900000002235},{""stimulus"":""https://ziweizhang0304.github.io/Stats_learning_trig/img/Stim/FN_026_g.png"",""time"":3061.400000002235},{""stimulus"":""blank"",""time"":3361.900000002235},{""stimulus"":""https://ziweizhang0304.github.io/Stats_learning_trig/img/Stim/FN_007_g.png"",""time"":3401.300000000745},{""stimulus"":""blank"",""time"":3701.900000002235},{""stimulus"":""https://ziweizhang0304.github.io/Stats_learning_trig/img/Stim/FN_001_g.png"",""time"":3741.400000002235},{""stimulus"":""blank"",""time"":4041.7000000029802},{""stimulus"":""https://ziweizhang0304.github.io/Stats_learning_trig/img/Stim/FN_011_g.png"",""time"":4081.60000000149},{""stimulus"":""blank"",""time"":4382.400000002235}]","[{""key_press"":32,""rt"":2772.800000000745,""stimulus"":""https://ziweizhang0304.github.io/Stats_learning_trig/img/Stim/FN_009_g.png""}]","391.5","https://ziweizhang0304.github.io/Stats_learning_trig/img/Stim/FN_003_g.png","post_TD","11","2381.300000000745","2772.800000000745","slow","7","3","5e445469951000017c34358e","","","","","",""
"","image-keyboard-response","35","183655","0.0-5.0-11.0-0.0","1092.800000000745","","","https://ziweizhang0304.github.io/Stats_learning_trig/img/Stim/FN_003_g.png","13","","","","","","","","","","","","","","","","","",""
"","animation","36","188077","0.0-5.0-11.0-1.0","","","","","","[{""stimulus"":""https://ziweizhang0304.github.io/Stats_learning_trig/img/Stim/FN_007_g.png"",""time"":341.4000000022352},{""stimulus"":""blank"",""time"":642},{""stimulus"":""https://ziweizhang0304.github.io/Stats_learning_trig/img/Stim/FN_005_g.png"",""time"":681.4000000022352},{""stimulus"":""blank"",""time"":981.8000000007451},{""stimulus"":""https://ziweizhang0304.github.io/Stats_learning_trig/img/Stim/FN_002_g.png"",""time"":1021.5},{""stimulus"":""blank"",""time"":1322.1000000014901},{""stimulus"":""https://ziweizhang0304.github.io/Stats_learning_trig/img/Stim/FN_004_g.png"",""time"":1361.4000000022352},{""stimulus"":""blank"",""time"":1662},{""stimulus"":""https://ziweizhang0304.github.io/Stats_learning_trig/img/Stim/FN_001_g.png"",""time"":1701.699999999255},{""stimulus"":""blank"",""time"":2002.199999999255},{""stimulus"":""https://ziweizhang0304.github.io/Stats_learning_trig/img/Stim/FN_008_g.png"",""time"":2041.199999999255},{""stimulus"":""blank"",""time"":2342.199999999255},{""stimulus"":""https://ziweizhang0304.github.io/Stats_learning_trig/img/Stim/FN_016_g.png"",""time"":2381.699999999255},{""stimulus"":""blank"",""time"":2682.400000002235},{""stimulus"":""https://ziweizhang0304.github.io/Stats_learning_trig/img/Stim/FN_003_g.png"",""time"":2721.199999999255},{""stimulus"":""blank"",""time"":3022.199999999255},{""stimulus"":""https://ziweizhang0304.github.io/Stats_learning_trig/img/Stim/FN_009_g.png"",""time"":3061.300000000745},{""stimulus"":""blank"",""time"":3361.900000002235},{""stimulus"":""https://ziweizhang0304.github.io/Stats_learning_trig/img/Stim/FN_026_g.png"",""time"":3401.5},{""stimulus"":""blank"",""time"":3702},{""stimulus"":""https://ziweizhang0304.github.io/Stats_learning_trig/img/Stim/FN_011_g.png"",""time"":3741.199999999255},{""stimulus"":""blank"",""time"":4041.900000002235},{""stimulus"":""https://ziweizhang0304.github.io/Stats_learning_trig/img/Stim/FN_019_g.png"",""time"":4081.60000000149},{""stimulus"":""blank"",""time"":4382.10000000149}]","[{""key_press"":32,""rt"":3124,""stimulus"":""https://ziweizhang0304.github.io/Stats_learning_trig/img/Stim/FN_009_g.png""}]","402.80000000074506","https://ziweizhang0304.github.io/Stats_learning_trig/img/Stim/FN_003_g.png","post_TD","12","2721.199999999255","3124","slow","8","3","5e445469951000017c34358e","","","","","",""
"","image-keyboard-response","37","188918","0.0-5.0-12.0-0.0","838.1999999992549","","","https://ziweizhang0304.github.io/Stats_learning_trig/img/Stim/FN_016_g.png","13","","","","","","","","","","","","","","","","","",""
"","animation","38","193341","0.0-5.0-12.0-1.0","","","","","","[{""stimulus"":""https://ziweizhang0304.github.io/Stats_learning_trig/img/Stim/FN_007_g.png"",""time"":341.5},{""stimulus"":""blank"",""time"":641.8999999985099},{""stimulus"":""https://ziweizhang0304.github.io/Stats_learning_trig/img/Stim/FN_005_g.png"",""time"":681.0999999977648},{""stimulus"":""blank"",""time"":982},{""stimulus"":""https://ziweizhang0304.github.io/Stats_learning_trig/img/Stim/FN_002_g.png"",""time"":1021.5999999977648},{""stimulus"":""blank"",""time"":1322.300000000745},{""stimulus"":""https://ziweizhang0304.github.io/Stats_learning_trig/img/Stim/FN_004_g.png"",""time"":1361.5},{""stimulus"":""blank"",""time"":1662},{""stimulus"":""https://ziweizhang0304.github.io/Stats_learning_trig/img/Stim/FN_001_g.png"",""time"":1701.300000000745},{""stimulus"":""blank"",""time"":2002.0999999977648},{""stimulus"":""https://ziweizhang0304.github.io/Stats_learning_trig/img/Stim/FN_008_g.png"",""time"":2041.3999999985099},{""stimulus"":""blank"",""time"":2342.099999997765},{""stimulus"":""https://ziweizhang0304.github.io/Stats_learning_trig/img/Stim/FN_016_g.png"",""time"":2381.599999997765},{""stimulus"":""blank"",""time"":2682.300000000745},{""stimulus"":""https://ziweizhang0304.github.io/Stats_learning_trig/img/Stim/FN_003_g.png"",""time"":2721.39999999851},{""stimulus"":""blank"",""time"":3021.89999999851},{""stimulus"":""https://ziweizhang0304.github.io/Stats_learning_trig/img/Stim/FN_009_g.png"",""time"":3061},{""stimulus"":""blank"",""time"":3361.699999999255},{""stimulus"":""https://ziweizhang0304.github.io/Stats_learning_trig/img/Stim/FN_026_g.png"",""time"":3401.39999999851},{""stimulus"":""blank"",""time"":3702.099999997765},{""stimulus"":""https://ziweizhang0304.github.io/Stats_learning_trig/img/Stim/FN_011_g.png"",""time"":3741.300000000745},{""stimulus"":""blank"",""time"":4041.800000000745},{""stimulus"":""https://ziweizhang0304.github.io/Stats_learning_trig/img/Stim/FN_019_g.png"",""time"":4081.800000000745},{""stimulus"":""blank"",""time"":4382.300000000745}]","[{""key_press"":32,""rt"":2414.300000000745,""stimulus"":""https://ziweizhang0304.github.io/Stats_learning_trig/img/Stim/FN_016_g.png""}]","32.70000000298023","https://ziweizhang0304.github.io/Stats_learning_trig/img/Stim/FN_016_g.png","post_TD","13","2381.599999997765","2414.300000000745","slow","7","2","5e445469951000017c34358e","","","","","",""
"","image-keyboard-response","39","194177","0.0-5.0-13.0-0.0","831.1999999992549","","","https://ziweizhang0304.github.io/Stats_learning_trig/img/Stim/FN_003_g.png","13","","","","","","","","","","","","","","","","","",""
"","animation","40","198598","0.0-5.0-13.0-1.0","","","","","","[{""stimulus"":""https://ziweizhang0304.github.io/Stats_learning_trig/img/Stim/FN_004_g.png"",""time"":341.6000000014901},{""stimulus"":""blank"",""time"":642},{""stimulus"":""https://ziweizhang0304.github.io/Stats_learning_trig/img/Stim/FN_005_g.png"",""time"":681.8000000007451},{""stimulus"":""blank"",""time"":982.3000000007451},{""stimulus"":""https://ziweizhang0304.github.io/Stats_learning_trig/img/Stim/FN_026_g.png"",""time"":1021.5},{""stimulus"":""blank"",""time"":1322.300000000745},{""stimulus"":""https://ziweizhang0304.github.io/Stats_learning_trig/img/Stim/FN_008_g.png"",""time"":1361.4000000022352},{""stimulus"":""blank"",""time"":1662.1000000014901},{""stimulus"":""https://ziweizhang0304.github.io/Stats_learning_trig/img/Stim/FN_016_g.png"",""time"":1701.199999999255},{""stimulus"":""blank"",""time"":2001.6000000014901},{""stimulus"":""https://ziweizhang0304.github.io/Stats_learning_trig/img/Stim/FN_003_g.png"",""time"":2041.300000000745},{""stimulus"":""blank"",""time"":2342},{""stimulus"":""https://ziweizhang0304.github.io/Stats_learning_trig/img/Stim/FN_009_g.png"",""time"":2381.5},{""stimulus"":""blank"",""time"":2682.10000000149},{""stimulus"":""https://ziweizhang0304.github.io/Stats_learning_trig/img/Stim/FN_007_g.png"",""time"":2721.10000000149},{""stimulus"":""blank"",""time"":3021.699999999255},{""stimulus"":""https://ziweizhang0304.github.io/Stats_learning_trig/img/Stim/FN_001_g.png"",""time"":3061.400000002235},{""stimulus"":""blank"",""time"":3361.800000000745},{""stimulus"":""https://ziweizhang0304.github.io/Stats_learning_trig/img/Stim/FN_011_g.png"",""time"":3401.5},{""stimulus"":""blank"",""time"":3702.10000000149},{""stimulus"":""https://ziweizhang0304.github.io/Stats_learning_trig/img/Stim/FN_019_g.png"",""time"":3741.60000000149},{""stimulus"":""blank"",""time"":4042.400000002235},{""stimulus"":""https://ziweizhang0304.github.io/Stats_learning_trig/img/Stim/FN_002_g.png"",""time"":4081.800000000745},{""stimulus"":""blank"",""time"":4382.5}]","[{""key_press"":32,""rt"":2414.60000000149,""stimulus"":""https://ziweizhang0304.github.io/Stats_learning_trig/img/Stim/FN_009_g.png""}]","373.30000000074506","https://ziweizhang0304.github.io/Stats_learning_trig/img/Stim/FN_003_g.png","post_TD","14","2041.300000000745","2414.60000000149","slow","6","3","5e445469951000017c34358e","","","","","",""
"","image-keyboard-response","41","199507","0.0-5.0-14.0-0.0","903.5999999977648","","","https://ziweizhang0304.github.io/Stats_learning_trig/img/Stim/FN_017_g.png","13","","","","","","","","","","","","","","","","","",""
"","animation","42","203928","0.0-5.0-14.0-1.0","","","","","","[{""stimulus"":""https://ziweizhang0304.github.io/Stats_learning_trig/img/Stim/FN_026_g.png"",""time"":341.3999999985099},{""stimulus"":""blank"",""time"":642.1000000014901},{""stimulus"":""https://ziweizhang0304.github.io/Stats_learning_trig/img/Stim/FN_001_g.png"",""time"":681.1000000014901},{""stimulus"":""blank"",""time"":982},{""stimulus"":""https://ziweizhang0304.github.io/Stats_learning_trig/img/Stim/FN_004_g.png"",""time"":1021.1999999992549},{""stimulus"":""blank"",""time"":1321.6000000014901},{""stimulus"":""https://ziweizhang0304.github.io/Stats_learning_trig/img/Stim/FN_002_g.png"",""time"":1361.199999999255},{""stimulus"":""blank"",""time"":1661.800000000745},{""stimulus"":""https://ziweizhang0304.github.io/Stats_learning_trig/img/Stim/FN_019_g.png"",""time"":1701.199999999255},{""stimulus"":""blank"",""time"":2001.6000000014901},{""stimulus"":""https://ziweizhang0304.github.io/Stats_learning_trig/img/Stim/FN_009_g.png"",""time"":2041.300000000745},{""stimulus"":""blank"",""time"":2341.89999999851},{""stimulus"":""https://ziweizhang0304.github.io/Stats_learning_trig/img/Stim/FN_018_g.png"",""time"":2381.39999999851},{""stimulus"":""blank"",""time"":2681.89999999851},{""stimulus"":""https://ziweizhang0304.github.io/Stats_learning_trig/img/Stim/FN_017_g.png"",""time"":2721},{""stimulus"":""blank"",""time"":3021.5},{""stimulus"":""https://ziweizhang0304.github.io/Stats_learning_trig/img/Stim/FN_021_g.png"",""time"":3061},{""stimulus"":""blank"",""time"":3361.699999999255},{""stimulus"":""https://ziweizhang0304.github.io/Stats_learning_trig/img/Stim/FN_007_g.png"",""time"":3401.10000000149},{""stimulus"":""blank"",""time"":3701.5},{""stimulus"":""https://ziweizhang0304.github.io/Stats_learning_trig/img/Stim/FN_011_g.png"",""time"":3741.199999999255},{""stimulus"":""blank"",""time"":4041.699999999255},{""stimulus"":""https://ziweizhang0304.github.io/Stats_learning_trig/img/Stim/FN_005_g.png"",""time"":4080.89999999851},{""stimulus"":""blank"",""time"":4381.39999999851}]","[{""key_press"":32,""rt"":2945,""stimulus"":""https://ziweizhang0304.github.io/Stats_learning_trig/img/Stim/FN_017_g.png""}]","224","https://ziweizhang0304.github.io/Stats_learning_trig/img/Stim/FN_017_g.png","post_TD","15","2721","2945","fast","8","2","5e445469951000017c34358e","","","","","",""
"","image-keyboard-response","43","204670","0.0-5.0-15.0-0.0","738.1999999992549","","","https://ziweizhang0304.github.io/Stats_learning_trig/img/Stim/FN_008_g.png","13","","","","","","","","","","","","","","","","","",""
"","animation","44","209091","0.0-5.0-15.0-1.0","","","","","","[{""stimulus"":""https://ziweizhang0304.github.io/Stats_learning_trig/img/Stim/FN_009_g.png"",""time"":341.5999999977648},{""stimulus"":""blank"",""time"":642.0999999977648},{""stimulus"":""https://ziweizhang0304.github.io/Stats_learning_trig/img/Stim/FN_002_g.png"",""time"":681.5999999977648},{""stimulus"":""blank"",""time"":982.0999999977648},{""stimulus"":""https://ziweizhang0304.github.io/Stats_learning_trig/img/Stim/FN_007_g.png"",""time"":1021.5},{""stimulus"":""blank"",""time"":1322.0999999977648},{""stimulus"":""https://ziweizhang0304.github.io/Stats_learning_trig/img/Stim/FN_011_g.png"",""time"":1361.5},{""stimulus"":""blank"",""time"":1662.0999999977648},{""stimulus"":""https://ziweizhang0304.github.io/Stats_learning_trig/img/Stim/FN_001_g.png"",""time"":1701.3999999985099},{""stimulus"":""blank"",""time"":2002},{""stimulus"":""https://ziweizhang0304.github.io/Stats_learning_trig/img/Stim/FN_004_g.png"",""time"":2041.7999999970198},{""stimulus"":""blank"",""time"":2342.7999999970198},{""stimulus"":""https://ziweizhang0304.github.io/Stats_learning_trig/img/Stim/FN_008_g.png"",""time"":2381.39999999851},{""stimulus"":""blank"",""time"":2682.199999999255},{""stimulus"":""https://ziweizhang0304.github.io/Stats_learning_trig/img/Stim/FN_016_g.png"",""time"":2721.199999999255},{""stimulus"":""blank"",""time"":3021.699999999255},{""stimulus"":""https://ziweizhang0304.github.io/Stats_learning_trig/img/Stim/FN_003_g.png"",""time"":3061.599999997765},{""stimulus"":""blank"",""time"":3362.099999997765},{""stimulus"":""https://ziweizhang0304.github.io/Stats_learning_trig/img/Stim/FN_026_g.png"",""time"":3401.2999999970198},{""stimulus"":""blank"",""time"":3702.099999997765},{""stimulus"":""https://ziweizhang0304.github.io/Stats_learning_trig/img/Stim/FN_019_g.png"",""time"":3741.5},{""stimulus"":""blank"",""time"":4042.199999999255},{""stimulus"":""https://ziweizhang0304.github.io/Stats_learning_trig/img/Stim/FN_005_g.png"",""time"":4081.5},{""stimulus"":""blank"",""time"":4382.099999997765}]","[{""key_press"":32,""rt"":2768.60000000149,""stimulus"":""https://ziweizhang0304.github.io/Stats_learning_trig/img/Stim/FN_016_g.png""}]","387.20000000298023","https://ziweizhang0304.github.io/Stats_learning_trig/img/Stim/FN_008_g.png","post_TD","16","2381.39999999851","2768.60000000149","slow","7","1","5e445469951000017c34358e","","","","","",""
"","image-keyboard-response","45","209738","0.0-5.0-16.0-0.0","643.4000000022352","","","https://ziweizhang0304.github.io/Stats_learning_trig/img/Stim/FN_008_g.png","13","","","","","","","","","","","","","","","","","",""
"","animation","46","214159","0.0-5.0-16.0-1.0","","","","","","[{""stimulus"":""https://ziweizhang0304.github.io/Stats_learning_trig/img/Stim/FN_007_g.png"",""time"":342},{""stimulus"":""blank"",""time"":642.5},{""stimulus"":""https://ziweizhang0304.github.io/Stats_learning_trig/img/Stim/FN_005_g.png"",""time"":681.3999999985099},{""stimulus"":""blank"",""time"":982},{""stimulus"":""https://ziweizhang0304.github.io/Stats_learning_trig/img/Stim/FN_002_g.png"",""time"":1021.3999999985099},{""stimulus"":""blank"",""time"":1321.800000000745},{""stimulus"":""https://ziweizhang0304.github.io/Stats_learning_trig/img/Stim/FN_004_g.png"",""time"":1361.3999999985099},{""stimulus"":""blank"",""time"":1662.1000000014901},{""stimulus"":""https://ziweizhang0304.github.io/Stats_learning_trig/img/Stim/FN_001_g.png"",""time"":1701.3999999985099},{""stimulus"":""blank"",""time"":2001.8999999985099},{""stimulus"":""https://ziweizhang0304.github.io/Stats_learning_trig/img/Stim/FN_008_g.png"",""time"":2041.699999999255},{""stimulus"":""blank"",""time"":2342.60000000149},{""stimulus"":""https://ziweizhang0304.github.io/Stats_learning_trig/img/Stim/FN_016_g.png"",""time"":2381.10000000149},{""stimulus"":""blank"",""time"":2681.60000000149},{""stimulus"":""https://ziweizhang0304.github.io/Stats_learning_trig/img/Stim/FN_003_g.png"",""time"":2721.300000000745},{""stimulus"":""blank"",""time"":3021.89999999851},{""stimulus"":""https://ziweizhang0304.github.io/Stats_learning_trig/img/Stim/FN_009_g.png"",""time"":3061.300000000745},{""stimulus"":""blank"",""time"":3361.800000000745},{""stimulus"":""https://ziweizhang0304.github.io/Stats_learning_trig/img/Stim/FN_026_g.png"",""time"":3401.39999999851},{""stimulus"":""blank"",""time"":3702},{""stimulus"":""https://ziweizhang0304.github.io/Stats_learning_trig/img/Stim/FN_011_g.png"",""time"":3741.39999999851},{""stimulus"":""blank"",""time"":4041.89999999851},{""stimulus"":""https://ziweizhang0304.github.io/Stats_learning_trig/img/Stim/FN_019_g.png"",""time"":4081.10000000149},{""stimulus"":""blank"",""time"":4381.39999999851}]","[{""key_press"":32,""rt"":2413.400000002235,""stimulus"":""https://ziweizhang0304.github.io/Stats_learning_trig/img/Stim/FN_016_g.png""}]","371.70000000298023","https://ziweizhang0304.github.io/Stats_learning_trig/img/Stim/FN_008_g.png","post_TD","17","2041.699999999255","2413.400000002235","slow","6","1","5e445469951000017c34358e","","","","","",""
"","image-keyboard-response","47","214891","0.0-5.0-17.0-0.0","728.5999999977648","","","https://ziweizhang0304.github.io/Stats_learning_trig/img/Stim/FN_021_g.png","13","","","","","","","","","","","","","","","","","",""
"","animation","48","219313","0.0-5.0-17.0-1.0","","","","","","[{""stimulus"":""https://ziweizhang0304.github.io/Stats_learning_trig/img/Stim/FN_009_g.png"",""time"":341.6000000014901},{""stimulus"":""blank"",""time"":641.9000000022352},{""stimulus"":""https://ziweizhang0304.github.io/Stats_learning_trig/img/Stim/FN_011_g.png"",""time"":681.3000000007451},{""stimulus"":""blank"",""time"":981.8000000007451},{""stimulus"":""https://ziweizhang0304.github.io/Stats_learning_trig/img/Stim/FN_002_g.png"",""time"":1021.5},{""stimulus"":""blank"",""time"":1323.2000000029802},{""stimulus"":""https://ziweizhang0304.github.io/Stats_learning_trig/img/Stim/FN_018_g.png"",""time"":1361.4000000022352},{""stimulus"":""blank"",""time"":1661.9000000022352},{""stimulus"":""https://ziweizhang0304.github.io/Stats_learning_trig/img/Stim/FN_017_g.png"",""time"":1701.300000000745},{""stimulus"":""blank"",""time"":2001.800000000745},{""stimulus"":""https://ziweizhang0304.github.io/Stats_learning_trig/img/Stim/FN_021_g.png"",""time"":2041.300000000745},{""stimulus"":""blank"",""time"":2342.300000000745},{""stimulus"":""https://ziweizhang0304.github.io/Stats_learning_trig/img/Stim/FN_026_g.png"",""time"":2381.300000000745},{""stimulus"":""blank"",""time"":2681.900000002235},{""stimulus"":""https://ziweizhang0304.github.io/Stats_learning_trig/img/Stim/FN_007_g.png"",""time"":2721.400000002235},{""stimulus"":""blank"",""time"":3021.800000000745},{""stimulus"":""https://ziweizhang0304.github.io/Stats_learning_trig/img/Stim/FN_004_g.png"",""time"":3061.300000000745},{""stimulus"":""blank"",""time"":3362},{""stimulus"":""https://ziweizhang0304.github.io/Stats_learning_trig/img/Stim/FN_001_g.png"",""time"":3401.300000000745},{""stimulus"":""blank"",""time"":3701.7000000029802},{""stimulus"":""https://ziweizhang0304.github.io/Stats_learning_trig/img/Stim/FN_019_g.png"",""time"":3741.300000000745},{""stimulus"":""blank"",""time"":4041.800000000745},{""stimulus"":""https://ziweizhang0304.github.io/Stats_learning_trig/img/Stim/FN_005_g.png"",""time"":4081.400000002235},{""stimulus"":""blank"",""time"":4382.5}]","[{""key_press"":32,""rt"":2408.699999999255,""stimulus"":""https://ziweizhang0304.github.io/Stats_learning_trig/img/Stim/FN_026_g.png""}]","367.3999999985099","https://ziweizhang0304.github.io/Stats_learning_trig/img/Stim/FN_021_g.png","post_TD","18","2041.300000000745","2408.699999999255","fast","6","3","5e445469951000017c34358e","","","","","",""
"","image-keyboard-response","49","219952","0.0-5.0-18.0-0.0","633.8999999985099","","","https://ziweizhang0304.github.io/Stats_learning_trig/img/Stim/FN_003_g.png","13","","","","","","","","","","","","","","","","","",""
"","animation","50","224374","0.0-5.0-18.0-1.0","","","","","","[{""stimulus"":""https://ziweizhang0304.github.io/Stats_learning_trig/img/Stim/FN_009_g.png"",""time"":341.70000000298023},{""stimulus"":""blank"",""time"":642.6000000014901},{""stimulus"":""https://ziweizhang0304.github.io/Stats_learning_trig/img/Stim/FN_002_g.png"",""time"":681.5},{""stimulus"":""blank"",""time"":981.8000000007451},{""stimulus"":""https://ziweizhang0304.github.io/Stats_learning_trig/img/Stim/FN_007_g.png"",""time"":1021.2000000029802},{""stimulus"":""blank"",""time"":1322},{""stimulus"":""https://ziweizhang0304.github.io/Stats_learning_trig/img/Stim/FN_011_g.png"",""time"":1361.300000000745},{""stimulus"":""blank"",""time"":1662.1000000014901},{""stimulus"":""https://ziweizhang0304.github.io/Stats_learning_trig/img/Stim/FN_001_g.png"",""time"":1701.6000000014901},{""stimulus"":""blank"",""time"":2002.2000000029802},{""stimulus"":""https://ziweizhang0304.github.io/Stats_learning_trig/img/Stim/FN_004_g.png"",""time"":2041.300000000745},{""stimulus"":""blank"",""time"":2341.800000000745},{""stimulus"":""https://ziweizhang0304.github.io/Stats_learning_trig/img/Stim/FN_008_g.png"",""time"":2381.7000000029802},{""stimulus"":""blank"",""time"":2682.10000000149},{""stimulus"":""https://ziweizhang0304.github.io/Stats_learning_trig/img/Stim/FN_016_g.png"",""time"":2721.300000000745},{""stimulus"":""blank"",""time"":3021.800000000745},{""stimulus"":""https://ziweizhang0304.github.io/Stats_learning_trig/img/Stim/FN_003_g.png"",""time"":3061.300000000745},{""stimulus"":""blank"",""time"":3361.900000002235},{""stimulus"":""https://ziweizhang0304.github.io/Stats_learning_trig/img/Stim/FN_026_g.png"",""time"":3401.2000000029802},{""stimulus"":""blank"",""time"":3701.800000000745},{""stimulus"":""https://ziweizhang0304.github.io/Stats_learning_trig/img/Stim/FN_019_g.png"",""time"":3741.400000002235},{""stimulus"":""blank"",""time"":4042.10000000149},{""stimulus"":""https://ziweizhang0304.github.io/Stats_learning_trig/img/Stim/FN_005_g.png"",""time"":4081.7000000029802},{""stimulus"":""blank"",""time"":4382.400000002235}]","[{""key_press"":32,""rt"":3425.599999997765,""stimulus"":""https://ziweizhang0304.github.io/Stats_learning_trig/img/Stim/FN_026_g.png""}]","364.29999999701977","https://ziweizhang0304.github.io/Stats_learning_trig/img/Stim/FN_003_g.png","post_TD","19","3061.300000000745","3425.599999997765","slow","9","3","5e445469951000017c34358e","","","","","",""
"","image-keyboard-response","51","224918","0.0-5.0-19.0-0.0","539.3000000007451","","","https://ziweizhang0304.github.io/Stats_learning_trig/img/Stim/FN_017_g.png","13","","","","","","","","","","","","","","","","","",""
"","animation","52","229339","0.0-5.0-19.0-1.0","","","","","","[{""stimulus"":""https://ziweizhang0304.github.io/Stats_learning_trig/img/Stim/FN_009_g.png"",""time"":341.80000000074506},{""stimulus"":""blank"",""time"":642.7000000029802},{""stimulus"":""https://ziweizhang0304.github.io/Stats_learning_trig/img/Stim/FN_011_g.png"",""time"":681.3000000007451},{""stimulus"":""blank"",""time"":982},{""stimulus"":""https://ziweizhang0304.github.io/Stats_learning_trig/img/Stim/FN_002_g.png"",""time"":1021.5},{""stimulus"":""blank"",""time"":1322.2000000029802},{""stimulus"":""https://ziweizhang0304.github.io/Stats_learning_trig/img/Stim/FN_018_g.png"",""time"":1361.4000000022352},{""stimulus"":""blank"",""time"":1661.9000000022352},{""stimulus"":""https://ziweizhang0304.github.io/Stats_learning_trig/img/Stim/FN_017_g.png"",""time"":1701.5},{""stimulus"":""blank"",""time"":2002.300000000745},{""stimulus"":""https://ziweizhang0304.github.io/Stats_learning_trig/img/Stim/FN_021_g.png"",""time"":2041.4000000022352},{""stimulus"":""blank"",""time"":2341.900000002235},{""stimulus"":""https://ziweizhang0304.github.io/Stats_learning_trig/img/Stim/FN_026_g.png"",""time"":2381.400000002235},{""stimulus"":""blank"",""time"":2682.10000000149},{""stimulus"":""https://ziweizhang0304.github.io/Stats_learning_trig/img/Stim/FN_007_g.png"",""time"":2721.2000000029802},{""stimulus"":""blank"",""time"":3021.7000000029802},{""stimulus"":""https://ziweizhang0304.github.io/Stats_learning_trig/img/Stim/FN_004_g.png"",""time"":3061.400000002235},{""stimulus"":""blank"",""time"":3362},{""stimulus"":""https://ziweizhang0304.github.io/Stats_learning_trig/img/Stim/FN_001_g.png"",""time"":3401.400000002235},{""stimulus"":""blank"",""time"":3702.2000000029802},{""stimulus"":""https://ziweizhang0304.github.io/Stats_learning_trig/img/Stim/FN_019_g.png"",""time"":3741.5},{""stimulus"":""blank"",""time"":4042},{""stimulus"":""https://ziweizhang0304.github.io/Stats_learning_trig/img/Stim/FN_005_g.png"",""time"":4081.300000000745},{""stimulus"":""blank"",""time"":4382}]","[{""key_press"":32,""rt"":2110.199999999255,""stimulus"":""https://ziweizhang0304.github.io/Stats_learning_trig/img/Stim/FN_021_g.png""}]","408.69999999925494","https://ziweizhang0304.github.io/Stats_learning_trig/img/Stim/FN_017_g.png","post_TD","20","1701.5","2110.199999999255","fast","5","2","5e445469951000017c34358e","","","","","",""
"","image-keyboard-response","53","229857","0.0-5.0-20.0-0.0","514.3999999985099","","","https://ziweizhang0304.github.io/Stats_learning_trig/img/Stim/FN_016_g.png","13","","","","","","","","","","","","","","","","","",""
"","animation","54","234279","0.0-5.0-20.0-1.0","","","","","","[{""stimulus"":""https://ziweizhang0304.github.io/Stats_learning_trig/img/Stim/FN_004_g.png"",""time"":341.5999999977648},{""stimulus"":""blank"",""time"":642.5999999977648},{""stimulus"":""https://ziweizhang0304.github.io/Stats_learning_trig/img/Stim/FN_005_g.png"",""time"":681.5999999977648},{""stimulus"":""blank"",""time"":982.0999999977648},{""stimulus"":""https://ziweizhang0304.github.io/Stats_learning_trig/img/Stim/FN_026_g.png"",""time"":1021.0999999977648},{""stimulus"":""blank"",""time"":1322.199999999255},{""stimulus"":""https://ziweizhang0304.github.io/Stats_learning_trig/img/Stim/FN_008_g.png"",""time"":1361.3999999985099},{""stimulus"":""blank"",""time"":1661.8999999985099},{""stimulus"":""https://ziweizhang0304.github.io/Stats_learning_trig/img/Stim/FN_016_g.png"",""time"":1701.5},{""stimulus"":""blank"",""time"":2001.800000000745},{""stimulus"":""https://ziweizhang0304.github.io/Stats_learning_trig/img/Stim/FN_003_g.png"",""time"":2041.3999999985099},{""stimulus"":""blank"",""time"":2341.800000000745},{""stimulus"":""https://ziweizhang0304.github.io/Stats_learning_trig/img/Stim/FN_009_g.png"",""time"":2381.300000000745},{""stimulus"":""blank"",""time"":2681.800000000745},{""stimulus"":""https://ziweizhang0304.github.io/Stats_learning_trig/img/Stim/FN_007_g.png"",""time"":2721.39999999851},{""stimulus"":""blank"",""time"":3021.89999999851},{""stimulus"":""https://ziweizhang0304.github.io/Stats_learning_trig/img/Stim/FN_001_g.png"",""time"":3061.5},{""stimulus"":""blank"",""time"":3361.800000000745},{""stimulus"":""https://ziweizhang0304.github.io/Stats_learning_trig/img/Stim/FN_011_g.png"",""time"":3401.5},{""stimulus"":""blank"",""time"":3701.699999999255},{""stimulus"":""https://ziweizhang0304.github.io/Stats_learning_trig/img/Stim/FN_019_g.png"",""time"":3741.39999999851},{""stimulus"":""blank"",""time"":4041.89999999851},{""stimulus"":""https://ziweizhang0304.github.io/Stats_learning_trig/img/Stim/FN_002_g.png"",""time"":4081.5},{""stimulus"":""blank"",""time"":4382}]","[{""key_press"":32,""rt"":2023.1000000014901,""stimulus"":""blank""}]","321.6000000014901","https://ziweizhang0304.github.io/Stats_learning_trig/img/Stim/FN_016_g.png","post_TD","21","1701.5","2023.1000000014901","slow","5","2","5e445469951000017c34358e","","","","","",""
"","image-keyboard-response","55","234800","0.0-5.0-21.0-0.0","517.5999999977648","","","https://ziweizhang0304.github.io/Stats_learning_trig/img/Stim/FN_018_g.png","13","","","","","","","","","","","","","","","","","",""
"","animation","56","239221","0.0-5.0-21.0-1.0","","","","","","[{""stimulus"":""https://ziweizhang0304.github.io/Stats_learning_trig/img/Stim/FN_009_g.png"",""time"":341.5},{""stimulus"":""blank"",""time"":642.1999999992549},{""stimulus"":""https://ziweizhang0304.github.io/Stats_learning_trig/img/Stim/FN_011_g.png"",""time"":681.3999999985099},{""stimulus"":""blank"",""time"":982},{""stimulus"":""https://ziweizhang0304.github.io/Stats_learning_trig/img/Stim/FN_002_g.png"",""time"":1021.0999999977648},{""stimulus"":""blank"",""time"":1321.5999999977648},{""stimulus"":""https://ziweizhang0304.github.io/Stats_learning_trig/img/Stim/FN_018_g.png"",""time"":1361.3999999985099},{""stimulus"":""blank"",""time"":1661.8999999985099},{""stimulus"":""https://ziweizhang0304.github.io/Stats_learning_trig/img/Stim/FN_017_g.png"",""time"":1701.300000000745},{""stimulus"":""blank"",""time"":2002.3999999985099},{""stimulus"":""https://ziweizhang0304.github.io/Stats_learning_trig/img/Stim/FN_021_g.png"",""time"":2041.699999999255},{""stimulus"":""blank"",""time"":2342.199999999255},{""stimulus"":""https://ziweizhang0304.github.io/Stats_learning_trig/img/Stim/FN_026_g.png"",""time"":2381.5},{""stimulus"":""blank"",""time"":2682.099999997765},{""stimulus"":""https://ziweizhang0304.github.io/Stats_learning_trig/img/Stim/FN_007_g.png"",""time"":2721.300000000745},{""stimulus"":""blank"",""time"":3021.89999999851},{""stimulus"":""https://ziweizhang0304.github.io/Stats_learning_trig/img/Stim/FN_004_g.png"",""time"":3061.300000000745},{""stimulus"":""blank"",""time"":3362.5},{""stimulus"":""https://ziweizhang0304.github.io/Stats_learning_trig/img/Stim/FN_001_g.png"",""time"":3401.39999999851},{""stimulus"":""blank"",""time"":3702.199999999255},{""stimulus"":""https://ziweizhang0304.github.io/Stats_learning_trig/img/Stim/FN_019_g.png"",""time"":3741.39999999851},{""stimulus"":""blank"",""time"":4042},{""stimulus"":""https://ziweizhang0304.github.io/Stats_learning_trig/img/Stim/FN_005_g.png"",""time"":4081.699999999255},{""stimulus"":""blank"",""time"":4382.199999999255}]","[{""key_press"":32,""rt"":1816.699999999255,""stimulus"":""https://ziweizhang0304.github.io/Stats_learning_trig/img/Stim/FN_017_g.png""}]","455.30000000074506","https://ziweizhang0304.github.io/Stats_learning_trig/img/Stim/FN_018_g.png","post_TD","22","1361.3999999985099","1816.699999999255","fast","4","1","5e445469951000017c34358e","","","","","",""
"","image-keyboard-response","57","239739","0.0-5.0-22.0-0.0","514.1000000014901","","","https://ziweizhang0304.github.io/Stats_learning_trig/img/Stim/FN_021_g.png","13","","","","","","","","","","","","","","","","","",""
"","animation","58","244160","0.0-5.0-22.0-1.0","","","","","","[{""stimulus"":""https://ziweizhang0304.github.io/Stats_learning_trig/img/Stim/FN_026_g.png"",""time"":341.0999999977648},{""stimulus"":""blank"",""time"":641.5999999977648},{""stimulus"":""https://ziweizhang0304.github.io/Stats_learning_trig/img/Stim/FN_001_g.png"",""time"":681.1999999992549},{""stimulus"":""blank"",""time"":981.6999999992549},{""stimulus"":""https://ziweizhang0304.github.io/Stats_learning_trig/img/Stim/FN_004_g.png"",""time"":1021.8999999985099},{""stimulus"":""blank"",""time"":1322.199999999255},{""stimulus"":""https://ziweizhang0304.github.io/Stats_learning_trig/img/Stim/FN_002_g.png"",""time"":1361.300000000745},{""stimulus"":""blank"",""time"":1661.699999999255},{""stimulus"":""https://ziweizhang0304.github.io/Stats_learning_trig/img/Stim/FN_019_g.png"",""time"":1701.5},{""stimulus"":""blank"",""time"":2002.0999999977648},{""stimulus"":""https://ziweizhang0304.github.io/Stats_learning_trig/img/Stim/FN_009_g.png"",""time"":2041.300000000745},{""stimulus"":""blank"",""time"":2342.099999997765},{""stimulus"":""https://ziweizhang0304.github.io/Stats_learning_trig/img/Stim/FN_018_g.png"",""time"":2381.5},{""stimulus"":""blank"",""time"":2682.199999999255},{""stimulus"":""https://ziweizhang0304.github.io/Stats_learning_trig/img/Stim/FN_017_g.png"",""time"":2721.39999999851},{""stimulus"":""blank"",""time"":3022},{""stimulus"":""https://ziweizhang0304.github.io/Stats_learning_trig/img/Stim/FN_021_g.png"",""time"":3061.300000000745},{""stimulus"":""blank"",""time"":3361.89999999851},{""stimulus"":""https://ziweizhang0304.github.io/Stats_learning_trig/img/Stim/FN_007_g.png"",""time"":3401.39999999851},{""stimulus"":""blank"",""time"":3702},{""stimulus"":""https://ziweizhang0304.github.io/Stats_learning_trig/img/Stim/FN_011_g.png"",""time"":3741.39999999851},{""stimulus"":""blank"",""time"":4042.599999997765},{""stimulus"":""https://ziweizhang0304.github.io/Stats_learning_trig/img/Stim/FN_005_g.png"",""time"":4081.39999999851},{""stimulus"":""blank"",""time"":4382.099999997765}]","[{""key_press"":32,""rt"":3357.699999999255,""stimulus"":""https://ziweizhang0304.github.io/Stats_learning_trig/img/Stim/FN_021_g.png""}]","296.3999999985099","https://ziweizhang0304.github.io/Stats_learning_trig/img/Stim/FN_021_g.png","post_TD","23","3061.300000000745","3357.699999999255","fast","9","3","5e445469951000017c34358e","","","","","",""
"","image-keyboard-response","59","244758","0.0-5.0-23.0-0.0","592.1999999992549","","","https://ziweizhang0304.github.io/Stats_learning_trig/img/Stim/FN_008_g.png","13","","","","","","","","","","","","","","","","","",""
"","animation","60","249180","0.0-5.0-23.0-1.0","","","","","","[{""stimulus"":""https://ziweizhang0304.github.io/Stats_learning_trig/img/Stim/FN_004_g.png"",""time"":341.80000000074506},{""stimulus"":""blank"",""time"":642.4000000022352},{""stimulus"":""https://ziweizhang0304.github.io/Stats_learning_trig/img/Stim/FN_019_g.png"",""time"":681.5},{""stimulus"":""blank"",""time"":981.9000000022352},{""stimulus"":""https://ziweizhang0304.github.io/Stats_learning_trig/img/Stim/FN_002_g.png"",""time"":1021.9000000022352},{""stimulus"":""blank"",""time"":1322.300000000745},{""stimulus"":""https://ziweizhang0304.github.io/Stats_learning_trig/img/Stim/FN_005_g.png"",""time"":1361.800000000745},{""stimulus"":""blank"",""time"":1662.5},{""stimulus"":""https://ziweizhang0304.github.io/Stats_learning_trig/img/Stim/FN_008_g.png"",""time"":1701.9000000022352},{""stimulus"":""blank"",""time"":2002.300000000745},{""stimulus"":""https://ziweizhang0304.github.io/Stats_learning_trig/img/Stim/FN_016_g.png"",""time"":2041.699999999255},{""stimulus"":""blank"",""time"":2342.199999999255},{""stimulus"":""https://ziweizhang0304.github.io/Stats_learning_trig/img/Stim/FN_003_g.png"",""time"":2381},{""stimulus"":""blank"",""time"":2681.300000000745},{""stimulus"":""https://ziweizhang0304.github.io/Stats_learning_trig/img/Stim/FN_009_g.png"",""time"":2721.60000000149},{""stimulus"":""blank"",""time"":3021.800000000745},{""stimulus"":""https://ziweizhang0304.github.io/Stats_learning_trig/img/Stim/FN_026_g.png"",""time"":3061},{""stimulus"":""blank"",""time"":3361.300000000745},{""stimulus"":""https://ziweizhang0304.github.io/Stats_learning_trig/img/Stim/FN_007_g.png"",""time"":3401.699999999255},{""stimulus"":""blank"",""time"":3702.400000002235},{""stimulus"":""https://ziweizhang0304.github.io/Stats_learning_trig/img/Stim/FN_001_g.png"",""time"":3741.699999999255},{""stimulus"":""blank"",""time"":4042.400000002235},{""stimulus"":""https://ziweizhang0304.github.io/Stats_learning_trig/img/Stim/FN_011_g.png"",""time"":4081.400000002235},{""stimulus"":""blank"",""time"":4382}]","[{""key_press"":32,""rt"":2080.099999997765,""stimulus"":""https://ziweizhang0304.github.io/Stats_learning_trig/img/Stim/FN_016_g.png""}]","378.19999999552965","https://ziweizhang0304.github.io/Stats_learning_trig/img/Stim/FN_008_g.png","post_TD","24","1701.9000000022352","2080.099999997765","slow","5","1","5e445469951000017c34358e","88671","","","","",""
"","survey-text","61","268915","0.0-6.0","19710.099999997765","","","","","","","","","","","","","","","","","","{""Q0"":""Trying to remember different shapes or what set it apart""}","","","",""
"","survey-text","62","273044","0.0-7.0","4115.199999999255","","","","","","","","","","","","","","","","","","{""[object Object]"":""No""}","","","",""
"","instructions","63","274991","0.0-8.0","1943.1000000014901","","[{""page_index"":0,""viewing_time"":1942.3999999985099}]","","","","","","","","","","","","","","","","","","","",""
"","free-sort","64","291355","0.0-9.0","16360.10000000149","","","","","","","","","post_drag","","","","fast","","","","","","[{""src"":""https://ziweizhang0304.github.io/Stats_learning_trig/img/Stim/FN_018_g.png"",""x"":475,""y"":0},{""src"":""https://ziweizhang0304.github.io/Stats_learning_trig/img/Stim/FN_017_g.png"",""x"":-225,""y"":50},{""src"":""https://ziweizhang0304.github.io/Stats_learning_trig/img/Stim/FN_021_g.png"",""x"":475,""y"":50}]","[{""src"":""https://ziweizhang0304.github.io/Stats_learning_trig/img/Stim/FN_018_g.png"",""x"":400,""y"":-25},{""src"":""https://ziweizhang0304.github.io/Stats_learning_trig/img/Stim/FN_017_g.png"",""x"":52,""y"":12},{""src"":""https://ziweizhang0304.github.io/Stats_learning_trig/img/Stim/FN_018_g.png"",""x"":143,""y"":24},{""src"":""https://ziweizhang0304.github.io/Stats_learning_trig/img/Stim/FN_021_g.png"",""x"":250,""y"":19}]","[{""src"":""https://ziweizhang0304.github.io/Stats_learning_trig/img/Stim/FN_018_g.png"",""x"":143,""y"":24},{""src"":""https://ziweizhang0304.github.io/Stats_learning_trig/img/Stim/FN_017_g.png"",""x"":52,""y"":12},{""src"":""https://ziweizhang0304.github.io/Stats_learning_trig/img/Stim/FN_021_g.png"",""x"":250,""y"":19}]",""
"","free-sort","65","300521","0.0-10.0","9164.199999999255","","","","","","","","","post_drag","","","","slow","","","","","","[{""src"":""https://ziweizhang0304.github.io/Stats_learning_trig/img/Stim/FN_008_g.png"",""x"":475,""y"":0},{""src"":""https://ziweizhang0304.github.io/Stats_learning_trig/img/Stim/FN_016_g.png"",""x"":-225,""y"":50},{""src"":""https://ziweizhang0304.github.io/Stats_learning_trig/img/Stim/FN_003_g.png"",""x"":475,""y"":50}]","[{""src"":""https://ziweizhang0304.github.io/Stats_learning_trig/img/Stim/FN_016_g.png"",""x"":6,""y"":31},{""src"":""https://ziweizhang0304.github.io/Stats_learning_trig/img/Stim/FN_008_g.png"",""x"":91,""y"":20},{""src"":""https://ziweizhang0304.github.io/Stats_learning_trig/img/Stim/FN_003_g.png"",""x"":214,""y"":17}]","[{""src"":""https://ziweizhang0304.github.io/Stats_learning_trig/img/Stim/FN_008_g.png"",""x"":91,""y"":20},{""src"":""https://ziweizhang0304.github.io/Stats_learning_trig/img/Stim/FN_016_g.png"",""x"":6,""y"":31},{""src"":""https://ziweizhang0304.github.io/Stats_learning_trig/img/Stim/FN_003_g.png"",""x"":214,""y"":17}]",""
"","survey-multi-choice","66","310591","0.0-11.0","10062.89999999851","","","","","","","","","","","","","","","","5e445469951000017c34358e","","{""awareness"":""No"",""attention_check"":""Press SPACEBAR to a target""}","","","","[0,1]"
