"success","trial_type","trial_index","time_elapsed","internal_node_id","rt","url","view_history","stimulus","key_press","animation_sequence","response","TD_rt","TD_target","test_part","TD_trial_number","onset","offset","attention_state","TD_target_position","TD_within_triplet_counter","participant","yoke_participant","responses","init_locations","moves","final_locations","question_order"
"true","fullscreen","0","5076","0.0-0.0","","","","","","","","","","","","","","","","","","","","","","",""
"","external-html","1","11651","0.0-1.0","6392.899999976158","https://ziweizhang0304.github.io/Stats_learning_trig/content/consent.html","","","","","","","","","","","","","","","","","","","","",""
"","instructions","2","49732","0.0-2.0","38073.199999928474","","[{""page_index"":0,""viewing_time"":3268.5},{""page_index"":1,""viewing_time"":27264.099999904633},{""page_index"":2,""viewing_time"":5565.400000095367},{""page_index"":3,""viewing_time"":1974}]","","","","","","","","","","","","","","","","","","","",""
"","image-keyboard-response","3","53743","0.0-3.0-0.0-0.0","4009.600000023842","","","https://ziweizhang0304.github.io/Stats_learning_trig/img/Stim/FN_019_g.png","13","","","","","","","","","","","","","","","","","",""
"","animation","4","58165","0.0-3.0-0.0-1.0","","","","","","[{""stimulus"":""https://ziweizhang0304.github.io/Stats_learning_trig/img/Stim/FN_002_g.png"",""time"":357.10000002384186},{""stimulus"":""blank"",""time"":658.8000000715256},{""stimulus"":""https://ziweizhang0304.github.io/Stats_learning_trig/img/Stim/FN_024_g.png"",""time"":681.9000000953674},{""stimulus"":""blank"",""time"":982.2000000476837},{""stimulus"":""https://ziweizhang0304.github.io/Stats_learning_trig/img/Stim/FN_022_g.png"",""time"":1022.6000000238419},{""stimulus"":""blank"",""time"":1324.3000000715256},{""stimulus"":""https://ziweizhang0304.github.io/Stats_learning_trig/img/Stim/FN_026_g.png"",""time"":1361.8000000715256},{""stimulus"":""blank"",""time"":1663},{""stimulus"":""https://ziweizhang0304.github.io/Stats_learning_trig/img/Stim/FN_007_g.png"",""time"":1702.3000000715256},{""stimulus"":""blank"",""time"":2003.4000000953674},{""stimulus"":""https://ziweizhang0304.github.io/Stats_learning_trig/img/Stim/FN_019_g.png"",""time"":2041.6000000238419},{""stimulus"":""blank"",""time"":2342.2000000476837},{""stimulus"":""https://ziweizhang0304.github.io/Stats_learning_trig/img/Stim/FN_015_g.png"",""time"":2381.8000000715256},{""stimulus"":""blank"",""time"":2682.5},{""stimulus"":""https://ziweizhang0304.github.io/Stats_learning_trig/img/Stim/FN_021_g.png"",""time"":2721.600000023842},{""stimulus"":""blank"",""time"":3022.4000000953674},{""stimulus"":""https://ziweizhang0304.github.io/Stats_learning_trig/img/Stim/FN_011_g.png"",""time"":3062.100000023842},{""stimulus"":""blank"",""time"":3363.4000000953674},{""stimulus"":""https://ziweizhang0304.github.io/Stats_learning_trig/img/Stim/FN_020_g.png"",""time"":3401.7000000476837},{""stimulus"":""blank"",""time"":3702.9000000953674},{""stimulus"":""https://ziweizhang0304.github.io/Stats_learning_trig/img/Stim/FN_016_g.png"",""time"":3741.3000000715256},{""stimulus"":""blank"",""time"":4042.3000000715256},{""stimulus"":""https://ziweizhang0304.github.io/Stats_learning_trig/img/Stim/FN_013_g.png"",""time"":4082},{""stimulus"":""blank"",""time"":4382.400000095367}]","[{""key_press"":32,""rt"":2509.7000000476837,""stimulus"":""https://ziweizhang0304.github.io/Stats_learning_trig/img/Stim/FN_015_g.png""}]","468.10000002384186","https://ziweizhang0304.github.io/Stats_learning_trig/img/Stim/FN_019_g.png","post_prac","","","","","","","","","","","","",""
"","html-keyboard-response","5","117672","0.0-3.0-0.0-2.0","59498","","","<p>Your reaction time for this trial was 468.1 ms.</p><p>Remember that you should only press the SPACEBAR when you see the shape presented at the beginning of the trial. </b> </p><p>Press enter to move on.</p>","13","","","","","","","","","","","","","","","","","",""
"","image-keyboard-response","6","122630","0.0-3.0-1.0-0.0","4957","","","https://ziweizhang0304.github.io/Stats_learning_trig/img/Stim/FN_017_g.png","13","","","","","","","","","","","","","","","","","",""
"","animation","7","127052","0.0-3.0-1.0-1.0","","","","","","[{""stimulus"":""https://ziweizhang0304.github.io/Stats_learning_trig/img/Stim/FN_022_g.png"",""time"":341.7000000476837},{""stimulus"":""blank"",""time"":642.7000000476837},{""stimulus"":""https://ziweizhang0304.github.io/Stats_learning_trig/img/Stim/FN_020_g.png"",""time"":681.8999999761581},{""stimulus"":""blank"",""time"":983.1000000238419},{""stimulus"":""https://ziweizhang0304.github.io/Stats_learning_trig/img/Stim/FN_002_g.png"",""time"":1022},{""stimulus"":""blank"",""time"":1322.8999999761581},{""stimulus"":""https://ziweizhang0304.github.io/Stats_learning_trig/img/Stim/FN_021_g.png"",""time"":1361.6000000238419},{""stimulus"":""blank"",""time"":1663.2000000476837},{""stimulus"":""https://ziweizhang0304.github.io/Stats_learning_trig/img/Stim/FN_016_g.png"",""time"":1701.1000000238419},{""stimulus"":""blank"",""time"":2001.7999999523163},{""stimulus"":""https://ziweizhang0304.github.io/Stats_learning_trig/img/Stim/FN_017_g.png"",""time"":2041.3999999761581},{""stimulus"":""blank"",""time"":2342.5},{""stimulus"":""https://ziweizhang0304.github.io/Stats_learning_trig/img/Stim/FN_001_g.png"",""time"":2381.2999999523163},{""stimulus"":""blank"",""time"":2682.7999999523163},{""stimulus"":""https://ziweizhang0304.github.io/Stats_learning_trig/img/Stim/FN_014_g.png"",""time"":2721.5},{""stimulus"":""blank"",""time"":3022.7999999523163},{""stimulus"":""https://ziweizhang0304.github.io/Stats_learning_trig/img/Stim/FN_024_g.png"",""time"":3061.399999976158},{""stimulus"":""blank"",""time"":3362.7000000476837},{""stimulus"":""https://ziweizhang0304.github.io/Stats_learning_trig/img/Stim/FN_015_g.png"",""time"":3401.7999999523163},{""stimulus"":""blank"",""time"":3702.7000000476837},{""stimulus"":""https://ziweizhang0304.github.io/Stats_learning_trig/img/Stim/FN_007_g.png"",""time"":3741.100000023842},{""stimulus"":""blank"",""time"":4042.2999999523163},{""stimulus"":""https://ziweizhang0304.github.io/Stats_learning_trig/img/Stim/FN_011_g.png"",""time"":4081.100000023842},{""stimulus"":""blank"",""time"":4382}]","[{""key_press"":32,""rt"":2464.2999999523163,""stimulus"":""https://ziweizhang0304.github.io/Stats_learning_trig/img/Stim/FN_001_g.png""}]","422.89999997615814","https://ziweizhang0304.github.io/Stats_learning_trig/img/Stim/FN_017_g.png","post_prac","","","","","","","","","","","","",""
"","html-keyboard-response","8","131094","0.0-3.0-1.0-2.0","4037.2999999523163","","","<p>Your reaction time for this trial was 422.9 ms.</p><p>Remember that you should only press the SPACEBAR when you see the shape presented at the beginning of the trial. </b> </p><p>Press enter to move on.</p>","13","","","","","","","","","","","","","","","","","",""
"","image-keyboard-response","9","133711","0.0-3.0-2.0-0.0","2616.7000000476837","","","https://ziweizhang0304.github.io/Stats_learning_trig/img/Stim/FN_026_g.png","13","","","","","","","","","","","","","","","","","",""
"","animation","10","138133","0.0-3.0-2.0-1.0","","","","","","[{""stimulus"":""https://ziweizhang0304.github.io/Stats_learning_trig/img/Stim/FN_022_g.png"",""time"":341.89999997615814},{""stimulus"":""blank"",""time"":643.5},{""stimulus"":""https://ziweizhang0304.github.io/Stats_learning_trig/img/Stim/FN_015_g.png"",""time"":682.1000000238419},{""stimulus"":""blank"",""time"":983.3999999761581},{""stimulus"":""https://ziweizhang0304.github.io/Stats_learning_trig/img/Stim/FN_016_g.png"",""time"":1021.1999999284744},{""stimulus"":""blank"",""time"":1322.2999999523163},{""stimulus"":""https://ziweizhang0304.github.io/Stats_learning_trig/img/Stim/FN_024_g.png"",""time"":1361},{""stimulus"":""blank"",""time"":1662.1000000238419},{""stimulus"":""https://ziweizhang0304.github.io/Stats_learning_trig/img/Stim/FN_002_g.png"",""time"":1701.1000000238419},{""stimulus"":""blank"",""time"":2002.1999999284744},{""stimulus"":""https://ziweizhang0304.github.io/Stats_learning_trig/img/Stim/FN_021_g.png"",""time"":2040.8999999761581},{""stimulus"":""blank"",""time"":2342.5},{""stimulus"":""https://ziweizhang0304.github.io/Stats_learning_trig/img/Stim/FN_013_g.png"",""time"":2381.1999999284744},{""stimulus"":""blank"",""time"":2682.100000023842},{""stimulus"":""https://ziweizhang0304.github.io/Stats_learning_trig/img/Stim/FN_026_g.png"",""time"":2721.7999999523163},{""stimulus"":""blank"",""time"":3023.1999999284744},{""stimulus"":""https://ziweizhang0304.github.io/Stats_learning_trig/img/Stim/FN_019_g.png"",""time"":3061.899999976158},{""stimulus"":""blank"",""time"":3362.1999999284744},{""stimulus"":""https://ziweizhang0304.github.io/Stats_learning_trig/img/Stim/FN_020_g.png"",""time"":3402.100000023842},{""stimulus"":""blank"",""time"":3703.100000023842},{""stimulus"":""https://ziweizhang0304.github.io/Stats_learning_trig/img/Stim/FN_007_g.png"",""time"":3741.600000023842},{""stimulus"":""blank"",""time"":4042.6999999284744},{""stimulus"":""https://ziweizhang0304.github.io/Stats_learning_trig/img/Stim/FN_011_g.png"",""time"":4081.6999999284744},{""stimulus"":""blank"",""time"":4383.600000023842}]","[{""key_press"":32,""rt"":3077.0999999046326,""stimulus"":""https://ziweizhang0304.github.io/Stats_learning_trig/img/Stim/FN_019_g.png""}]","355.2999999523163","https://ziweizhang0304.github.io/Stats_learning_trig/img/Stim/FN_026_g.png","post_prac","","","","","","","","","","","","",""
"","html-keyboard-response","11","139782","0.0-3.0-2.0-2.0","1644.7000000476837","","","<p>Your reaction time for this trial was 355.3 ms.</p><p>Remember that you should only press the SPACEBAR when you see the shape presented at the beginning of the trial. </b> </p><p>Press enter to move on.</p>","13","","","","","","","","","","","","","","","","","",""
"","instructions","12","141591","0.0-4.0","1808.8999999761581","","[{""page_index"":0,""viewing_time"":1808.6000000238419}]","","","","","","","","","","","","","","","","","","","",""
"","image-keyboard-response","13","143897","0.0-5.0-0.0-0.0","2305.4000000953674","","","https://ziweizhang0304.github.io/Stats_learning_trig/img/Stim/FN_026_g.png","13","","","","","","","","","","","","","","","","","",""
"","animation","14","148321","0.0-5.0-0.0-1.0","","","","","","[{""stimulus"":""https://ziweizhang0304.github.io/Stats_learning_trig/img/Stim/FN_015_g.png"",""time"":342.2000000476837},{""stimulus"":""blank"",""time"":642.6000000238419},{""stimulus"":""https://ziweizhang0304.github.io/Stats_learning_trig/img/Stim/FN_024_g.png"",""time"":681.8999999761581},{""stimulus"":""blank"",""time"":982.7000000476837},{""stimulus"":""https://ziweizhang0304.github.io/Stats_learning_trig/img/Stim/FN_021_g.png"",""time"":1021.5},{""stimulus"":""blank"",""time"":1322.8999999761581},{""stimulus"":""https://ziweizhang0304.github.io/Stats_learning_trig/img/Stim/FN_002_g.png"",""time"":1360.8000000715256},{""stimulus"":""blank"",""time"":1662.6000000238419},{""stimulus"":""https://ziweizhang0304.github.io/Stats_learning_trig/img/Stim/FN_013_g.png"",""time"":1701},{""stimulus"":""blank"",""time"":2002.5},{""stimulus"":""https://ziweizhang0304.github.io/Stats_learning_trig/img/Stim/FN_026_g.png"",""time"":2041.8999999761581},{""stimulus"":""blank"",""time"":2342.399999976158},{""stimulus"":""https://ziweizhang0304.github.io/Stats_learning_trig/img/Stim/FN_019_g.png"",""time"":2381.8000000715256},{""stimulus"":""blank"",""time"":2682.3000000715256},{""stimulus"":""https://ziweizhang0304.github.io/Stats_learning_trig/img/Stim/FN_016_g.png"",""time"":2721.8000000715256},{""stimulus"":""blank"",""time"":3023.3000000715256},{""stimulus"":""https://ziweizhang0304.github.io/Stats_learning_trig/img/Stim/FN_022_g.png"",""time"":3061.2000000476837},{""stimulus"":""blank"",""time"":3362.5},{""stimulus"":""https://ziweizhang0304.github.io/Stats_learning_trig/img/Stim/FN_020_g.png"",""time"":3401.7000000476837},{""stimulus"":""blank"",""time"":3703.399999976158},{""stimulus"":""https://ziweizhang0304.github.io/Stats_learning_trig/img/Stim/FN_007_g.png"",""time"":3740.899999976158},{""stimulus"":""blank"",""time"":4041.7000000476837},{""stimulus"":""https://ziweizhang0304.github.io/Stats_learning_trig/img/Stim/FN_011_g.png"",""time"":4081.8000000715256},{""stimulus"":""blank"",""time"":4382.800000071526}]","[{""key_press"":32,""rt"":2405.399999976158,""stimulus"":""https://ziweizhang0304.github.io/Stats_learning_trig/img/Stim/FN_019_g.png""}]","363.5","https://ziweizhang0304.github.io/Stats_learning_trig/img/Stim/FN_026_g.png","post_TD","1","2041.8999999761581","2405.399999976158","fast","6","2","62711f17fc06135fb32b6e6b","","","","","",""
"","image-keyboard-response","15","149346","0.0-5.0-1.0-0.0","1020.7000000476837","","","https://ziweizhang0304.github.io/Stats_learning_trig/img/Stim/FN_017_g.png","13","","","","","","","","","","","","","","","","","",""
"","animation","16","153768","0.0-5.0-1.0-1.0","","","","","","[{""stimulus"":""https://ziweizhang0304.github.io/Stats_learning_trig/img/Stim/FN_020_g.png"",""time"":342.10000002384186},{""stimulus"":""blank"",""time"":643.7000000476837},{""stimulus"":""https://ziweizhang0304.github.io/Stats_learning_trig/img/Stim/FN_002_g.png"",""time"":682.3000000715256},{""stimulus"":""blank"",""time"":983.4000000953674},{""stimulus"":""https://ziweizhang0304.github.io/Stats_learning_trig/img/Stim/FN_016_g.png"",""time"":1021.7000000476837},{""stimulus"":""blank"",""time"":1322.9000000953674},{""stimulus"":""https://ziweizhang0304.github.io/Stats_learning_trig/img/Stim/FN_017_g.png"",""time"":1361.2000000476837},{""stimulus"":""blank"",""time"":1662},{""stimulus"":""https://ziweizhang0304.github.io/Stats_learning_trig/img/Stim/FN_001_g.png"",""time"":1701.9000000953674},{""stimulus"":""blank"",""time"":2002.2000000476837},{""stimulus"":""https://ziweizhang0304.github.io/Stats_learning_trig/img/Stim/FN_014_g.png"",""time"":2041.6000000238419},{""stimulus"":""blank"",""time"":2341.9000000953674},{""stimulus"":""https://ziweizhang0304.github.io/Stats_learning_trig/img/Stim/FN_022_g.png"",""time"":2381.5},{""stimulus"":""blank"",""time"":2682.600000023842},{""stimulus"":""https://ziweizhang0304.github.io/Stats_learning_trig/img/Stim/FN_024_g.png"",""time"":2722.4000000953674},{""stimulus"":""blank"",""time"":3023.100000023842},{""stimulus"":""https://ziweizhang0304.github.io/Stats_learning_trig/img/Stim/FN_015_g.png"",""time"":3061.5},{""stimulus"":""blank"",""time"":3362.7000000476837},{""stimulus"":""https://ziweizhang0304.github.io/Stats_learning_trig/img/Stim/FN_007_g.png"",""time"":3401.8000000715256},{""stimulus"":""blank"",""time"":3702.5},{""stimulus"":""https://ziweizhang0304.github.io/Stats_learning_trig/img/Stim/FN_021_g.png"",""time"":3741.3000000715256},{""stimulus"":""blank"",""time"":4042},{""stimulus"":""https://ziweizhang0304.github.io/Stats_learning_trig/img/Stim/FN_011_g.png"",""time"":4081.600000023842},{""stimulus"":""blank"",""time"":4382.600000023842}]","[{""key_press"":32,""rt"":1783.2999999523163,""stimulus"":""https://ziweizhang0304.github.io/Stats_learning_trig/img/Stim/FN_001_g.png""}]","422.09999990463257","https://ziweizhang0304.github.io/Stats_learning_trig/img/Stim/FN_017_g.png","post_TD","2","1361.2000000476837","1783.2999999523163","slow","4","1","62711f17fc06135fb32b6e6b","","","","","",""
"","image-keyboard-response","17","155034","0.0-5.0-2.0-0.0","1262.2999999523163","","","https://ziweizhang0304.github.io/Stats_learning_trig/img/Stim/FN_019_g.png","13","","","","","","","","","","","","","","","","","",""
"","animation","18","159455","0.0-5.0-2.0-1.0","","","","","","[{""stimulus"":""https://ziweizhang0304.github.io/Stats_learning_trig/img/Stim/FN_015_g.png"",""time"":341.7000000476837},{""stimulus"":""blank"",""time"":642.3000000715256},{""stimulus"":""https://ziweizhang0304.github.io/Stats_learning_trig/img/Stim/FN_024_g.png"",""time"":682},{""stimulus"":""blank"",""time"":983.1000000238419},{""stimulus"":""https://ziweizhang0304.github.io/Stats_learning_trig/img/Stim/FN_021_g.png"",""time"":1021.9000000953674},{""stimulus"":""blank"",""time"":1323.1000000238419},{""stimulus"":""https://ziweizhang0304.github.io/Stats_learning_trig/img/Stim/FN_002_g.png"",""time"":1362},{""stimulus"":""blank"",""time"":1663.2000000476837},{""stimulus"":""https://ziweizhang0304.github.io/Stats_learning_trig/img/Stim/FN_013_g.png"",""time"":1701.1000000238419},{""stimulus"":""blank"",""time"":2002.5},{""stimulus"":""https://ziweizhang0304.github.io/Stats_learning_trig/img/Stim/FN_026_g.png"",""time"":2040.9000000953674},{""stimulus"":""blank"",""time"":2342.4000000953674},{""stimulus"":""https://ziweizhang0304.github.io/Stats_learning_trig/img/Stim/FN_019_g.png"",""time"":2381.600000023842},{""stimulus"":""blank"",""time"":2682.2000000476837},{""stimulus"":""https://ziweizhang0304.github.io/Stats_learning_trig/img/Stim/FN_016_g.png"",""time"":2721.7000000476837},{""stimulus"":""blank"",""time"":3023.100000023842},{""stimulus"":""https://ziweizhang0304.github.io/Stats_learning_trig/img/Stim/FN_022_g.png"",""time"":3061.600000023842},{""stimulus"":""blank"",""time"":3362.5},{""stimulus"":""https://ziweizhang0304.github.io/Stats_learning_trig/img/Stim/FN_020_g.png"",""time"":3400.9000000953674},{""stimulus"":""blank"",""time"":3702.8000000715256},{""stimulus"":""https://ziweizhang0304.github.io/Stats_learning_trig/img/Stim/FN_007_g.png"",""time"":3741.100000023842},{""stimulus"":""blank"",""time"":4042.100000023842},{""stimulus"":""https://ziweizhang0304.github.io/Stats_learning_trig/img/Stim/FN_011_g.png"",""time"":4081.5},{""stimulus"":""blank"",""time"":4382.300000071526}]","[{""key_press"":32,""rt"":2707.600000023842,""stimulus"":""blank""}]","326","https://ziweizhang0304.github.io/Stats_learning_trig/img/Stim/FN_019_g.png","post_TD","3","2381.600000023842","2707.600000023842","fast","7","3","62711f17fc06135fb32b6e6b","","","","","",""
"","image-keyboard-response","19","160084","0.0-5.0-3.0-0.0","626.4000000953674","","","https://ziweizhang0304.github.io/Stats_learning_trig/img/Stim/FN_014_g.png","13","","","","","","","","","","","","","","","","","",""
"","animation","20","164506","0.0-5.0-3.0-1.0","","","","","","[{""stimulus"":""https://ziweizhang0304.github.io/Stats_learning_trig/img/Stim/FN_020_g.png"",""time"":342.89999997615814},{""stimulus"":""blank"",""time"":643.5},{""stimulus"":""https://ziweizhang0304.github.io/Stats_learning_trig/img/Stim/FN_002_g.png"",""time"":681.3999999761581},{""stimulus"":""blank"",""time"":981.8999999761581},{""stimulus"":""https://ziweizhang0304.github.io/Stats_learning_trig/img/Stim/FN_016_g.png"",""time"":1021.3999999761581},{""stimulus"":""blank"",""time"":1322.2999999523163},{""stimulus"":""https://ziweizhang0304.github.io/Stats_learning_trig/img/Stim/FN_017_g.png"",""time"":1361.2000000476837},{""stimulus"":""blank"",""time"":1661.8999999761581},{""stimulus"":""https://ziweizhang0304.github.io/Stats_learning_trig/img/Stim/FN_001_g.png"",""time"":1701.2000000476837},{""stimulus"":""blank"",""time"":2001.6000000238419},{""stimulus"":""https://ziweizhang0304.github.io/Stats_learning_trig/img/Stim/FN_014_g.png"",""time"":2041.3999999761581},{""stimulus"":""blank"",""time"":2342.2000000476837},{""stimulus"":""https://ziweizhang0304.github.io/Stats_learning_trig/img/Stim/FN_022_g.png"",""time"":2381.7000000476837},{""stimulus"":""blank"",""time"":2682.5},{""stimulus"":""https://ziweizhang0304.github.io/Stats_learning_trig/img/Stim/FN_024_g.png"",""time"":2721.100000023842},{""stimulus"":""blank"",""time"":3022.2999999523163},{""stimulus"":""https://ziweizhang0304.github.io/Stats_learning_trig/img/Stim/FN_015_g.png"",""time"":3061.899999976158},{""stimulus"":""blank"",""time"":3362.2999999523163},{""stimulus"":""https://ziweizhang0304.github.io/Stats_learning_trig/img/Stim/FN_007_g.png"",""time"":3401.600000023842},{""stimulus"":""blank"",""time"":3702.600000023842},{""stimulus"":""https://ziweizhang0304.github.io/Stats_learning_trig/img/Stim/FN_021_g.png"",""time"":3741.899999976158},{""stimulus"":""blank"",""time"":4043.2000000476837},{""stimulus"":""https://ziweizhang0304.github.io/Stats_learning_trig/img/Stim/FN_011_g.png"",""time"":4081.100000023842},{""stimulus"":""blank"",""time"":4381.799999952316}]","[{""key_press"":32,""rt"":2434.399999976158,""stimulus"":""https://ziweizhang0304.github.io/Stats_learning_trig/img/Stim/FN_022_g.png""}]","393","https://ziweizhang0304.github.io/Stats_learning_trig/img/Stim/FN_014_g.png","post_TD","4","2041.3999999761581","2434.399999976158","slow","6","3","62711f17fc06135fb32b6e6b","","","","","",""
"","image-keyboard-response","21","165269","0.0-5.0-4.0-0.0","759.1999999284744","","","https://ziweizhang0304.github.io/Stats_learning_trig/img/Stim/FN_026_g.png","13","","","","","","","","","","","","","","","","","",""
"","animation","22","169690","0.0-5.0-4.0-1.0","","","","","","[{""stimulus"":""https://ziweizhang0304.github.io/Stats_learning_trig/img/Stim/FN_022_g.png"",""time"":341.1999999284744},{""stimulus"":""blank"",""time"":642.5},{""stimulus"":""https://ziweizhang0304.github.io/Stats_learning_trig/img/Stim/FN_015_g.png"",""time"":682.6999999284744},{""stimulus"":""blank"",""time"":983.6999999284744},{""stimulus"":""https://ziweizhang0304.github.io/Stats_learning_trig/img/Stim/FN_016_g.png"",""time"":1021.1999999284744},{""stimulus"":""blank"",""time"":1322.8999999761581},{""stimulus"":""https://ziweizhang0304.github.io/Stats_learning_trig/img/Stim/FN_024_g.png"",""time"":1361.3999999761581},{""stimulus"":""blank"",""time"":1662.3999999761581},{""stimulus"":""https://ziweizhang0304.github.io/Stats_learning_trig/img/Stim/FN_002_g.png"",""time"":1701.5999999046326},{""stimulus"":""blank"",""time"":2003.0999999046326},{""stimulus"":""https://ziweizhang0304.github.io/Stats_learning_trig/img/Stim/FN_021_g.png"",""time"":2040.8999999761581},{""stimulus"":""blank"",""time"":2342.0999999046326},{""stimulus"":""https://ziweizhang0304.github.io/Stats_learning_trig/img/Stim/FN_013_g.png"",""time"":2381.899999976158},{""stimulus"":""blank"",""time"":2683.5},{""stimulus"":""https://ziweizhang0304.github.io/Stats_learning_trig/img/Stim/FN_026_g.png"",""time"":2721.0999999046326},{""stimulus"":""blank"",""time"":3022.1999999284744},{""stimulus"":""https://ziweizhang0304.github.io/Stats_learning_trig/img/Stim/FN_019_g.png"",""time"":3061.6999999284744},{""stimulus"":""blank"",""time"":3362.6999999284744},{""stimulus"":""https://ziweizhang0304.github.io/Stats_learning_trig/img/Stim/FN_020_g.png"",""time"":3401.0999999046326},{""stimulus"":""blank"",""time"":3702.1999999284744},{""stimulus"":""https://ziweizhang0304.github.io/Stats_learning_trig/img/Stim/FN_007_g.png"",""time"":3742},{""stimulus"":""blank"",""time"":4043.5999999046326},{""stimulus"":""https://ziweizhang0304.github.io/Stats_learning_trig/img/Stim/FN_011_g.png"",""time"":4081.0999999046326},{""stimulus"":""blank"",""time"":4381.899999976158}]","[{""key_press"":32,""rt"":1691,""stimulus"":""blank""},{""key_press"":32,""rt"":2683.7000000476837,""stimulus"":""blank""}]","NaN","https://ziweizhang0304.github.io/Stats_learning_trig/img/Stim/FN_026_g.png","post_TD","5","2721.0999999046326","","fast","8","2","62711f17fc06135fb32b6e6b","","","","","",""
"","image-keyboard-response","23","170880","0.0-5.0-5.0-0.0","1185.7999999523163","","","https://ziweizhang0304.github.io/Stats_learning_trig/img/Stim/FN_014_g.png","13","","","","","","","","","","","","","","","","","",""
"","animation","24","175302","0.0-5.0-5.0-1.0","","","","","","[{""stimulus"":""https://ziweizhang0304.github.io/Stats_learning_trig/img/Stim/FN_022_g.png"",""time"":342.89999997615814},{""stimulus"":""blank"",""time"":644.2999999523163},{""stimulus"":""https://ziweizhang0304.github.io/Stats_learning_trig/img/Stim/FN_020_g.png"",""time"":681.1999999284744},{""stimulus"":""blank"",""time"":982.6999999284744},{""stimulus"":""https://ziweizhang0304.github.io/Stats_learning_trig/img/Stim/FN_002_g.png"",""time"":1022.6999999284744},{""stimulus"":""blank"",""time"":1323.7999999523163},{""stimulus"":""https://ziweizhang0304.github.io/Stats_learning_trig/img/Stim/FN_021_g.png"",""time"":1361.5},{""stimulus"":""blank"",""time"":1661.6999999284744},{""stimulus"":""https://ziweizhang0304.github.io/Stats_learning_trig/img/Stim/FN_016_g.png"",""time"":1701.0999999046326},{""stimulus"":""blank"",""time"":2002.1999999284744},{""stimulus"":""https://ziweizhang0304.github.io/Stats_learning_trig/img/Stim/FN_017_g.png"",""time"":2041.3999999761581},{""stimulus"":""blank"",""time"":2342.1999999284744},{""stimulus"":""https://ziweizhang0304.github.io/Stats_learning_trig/img/Stim/FN_001_g.png"",""time"":2381.0999999046326},{""stimulus"":""blank"",""time"":2682.0999999046326},{""stimulus"":""https://ziweizhang0304.github.io/Stats_learning_trig/img/Stim/FN_014_g.png"",""time"":2721.2999999523163},{""stimulus"":""blank"",""time"":3022.1999999284744},{""stimulus"":""https://ziweizhang0304.github.io/Stats_learning_trig/img/Stim/FN_024_g.png"",""time"":3061.0999999046326},{""stimulus"":""blank"",""time"":3361.6999999284744},{""stimulus"":""https://ziweizhang0304.github.io/Stats_learning_trig/img/Stim/FN_015_g.png"",""time"":3402},{""stimulus"":""blank"",""time"":3702.6999999284744},{""stimulus"":""https://ziweizhang0304.github.io/Stats_learning_trig/img/Stim/FN_007_g.png"",""time"":3741.399999976158},{""stimulus"":""blank"",""time"":4042.6999999284744},{""stimulus"":""https://ziweizhang0304.github.io/Stats_learning_trig/img/Stim/FN_011_g.png"",""time"":4082.399999976158},{""stimulus"":""blank"",""time"":4383.599999904633}]","[{""key_press"":32,""rt"":2424.5,""stimulus"":""https://ziweizhang0304.github.io/Stats_learning_trig/img/Stim/FN_001_g.png""},{""key_press"":32,""rt"":3324.899999976158,""stimulus"":""https://ziweizhang0304.github.io/Stats_learning_trig/img/Stim/FN_024_g.png""}]","603.6000000238419","https://ziweizhang0304.github.io/Stats_learning_trig/img/Stim/FN_014_g.png","post_TD","6","2721.2999999523163","3324.899999976158","slow","8","3","62711f17fc06135fb32b6e6b","","","","","",""
"","image-keyboard-response","25","176385","0.0-5.0-6.0-0.0","1079.3999999761581","","","https://ziweizhang0304.github.io/Stats_learning_trig/img/Stim/FN_026_g.png","13","","","","","","","","","","","","","","","","","",""
"","animation","26","180807","0.0-5.0-6.0-1.0","","","","","","[{""stimulus"":""https://ziweizhang0304.github.io/Stats_learning_trig/img/Stim/FN_024_g.png"",""time"":342},{""stimulus"":""blank"",""time"":642.3999999761581},{""stimulus"":""https://ziweizhang0304.github.io/Stats_learning_trig/img/Stim/FN_011_g.png"",""time"":681.8999999761581},{""stimulus"":""blank"",""time"":983.2000000476837},{""stimulus"":""https://ziweizhang0304.github.io/Stats_learning_trig/img/Stim/FN_002_g.png"",""time"":1021.8999999761581},{""stimulus"":""blank"",""time"":1323},{""stimulus"":""https://ziweizhang0304.github.io/Stats_learning_trig/img/Stim/FN_022_g.png"",""time"":1361.2999999523163},{""stimulus"":""blank"",""time"":1661.5},{""stimulus"":""https://ziweizhang0304.github.io/Stats_learning_trig/img/Stim/FN_015_g.png"",""time"":1701.1000000238419},{""stimulus"":""blank"",""time"":2002.2999999523163},{""stimulus"":""https://ziweizhang0304.github.io/Stats_learning_trig/img/Stim/FN_013_g.png"",""time"":2042.2999999523163},{""stimulus"":""blank"",""time"":2342.600000023842},{""stimulus"":""https://ziweizhang0304.github.io/Stats_learning_trig/img/Stim/FN_026_g.png"",""time"":2381.2999999523163},{""stimulus"":""blank"",""time"":2682.2000000476837},{""stimulus"":""https://ziweizhang0304.github.io/Stats_learning_trig/img/Stim/FN_019_g.png"",""time"":2721.7999999523163},{""stimulus"":""blank"",""time"":3022.2999999523163},{""stimulus"":""https://ziweizhang0304.github.io/Stats_learning_trig/img/Stim/FN_016_g.png"",""time"":3061.5},{""stimulus"":""blank"",""time"":3362.600000023842},{""stimulus"":""https://ziweizhang0304.github.io/Stats_learning_trig/img/Stim/FN_020_g.png"",""time"":3401},{""stimulus"":""blank"",""time"":3702.2999999523163},{""stimulus"":""https://ziweizhang0304.github.io/Stats_learning_trig/img/Stim/FN_007_g.png"",""time"":3741.399999976158},{""stimulus"":""blank"",""time"":4042.399999976158},{""stimulus"":""https://ziweizhang0304.github.io/Stats_learning_trig/img/Stim/FN_021_g.png"",""time"":4081.7999999523163},{""stimulus"":""blank"",""time"":4383.700000047684}]","[{""key_press"":32,""rt"":2784.600000023842,""stimulus"":""https://ziweizhang0304.github.io/Stats_learning_trig/img/Stim/FN_019_g.png""}]","403.3000000715256","https://ziweizhang0304.github.io/Stats_learning_trig/img/Stim/FN_026_g.png","post_TD","7","2381.2999999523163","2784.600000023842","fast","7","2","62711f17fc06135fb32b6e6b","","","","","",""
"","image-keyboard-response","27","181806","0.0-5.0-7.0-0.0","994.9000000953674","","","https://ziweizhang0304.github.io/Stats_learning_trig/img/Stim/FN_013_g.png","13","","","","","","","","","","","","","","","","","",""
"","animation","28","186228","0.0-5.0-7.0-1.0","","","","","","[{""stimulus"":""https://ziweizhang0304.github.io/Stats_learning_trig/img/Stim/FN_022_g.png"",""time"":342.2000000476837},{""stimulus"":""blank"",""time"":642.8999999761581},{""stimulus"":""https://ziweizhang0304.github.io/Stats_learning_trig/img/Stim/FN_015_g.png"",""time"":681.7000000476837},{""stimulus"":""blank"",""time"":982.1000000238419},{""stimulus"":""https://ziweizhang0304.github.io/Stats_learning_trig/img/Stim/FN_016_g.png"",""time"":1021.2000000476837},{""stimulus"":""blank"",""time"":1322},{""stimulus"":""https://ziweizhang0304.github.io/Stats_learning_trig/img/Stim/FN_024_g.png"",""time"":1361.7000000476837},{""stimulus"":""blank"",""time"":1662.1000000238419},{""stimulus"":""https://ziweizhang0304.github.io/Stats_learning_trig/img/Stim/FN_002_g.png"",""time"":1701.5},{""stimulus"":""blank"",""time"":2003.2000000476837},{""stimulus"":""https://ziweizhang0304.github.io/Stats_learning_trig/img/Stim/FN_021_g.png"",""time"":2041.5},{""stimulus"":""blank"",""time"":2342.7999999523163},{""stimulus"":""https://ziweizhang0304.github.io/Stats_learning_trig/img/Stim/FN_013_g.png"",""time"":2381.100000023842},{""stimulus"":""blank"",""time"":2681.5},{""stimulus"":""https://ziweizhang0304.github.io/Stats_learning_trig/img/Stim/FN_026_g.png"",""time"":2721.7000000476837},{""stimulus"":""blank"",""time"":3022},{""stimulus"":""https://ziweizhang0304.github.io/Stats_learning_trig/img/Stim/FN_019_g.png"",""time"":3061.2999999523163},{""stimulus"":""blank"",""time"":3362.399999976158},{""stimulus"":""https://ziweizhang0304.github.io/Stats_learning_trig/img/Stim/FN_020_g.png"",""time"":3401.5},{""stimulus"":""blank"",""time"":3702.600000023842},{""stimulus"":""https://ziweizhang0304.github.io/Stats_learning_trig/img/Stim/FN_007_g.png"",""time"":3741.600000023842},{""stimulus"":""blank"",""time"":4042.7000000476837},{""stimulus"":""https://ziweizhang0304.github.io/Stats_learning_trig/img/Stim/FN_011_g.png"",""time"":4081.100000023842},{""stimulus"":""blank"",""time"":4381.799999952316}]","[{""key_press"":32,""rt"":2782.899999976158,""stimulus"":""https://ziweizhang0304.github.io/Stats_learning_trig/img/Stim/FN_026_g.png""}]","401.7999999523163","https://ziweizhang0304.github.io/Stats_learning_trig/img/Stim/FN_013_g.png","post_TD","8","2381.100000023842","2782.899999976158","fast","7","1","62711f17fc06135fb32b6e6b","","","","","",""
"","image-keyboard-response","29","187860","0.0-5.0-8.0-0.0","1628.3999999761581","","","https://ziweizhang0304.github.io/Stats_learning_trig/img/Stim/FN_013_g.png","13","","","","","","","","","","","","","","","","","",""
"","animation","30","192281","0.0-5.0-8.0-1.0","","","","","","[{""stimulus"":""https://ziweizhang0304.github.io/Stats_learning_trig/img/Stim/FN_015_g.png"",""time"":342.7999999523163},{""stimulus"":""blank"",""time"":643.1999999284744},{""stimulus"":""https://ziweizhang0304.github.io/Stats_learning_trig/img/Stim/FN_024_g.png"",""time"":681.8999999761581},{""stimulus"":""blank"",""time"":983.0999999046326},{""stimulus"":""https://ziweizhang0304.github.io/Stats_learning_trig/img/Stim/FN_021_g.png"",""time"":1021.2999999523163},{""stimulus"":""blank"",""time"":1321.7999999523163},{""stimulus"":""https://ziweizhang0304.github.io/Stats_learning_trig/img/Stim/FN_002_g.png"",""time"":1361.3999999761581},{""stimulus"":""blank"",""time"":1662.1999999284744},{""stimulus"":""https://ziweizhang0304.github.io/Stats_learning_trig/img/Stim/FN_013_g.png"",""time"":1702.8999999761581},{""stimulus"":""blank"",""time"":2003.8999999761581},{""stimulus"":""https://ziweizhang0304.github.io/Stats_learning_trig/img/Stim/FN_026_g.png"",""time"":2041.2999999523163},{""stimulus"":""blank"",""time"":2342.5},{""stimulus"":""https://ziweizhang0304.github.io/Stats_learning_trig/img/Stim/FN_019_g.png"",""time"":2381.5999999046326},{""stimulus"":""blank"",""time"":2682.6999999284744},{""stimulus"":""https://ziweizhang0304.github.io/Stats_learning_trig/img/Stim/FN_016_g.png"",""time"":2721.399999976158},{""stimulus"":""blank"",""time"":3022.0999999046326},{""stimulus"":""https://ziweizhang0304.github.io/Stats_learning_trig/img/Stim/FN_022_g.png"",""time"":3061.5},{""stimulus"":""blank"",""time"":3362.6999999284744},{""stimulus"":""https://ziweizhang0304.github.io/Stats_learning_trig/img/Stim/FN_020_g.png"",""time"":3401.5},{""stimulus"":""blank"",""time"":3702.399999976158},{""stimulus"":""https://ziweizhang0304.github.io/Stats_learning_trig/img/Stim/FN_007_g.png"",""time"":3741.1999999284744},{""stimulus"":""blank"",""time"":4041.7999999523163},{""stimulus"":""https://ziweizhang0304.github.io/Stats_learning_trig/img/Stim/FN_011_g.png"",""time"":4081.5},{""stimulus"":""blank"",""time"":4382.299999952316}]","[{""key_press"":32,""rt"":2139.9000000953674,""stimulus"":""https://ziweizhang0304.github.io/Stats_learning_trig/img/Stim/FN_026_g.png""}]","437.0000001192093","https://ziweizhang0304.github.io/Stats_learning_trig/img/Stim/FN_013_g.png","post_TD","9","1702.8999999761581","2139.9000000953674","fast","5","1","62711f17fc06135fb32b6e6b","","","","","",""
"","image-keyboard-response","31","193484","0.0-5.0-9.0-0.0","1198.7000000476837","","","https://ziweizhang0304.github.io/Stats_learning_trig/img/Stim/FN_026_g.png","13","","","","","","","","","","","","","","","","","",""
"","animation","32","197905","0.0-5.0-9.0-1.0","","","","","","[{""stimulus"":""https://ziweizhang0304.github.io/Stats_learning_trig/img/Stim/FN_021_g.png"",""time"":343},{""stimulus"":""blank"",""time"":643.9000000953674},{""stimulus"":""https://ziweizhang0304.github.io/Stats_learning_trig/img/Stim/FN_016_g.png"",""time"":681.3000000715256},{""stimulus"":""blank"",""time"":981.9000000953674},{""stimulus"":""https://ziweizhang0304.github.io/Stats_learning_trig/img/Stim/FN_007_g.png"",""time"":1021.2000000476837},{""stimulus"":""blank"",""time"":1321.5},{""stimulus"":""https://ziweizhang0304.github.io/Stats_learning_trig/img/Stim/FN_013_g.png"",""time"":1361.2000000476837},{""stimulus"":""blank"",""time"":1662.5},{""stimulus"":""https://ziweizhang0304.github.io/Stats_learning_trig/img/Stim/FN_026_g.png"",""time"":1701.4000000953674},{""stimulus"":""blank"",""time"":2002.2000000476837},{""stimulus"":""https://ziweizhang0304.github.io/Stats_learning_trig/img/Stim/FN_019_g.png"",""time"":2041.4000000953674},{""stimulus"":""blank"",""time"":2341.9000000953674},{""stimulus"":""https://ziweizhang0304.github.io/Stats_learning_trig/img/Stim/FN_022_g.png"",""time"":2381.2000000476837},{""stimulus"":""blank"",""time"":2682.9000000953674},{""stimulus"":""https://ziweizhang0304.github.io/Stats_learning_trig/img/Stim/FN_024_g.png"",""time"":2721.2000000476837},{""stimulus"":""blank"",""time"":3021.9000000953674},{""stimulus"":""https://ziweizhang0304.github.io/Stats_learning_trig/img/Stim/FN_020_g.png"",""time"":3061.5},{""stimulus"":""blank"",""time"":3362.4000000953674},{""stimulus"":""https://ziweizhang0304.github.io/Stats_learning_trig/img/Stim/FN_015_g.png"",""time"":3401.100000023842},{""stimulus"":""blank"",""time"":3702.5},{""stimulus"":""https://ziweizhang0304.github.io/Stats_learning_trig/img/Stim/FN_002_g.png"",""time"":3741},{""stimulus"":""blank"",""time"":4041.9000000953674},{""stimulus"":""https://ziweizhang0304.github.io/Stats_learning_trig/img/Stim/FN_011_g.png"",""time"":4081.5},{""stimulus"":""blank"",""time"":4382.5}]","[{""key_press"":32,""rt"":2123.100000023842,""stimulus"":""https://ziweizhang0304.github.io/Stats_learning_trig/img/Stim/FN_019_g.png""}]","421.6999999284744","https://ziweizhang0304.github.io/Stats_learning_trig/img/Stim/FN_026_g.png","post_TD","10","1701.4000000953674","2123.100000023842","fast","5","2","62711f17fc06135fb32b6e6b","","","","","",""
"","image-keyboard-response","33","198769","0.0-5.0-10.0-0.0","860.6000000238419","","","https://ziweizhang0304.github.io/Stats_learning_trig/img/Stim/FN_013_g.png","13","","","","","","","","","","","","","","","","","",""
"","animation","34","203190","0.0-5.0-10.0-1.0","","","","","","[{""stimulus"":""https://ziweizhang0304.github.io/Stats_learning_trig/img/Stim/FN_024_g.png"",""time"":341.5},{""stimulus"":""blank"",""time"":642.6000000238419},{""stimulus"":""https://ziweizhang0304.github.io/Stats_learning_trig/img/Stim/FN_011_g.png"",""time"":681.5},{""stimulus"":""blank"",""time"":982.7999999523163},{""stimulus"":""https://ziweizhang0304.github.io/Stats_learning_trig/img/Stim/FN_002_g.png"",""time"":1021.1000000238419},{""stimulus"":""blank"",""time"":1322.2999999523163},{""stimulus"":""https://ziweizhang0304.github.io/Stats_learning_trig/img/Stim/FN_022_g.png"",""time"":1362.1000000238419},{""stimulus"":""blank"",""time"":1662.7000000476837},{""stimulus"":""https://ziweizhang0304.github.io/Stats_learning_trig/img/Stim/FN_015_g.png"",""time"":1701.7000000476837},{""stimulus"":""blank"",""time"":2002.6000000238419},{""stimulus"":""https://ziweizhang0304.github.io/Stats_learning_trig/img/Stim/FN_013_g.png"",""time"":2041.2999999523163},{""stimulus"":""blank"",""time"":2342.2000000476837},{""stimulus"":""https://ziweizhang0304.github.io/Stats_learning_trig/img/Stim/FN_026_g.png"",""time"":2381.5},{""stimulus"":""blank"",""time"":2682.100000023842},{""stimulus"":""https://ziweizhang0304.github.io/Stats_learning_trig/img/Stim/FN_019_g.png"",""time"":2722.2999999523163},{""stimulus"":""blank"",""time"":3023},{""stimulus"":""https://ziweizhang0304.github.io/Stats_learning_trig/img/Stim/FN_016_g.png"",""time"":3061.5},{""stimulus"":""blank"",""time"":3362.399999976158},{""stimulus"":""https://ziweizhang0304.github.io/Stats_learning_trig/img/Stim/FN_020_g.png"",""time"":3400.899999976158},{""stimulus"":""blank"",""time"":3701.600000023842},{""stimulus"":""https://ziweizhang0304.github.io/Stats_learning_trig/img/Stim/FN_007_g.png"",""time"":3740.899999976158},{""stimulus"":""blank"",""time"":4042.2000000476837},{""stimulus"":""https://ziweizhang0304.github.io/Stats_learning_trig/img/Stim/FN_021_g.png"",""time"":4081.600000023842},{""stimulus"":""blank"",""time"":4382.299999952316}]","[{""key_press"":32,""rt"":2456,""stimulus"":""https://ziweizhang0304.github.io/Stats_learning_trig/img/Stim/FN_026_g.png""}]","414.7000000476837","https://ziweizhang0304.github.io/Stats_learning_trig/img/Stim/FN_013_g.png","post_TD","11","2041.2999999523163","2456","fast","6","1","62711f17fc06135fb32b6e6b","","","","","",""
"","image-keyboard-response","35","203912","0.0-5.0-11.0-0.0","717.1999999284744","","","https://ziweizhang0304.github.io/Stats_learning_trig/img/Stim/FN_013_g.png","13","","","","","","","","","","","","","","","","","",""
"","animation","36","208334","0.0-5.0-11.0-1.0","","","","","","[{""stimulus"":""https://ziweizhang0304.github.io/Stats_learning_trig/img/Stim/FN_021_g.png"",""time"":342.2999999523163},{""stimulus"":""blank"",""time"":643.3999999761581},{""stimulus"":""https://ziweizhang0304.github.io/Stats_learning_trig/img/Stim/FN_016_g.png"",""time"":681.5},{""stimulus"":""blank"",""time"":982.6000000238419},{""stimulus"":""https://ziweizhang0304.github.io/Stats_learning_trig/img/Stim/FN_007_g.png"",""time"":1021.8999999761581},{""stimulus"":""blank"",""time"":1323},{""stimulus"":""https://ziweizhang0304.github.io/Stats_learning_trig/img/Stim/FN_013_g.png"",""time"":1361.1999999284744},{""stimulus"":""blank"",""time"":1662.2999999523163},{""stimulus"":""https://ziweizhang0304.github.io/Stats_learning_trig/img/Stim/FN_026_g.png"",""time"":1701.6999999284744},{""stimulus"":""blank"",""time"":2002.5},{""stimulus"":""https://ziweizhang0304.github.io/Stats_learning_trig/img/Stim/FN_019_g.png"",""time"":2041.3999999761581},{""stimulus"":""blank"",""time"":2342.600000023842},{""stimulus"":""https://ziweizhang0304.github.io/Stats_learning_trig/img/Stim/FN_022_g.png"",""time"":2381.1999999284744},{""stimulus"":""blank"",""time"":2682.600000023842},{""stimulus"":""https://ziweizhang0304.github.io/Stats_learning_trig/img/Stim/FN_024_g.png"",""time"":2721.2999999523163},{""stimulus"":""blank"",""time"":3022.100000023842},{""stimulus"":""https://ziweizhang0304.github.io/Stats_learning_trig/img/Stim/FN_020_g.png"",""time"":3060.899999976158},{""stimulus"":""blank"",""time"":3361.7999999523163},{""stimulus"":""https://ziweizhang0304.github.io/Stats_learning_trig/img/Stim/FN_015_g.png"",""time"":3401.5},{""stimulus"":""blank"",""time"":3702.6999999284744},{""stimulus"":""https://ziweizhang0304.github.io/Stats_learning_trig/img/Stim/FN_002_g.png"",""time"":3741.600000023842},{""stimulus"":""blank"",""time"":4041.899999976158},{""stimulus"":""https://ziweizhang0304.github.io/Stats_learning_trig/img/Stim/FN_011_g.png"",""time"":4081.1999999284744},{""stimulus"":""blank"",""time"":4382.199999928474}]","[{""key_press"":32,""rt"":1691.4000000953674,""stimulus"":""blank""}]","330.200000166893","https://ziweizhang0304.github.io/Stats_learning_trig/img/Stim/FN_013_g.png","post_TD","12","1361.1999999284744","1691.4000000953674","fast","4","1","62711f17fc06135fb32b6e6b","","","","","",""
"","image-keyboard-response","37","208797","0.0-5.0-12.0-0.0","459.2999999523163","","","https://ziweizhang0304.github.io/Stats_learning_trig/img/Stim/FN_014_g.png","13","","","","","","","","","","","","","","","","","",""
"","animation","38","213219","0.0-5.0-12.0-1.0","","","","","","[{""stimulus"":""https://ziweizhang0304.github.io/Stats_learning_trig/img/Stim/FN_020_g.png"",""time"":342.39999997615814},{""stimulus"":""blank"",""time"":642.8999999761581},{""stimulus"":""https://ziweizhang0304.github.io/Stats_learning_trig/img/Stim/FN_015_g.png"",""time"":681.3999999761581},{""stimulus"":""blank"",""time"":982.3999999761581},{""stimulus"":""https://ziweizhang0304.github.io/Stats_learning_trig/img/Stim/FN_021_g.png"",""time"":1021.1999999284744},{""stimulus"":""blank"",""time"":1322.1999999284744},{""stimulus"":""https://ziweizhang0304.github.io/Stats_learning_trig/img/Stim/FN_011_g.png"",""time"":1361.6999999284744},{""stimulus"":""blank"",""time"":1662.5999999046326},{""stimulus"":""https://ziweizhang0304.github.io/Stats_learning_trig/img/Stim/FN_024_g.png"",""time"":1701.7999999523163},{""stimulus"":""blank"",""time"":2003.5},{""stimulus"":""https://ziweizhang0304.github.io/Stats_learning_trig/img/Stim/FN_022_g.png"",""time"":2041.0999999046326},{""stimulus"":""blank"",""time"":2341.6999999284744},{""stimulus"":""https://ziweizhang0304.github.io/Stats_learning_trig/img/Stim/FN_017_g.png"",""time"":2381.2999999523163},{""stimulus"":""blank"",""time"":2683.1999999284744},{""stimulus"":""https://ziweizhang0304.github.io/Stats_learning_trig/img/Stim/FN_001_g.png"",""time"":2721.5999999046326},{""stimulus"":""blank"",""time"":3022.5},{""stimulus"":""https://ziweizhang0304.github.io/Stats_learning_trig/img/Stim/FN_014_g.png"",""time"":3061.1999999284744},{""stimulus"":""blank"",""time"":3362.1999999284744},{""stimulus"":""https://ziweizhang0304.github.io/Stats_learning_trig/img/Stim/FN_016_g.png"",""time"":3401.6999999284744},{""stimulus"":""blank"",""time"":3702.5},{""stimulus"":""https://ziweizhang0304.github.io/Stats_learning_trig/img/Stim/FN_007_g.png"",""time"":3740.899999976158},{""stimulus"":""blank"",""time"":4042.6999999284744},{""stimulus"":""https://ziweizhang0304.github.io/Stats_learning_trig/img/Stim/FN_002_g.png"",""time"":4081.0999999046326},{""stimulus"":""blank"",""time"":4382.299999952316}]","[{""key_press"":32,""rt"":3492.100000023842,""stimulus"":""https://ziweizhang0304.github.io/Stats_learning_trig/img/Stim/FN_016_g.png""}]","430.90000009536743","https://ziweizhang0304.github.io/Stats_learning_trig/img/Stim/FN_014_g.png","post_TD","13","3061.1999999284744","3492.100000023842","slow","9","3","62711f17fc06135fb32b6e6b","","","","","",""
"","image-keyboard-response","39","213578","0.0-5.0-13.0-0.0","355.10000002384186","","","https://ziweizhang0304.github.io/Stats_learning_trig/img/Stim/FN_019_g.png","13","","","","","","","","","","","","","","","","","",""
"","animation","40","218000","0.0-5.0-13.0-1.0","","","","","","[{""stimulus"":""https://ziweizhang0304.github.io/Stats_learning_trig/img/Stim/FN_021_g.png"",""time"":341.7999999523163},{""stimulus"":""blank"",""time"":643.5999999046326},{""stimulus"":""https://ziweizhang0304.github.io/Stats_learning_trig/img/Stim/FN_016_g.png"",""time"":681.6999999284744},{""stimulus"":""blank"",""time"":982.6999999284744},{""stimulus"":""https://ziweizhang0304.github.io/Stats_learning_trig/img/Stim/FN_007_g.png"",""time"":1022.3999999761581},{""stimulus"":""blank"",""time"":1322.7999999523163},{""stimulus"":""https://ziweizhang0304.github.io/Stats_learning_trig/img/Stim/FN_013_g.png"",""time"":1361.1999999284744},{""stimulus"":""blank"",""time"":1661.5999999046326},{""stimulus"":""https://ziweizhang0304.github.io/Stats_learning_trig/img/Stim/FN_026_g.png"",""time"":1701.5999999046326},{""stimulus"":""blank"",""time"":2002.0999999046326},{""stimulus"":""https://ziweizhang0304.github.io/Stats_learning_trig/img/Stim/FN_019_g.png"",""time"":2041},{""stimulus"":""blank"",""time"":2342.1999999284744},{""stimulus"":""https://ziweizhang0304.github.io/Stats_learning_trig/img/Stim/FN_022_g.png"",""time"":2381.6999999284744},{""stimulus"":""blank"",""time"":2682.5},{""stimulus"":""https://ziweizhang0304.github.io/Stats_learning_trig/img/Stim/FN_024_g.png"",""time"":2721.0999999046326},{""stimulus"":""blank"",""time"":3021.5999999046326},{""stimulus"":""https://ziweizhang0304.github.io/Stats_learning_trig/img/Stim/FN_020_g.png"",""time"":3062.899999976158},{""stimulus"":""blank"",""time"":3363.399999976158},{""stimulus"":""https://ziweizhang0304.github.io/Stats_learning_trig/img/Stim/FN_015_g.png"",""time"":3401.5},{""stimulus"":""blank"",""time"":3702},{""stimulus"":""https://ziweizhang0304.github.io/Stats_learning_trig/img/Stim/FN_002_g.png"",""time"":3741.5999999046326},{""stimulus"":""blank"",""time"":4043.2999999523163},{""stimulus"":""https://ziweizhang0304.github.io/Stats_learning_trig/img/Stim/FN_011_g.png"",""time"":4081.7999999523163},{""stimulus"":""blank"",""time"":4382}]","[{""key_press"":32,""rt"":2456.2000000476837,""stimulus"":""https://ziweizhang0304.github.io/Stats_learning_trig/img/Stim/FN_022_g.png""}]","415.2000000476837","https://ziweizhang0304.github.io/Stats_learning_trig/img/Stim/FN_019_g.png","post_TD","14","2041","2456.2000000476837","fast","6","3","62711f17fc06135fb32b6e6b","","","","","",""
"","image-keyboard-response","41","218533","0.0-5.0-14.0-0.0","530","","","https://ziweizhang0304.github.io/Stats_learning_trig/img/Stim/FN_001_g.png","13","","","","","","","","","","","","","","","","","",""
"","animation","42","222955","0.0-5.0-14.0-1.0","","","","","","[{""stimulus"":""https://ziweizhang0304.github.io/Stats_learning_trig/img/Stim/FN_022_g.png"",""time"":342.10000002384186},{""stimulus"":""blank"",""time"":642.2999999523163},{""stimulus"":""https://ziweizhang0304.github.io/Stats_learning_trig/img/Stim/FN_020_g.png"",""time"":681.2000000476837},{""stimulus"":""blank"",""time"":983.1000000238419},{""stimulus"":""https://ziweizhang0304.github.io/Stats_learning_trig/img/Stim/FN_002_g.png"",""time"":1021.3999999761581},{""stimulus"":""blank"",""time"":1322.7000000476837},{""stimulus"":""https://ziweizhang0304.github.io/Stats_learning_trig/img/Stim/FN_021_g.png"",""time"":1362.2000000476837},{""stimulus"":""blank"",""time"":1663.2000000476837},{""stimulus"":""https://ziweizhang0304.github.io/Stats_learning_trig/img/Stim/FN_016_g.png"",""time"":1701.7999999523163},{""stimulus"":""blank"",""time"":2002.6000000238419},{""stimulus"":""https://ziweizhang0304.github.io/Stats_learning_trig/img/Stim/FN_017_g.png"",""time"":2041.2000000476837},{""stimulus"":""blank"",""time"":2341.7000000476837},{""stimulus"":""https://ziweizhang0304.github.io/Stats_learning_trig/img/Stim/FN_001_g.png"",""time"":2382.7999999523163},{""stimulus"":""blank"",""time"":2683.600000023842},{""stimulus"":""https://ziweizhang0304.github.io/Stats_learning_trig/img/Stim/FN_014_g.png"",""time"":2721.7999999523163},{""stimulus"":""blank"",""time"":3022.7999999523163},{""stimulus"":""https://ziweizhang0304.github.io/Stats_learning_trig/img/Stim/FN_024_g.png"",""time"":3061.600000023842},{""stimulus"":""blank"",""time"":3362.399999976158},{""stimulus"":""https://ziweizhang0304.github.io/Stats_learning_trig/img/Stim/FN_015_g.png"",""time"":3401.2999999523163},{""stimulus"":""blank"",""time"":3702.600000023842},{""stimulus"":""https://ziweizhang0304.github.io/Stats_learning_trig/img/Stim/FN_007_g.png"",""time"":3741.2999999523163},{""stimulus"":""blank"",""time"":4042.600000023842},{""stimulus"":""https://ziweizhang0304.github.io/Stats_learning_trig/img/Stim/FN_011_g.png"",""time"":4082},{""stimulus"":""blank"",""time"":4383.299999952316}]","[{""key_press"":32,""rt"":2776.5999999046326,""stimulus"":""https://ziweizhang0304.github.io/Stats_learning_trig/img/Stim/FN_014_g.png""}]","393.7999999523163","https://ziweizhang0304.github.io/Stats_learning_trig/img/Stim/FN_001_g.png","post_TD","15","2382.7999999523163","2776.5999999046326","slow","7","2","62711f17fc06135fb32b6e6b","","","","","",""
"","image-keyboard-response","43","223321","0.0-5.0-15.0-0.0","362.7000000476837","","","https://ziweizhang0304.github.io/Stats_learning_trig/img/Stim/FN_001_g.png","13","","","","","","","","","","","","","","","","","",""
"","animation","44","227743","0.0-5.0-15.0-1.0","","","","","","[{""stimulus"":""https://ziweizhang0304.github.io/Stats_learning_trig/img/Stim/FN_020_g.png"",""time"":342.2000000476837},{""stimulus"":""blank"",""time"":643.5},{""stimulus"":""https://ziweizhang0304.github.io/Stats_learning_trig/img/Stim/FN_002_g.png"",""time"":681},{""stimulus"":""blank"",""time"":982.3000000715256},{""stimulus"":""https://ziweizhang0304.github.io/Stats_learning_trig/img/Stim/FN_016_g.png"",""time"":1022.2000000476837},{""stimulus"":""blank"",""time"":1323.2000000476837},{""stimulus"":""https://ziweizhang0304.github.io/Stats_learning_trig/img/Stim/FN_017_g.png"",""time"":1361},{""stimulus"":""blank"",""time"":1661.9000000953674},{""stimulus"":""https://ziweizhang0304.github.io/Stats_learning_trig/img/Stim/FN_001_g.png"",""time"":1700.8000000715256},{""stimulus"":""blank"",""time"":2002.3000000715256},{""stimulus"":""https://ziweizhang0304.github.io/Stats_learning_trig/img/Stim/FN_014_g.png"",""time"":2041.9000000953674},{""stimulus"":""blank"",""time"":2343.2000000476837},{""stimulus"":""https://ziweizhang0304.github.io/Stats_learning_trig/img/Stim/FN_022_g.png"",""time"":2381.600000023842},{""stimulus"":""blank"",""time"":2683.4000000953674},{""stimulus"":""https://ziweizhang0304.github.io/Stats_learning_trig/img/Stim/FN_024_g.png"",""time"":2721.8000000715256},{""stimulus"":""blank"",""time"":3022.4000000953674},{""stimulus"":""https://ziweizhang0304.github.io/Stats_learning_trig/img/Stim/FN_015_g.png"",""time"":3061},{""stimulus"":""blank"",""time"":3361.7000000476837},{""stimulus"":""https://ziweizhang0304.github.io/Stats_learning_trig/img/Stim/FN_007_g.png"",""time"":3401.3000000715256},{""stimulus"":""blank"",""time"":3702.7000000476837},{""stimulus"":""https://ziweizhang0304.github.io/Stats_learning_trig/img/Stim/FN_021_g.png"",""time"":3742.100000023842},{""stimulus"":""blank"",""time"":4042.9000000953674},{""stimulus"":""https://ziweizhang0304.github.io/Stats_learning_trig/img/Stim/FN_011_g.png"",""time"":4081.7000000476837},{""stimulus"":""blank"",""time"":4382.900000095367}]","[{""key_press"":32,""rt"":2106.8000000715256,""stimulus"":""https://ziweizhang0304.github.io/Stats_learning_trig/img/Stim/FN_014_g.png""}]","406","https://ziweizhang0304.github.io/Stats_learning_trig/img/Stim/FN_001_g.png","post_TD","16","1700.8000000715256","2106.8000000715256","slow","5","2","62711f17fc06135fb32b6e6b","","","","","",""
"","image-keyboard-response","45","228339","0.0-5.0-16.0-0.0","592.6000000238419","","","https://ziweizhang0304.github.io/Stats_learning_trig/img/Stim/FN_001_g.png","13","","","","","","","","","","","","","","","","","",""
"","animation","46","232760","0.0-5.0-16.0-1.0","","","","","","[{""stimulus"":""https://ziweizhang0304.github.io/Stats_learning_trig/img/Stim/FN_024_g.png"",""time"":342},{""stimulus"":""blank"",""time"":643},{""stimulus"":""https://ziweizhang0304.github.io/Stats_learning_trig/img/Stim/FN_015_g.png"",""time"":681.6000000238419},{""stimulus"":""blank"",""time"":983},{""stimulus"":""https://ziweizhang0304.github.io/Stats_learning_trig/img/Stim/FN_021_g.png"",""time"":1021.5},{""stimulus"":""blank"",""time"":1321.7000000476837},{""stimulus"":""https://ziweizhang0304.github.io/Stats_learning_trig/img/Stim/FN_011_g.png"",""time"":1361.2000000476837},{""stimulus"":""blank"",""time"":1661.9000000953674},{""stimulus"":""https://ziweizhang0304.github.io/Stats_learning_trig/img/Stim/FN_017_g.png"",""time"":1701.4000000953674},{""stimulus"":""blank"",""time"":2002.4000000953674},{""stimulus"":""https://ziweizhang0304.github.io/Stats_learning_trig/img/Stim/FN_001_g.png"",""time"":2041.8000000715256},{""stimulus"":""blank"",""time"":2343.600000023842},{""stimulus"":""https://ziweizhang0304.github.io/Stats_learning_trig/img/Stim/FN_014_g.png"",""time"":2381.3000000715256},{""stimulus"":""blank"",""time"":2682.5},{""stimulus"":""https://ziweizhang0304.github.io/Stats_learning_trig/img/Stim/FN_016_g.png"",""time"":2720.8000000715256},{""stimulus"":""blank"",""time"":3021.3000000715256},{""stimulus"":""https://ziweizhang0304.github.io/Stats_learning_trig/img/Stim/FN_022_g.png"",""time"":3061.2000000476837},{""stimulus"":""blank"",""time"":3362.4000000953674},{""stimulus"":""https://ziweizhang0304.github.io/Stats_learning_trig/img/Stim/FN_020_g.png"",""time"":3401.100000023842},{""stimulus"":""blank"",""time"":3702.3000000715256},{""stimulus"":""https://ziweizhang0304.github.io/Stats_learning_trig/img/Stim/FN_007_g.png"",""time"":3741.600000023842},{""stimulus"":""blank"",""time"":4041.9000000953674},{""stimulus"":""https://ziweizhang0304.github.io/Stats_learning_trig/img/Stim/FN_002_g.png"",""time"":4081.3000000715256},{""stimulus"":""blank"",""time"":4381.800000071526}]","[{""key_press"":32,""rt"":2420.5,""stimulus"":""https://ziweizhang0304.github.io/Stats_learning_trig/img/Stim/FN_014_g.png""}]","378.6999999284744","https://ziweizhang0304.github.io/Stats_learning_trig/img/Stim/FN_001_g.png","post_TD","17","2041.8000000715256","2420.5","slow","6","2","62711f17fc06135fb32b6e6b","","","","","",""
"","image-keyboard-response","47","233213","0.0-5.0-17.0-0.0","449.5","","","https://ziweizhang0304.github.io/Stats_learning_trig/img/Stim/FN_001_g.png","13","","","","","","","","","","","","","","","","","",""
"","animation","48","237635","0.0-5.0-17.0-1.0","","","","","","[{""stimulus"":""https://ziweizhang0304.github.io/Stats_learning_trig/img/Stim/FN_020_g.png"",""time"":341.89999997615814},{""stimulus"":""blank"",""time"":642.7000000476837},{""stimulus"":""https://ziweizhang0304.github.io/Stats_learning_trig/img/Stim/FN_015_g.png"",""time"":682},{""stimulus"":""blank"",""time"":982.6000000238419},{""stimulus"":""https://ziweizhang0304.github.io/Stats_learning_trig/img/Stim/FN_021_g.png"",""time"":1021.6000000238419},{""stimulus"":""blank"",""time"":1321.8999999761581},{""stimulus"":""https://ziweizhang0304.github.io/Stats_learning_trig/img/Stim/FN_011_g.png"",""time"":1361.2999999523163},{""stimulus"":""blank"",""time"":1663},{""stimulus"":""https://ziweizhang0304.github.io/Stats_learning_trig/img/Stim/FN_024_g.png"",""time"":1701.7000000476837},{""stimulus"":""blank"",""time"":2002.7000000476837},{""stimulus"":""https://ziweizhang0304.github.io/Stats_learning_trig/img/Stim/FN_022_g.png"",""time"":2041.3999999761581},{""stimulus"":""blank"",""time"":2343.399999976158},{""stimulus"":""https://ziweizhang0304.github.io/Stats_learning_trig/img/Stim/FN_017_g.png"",""time"":2381.100000023842},{""stimulus"":""blank"",""time"":2682.100000023842},{""stimulus"":""https://ziweizhang0304.github.io/Stats_learning_trig/img/Stim/FN_001_g.png"",""time"":2721.399999976158},{""stimulus"":""blank"",""time"":3022.2000000476837},{""stimulus"":""https://ziweizhang0304.github.io/Stats_learning_trig/img/Stim/FN_014_g.png"",""time"":3061.5},{""stimulus"":""blank"",""time"":3361.899999976158},{""stimulus"":""https://ziweizhang0304.github.io/Stats_learning_trig/img/Stim/FN_016_g.png"",""time"":3402.399999976158},{""stimulus"":""blank"",""time"":3703.2999999523163},{""stimulus"":""https://ziweizhang0304.github.io/Stats_learning_trig/img/Stim/FN_007_g.png"",""time"":3741.399999976158},{""stimulus"":""blank"",""time"":4043.100000023842},{""stimulus"":""https://ziweizhang0304.github.io/Stats_learning_trig/img/Stim/FN_002_g.png"",""time"":4081.399999976158},{""stimulus"":""blank"",""time"":4382.600000023842}]","[{""key_press"":32,""rt"":3084.600000023842,""stimulus"":""https://ziweizhang0304.github.io/Stats_learning_trig/img/Stim/FN_014_g.png""}]","363.2000000476837","https://ziweizhang0304.github.io/Stats_learning_trig/img/Stim/FN_001_g.png","post_TD","18","2721.399999976158","3084.600000023842","slow","8","2","62711f17fc06135fb32b6e6b","","","","","",""
"","image-keyboard-response","49","238144","0.0-5.0-18.0-0.0","505.6999999284744","","","https://ziweizhang0304.github.io/Stats_learning_trig/img/Stim/FN_017_g.png","13","","","","","","","","","","","","","","","","","",""
"","animation","50","242565","0.0-5.0-18.0-1.0","","","","","","[{""stimulus"":""https://ziweizhang0304.github.io/Stats_learning_trig/img/Stim/FN_024_g.png"",""time"":341.89999997615814},{""stimulus"":""blank"",""time"":642.6000000238419},{""stimulus"":""https://ziweizhang0304.github.io/Stats_learning_trig/img/Stim/FN_015_g.png"",""time"":681.7999999523163},{""stimulus"":""blank"",""time"":982.1000000238419},{""stimulus"":""https://ziweizhang0304.github.io/Stats_learning_trig/img/Stim/FN_021_g.png"",""time"":1021.2999999523163},{""stimulus"":""blank"",""time"":1322.3999999761581},{""stimulus"":""https://ziweizhang0304.github.io/Stats_learning_trig/img/Stim/FN_011_g.png"",""time"":1362.1000000238419},{""stimulus"":""blank"",""time"":1663.2999999523163},{""stimulus"":""https://ziweizhang0304.github.io/Stats_learning_trig/img/Stim/FN_017_g.png"",""time"":1702.1000000238419},{""stimulus"":""blank"",""time"":2002.3999999761581},{""stimulus"":""https://ziweizhang0304.github.io/Stats_learning_trig/img/Stim/FN_001_g.png"",""time"":2042.8999999761581},{""stimulus"":""blank"",""time"":2343.600000023842},{""stimulus"":""https://ziweizhang0304.github.io/Stats_learning_trig/img/Stim/FN_014_g.png"",""time"":2381.2000000476837},{""stimulus"":""blank"",""time"":2682.2000000476837},{""stimulus"":""https://ziweizhang0304.github.io/Stats_learning_trig/img/Stim/FN_016_g.png"",""time"":2721.2999999523163},{""stimulus"":""blank"",""time"":3022.7000000476837},{""stimulus"":""https://ziweizhang0304.github.io/Stats_learning_trig/img/Stim/FN_022_g.png"",""time"":3061.399999976158},{""stimulus"":""blank"",""time"":3362.7999999523163},{""stimulus"":""https://ziweizhang0304.github.io/Stats_learning_trig/img/Stim/FN_020_g.png"",""time"":3401.100000023842},{""stimulus"":""blank"",""time"":3701.600000023842},{""stimulus"":""https://ziweizhang0304.github.io/Stats_learning_trig/img/Stim/FN_007_g.png"",""time"":3741.600000023842},{""stimulus"":""blank"",""time"":4042.7000000476837},{""stimulus"":""https://ziweizhang0304.github.io/Stats_learning_trig/img/Stim/FN_002_g.png"",""time"":4081.100000023842},{""stimulus"":""blank"",""time"":4381.399999976158}]","[{""key_press"":32,""rt"":2116.899999976158,""stimulus"":""https://ziweizhang0304.github.io/Stats_learning_trig/img/Stim/FN_001_g.png""}]","414.7999999523163","https://ziweizhang0304.github.io/Stats_learning_trig/img/Stim/FN_017_g.png","post_TD","19","1702.1000000238419","2116.899999976158","slow","5","1","62711f17fc06135fb32b6e6b","","","","","",""
"","image-keyboard-response","51","243040","0.0-5.0-19.0-0.0","470.5","","","https://ziweizhang0304.github.io/Stats_learning_trig/img/Stim/FN_019_g.png","13","","","","","","","","","","","","","","","","","",""
"","animation","52","247462","0.0-5.0-19.0-1.0","","","","","","[{""stimulus"":""https://ziweizhang0304.github.io/Stats_learning_trig/img/Stim/FN_022_g.png"",""time"":341.39999997615814},{""stimulus"":""blank"",""time"":642},{""stimulus"":""https://ziweizhang0304.github.io/Stats_learning_trig/img/Stim/FN_015_g.png"",""time"":681.7999999523163},{""stimulus"":""blank"",""time"":983.5},{""stimulus"":""https://ziweizhang0304.github.io/Stats_learning_trig/img/Stim/FN_016_g.png"",""time"":1022.1000000238419},{""stimulus"":""blank"",""time"":1323.3999999761581},{""stimulus"":""https://ziweizhang0304.github.io/Stats_learning_trig/img/Stim/FN_024_g.png"",""time"":1361.5},{""stimulus"":""blank"",""time"":1662.5},{""stimulus"":""https://ziweizhang0304.github.io/Stats_learning_trig/img/Stim/FN_002_g.png"",""time"":1701.6000000238419},{""stimulus"":""blank"",""time"":2002.3999999761581},{""stimulus"":""https://ziweizhang0304.github.io/Stats_learning_trig/img/Stim/FN_021_g.png"",""time"":2042.1000000238419},{""stimulus"":""blank"",""time"":2343.2999999523163},{""stimulus"":""https://ziweizhang0304.github.io/Stats_learning_trig/img/Stim/FN_013_g.png"",""time"":2380.899999976158},{""stimulus"":""blank"",""time"":2681.1999999284744},{""stimulus"":""https://ziweizhang0304.github.io/Stats_learning_trig/img/Stim/FN_026_g.png"",""time"":2721.6999999284744},{""stimulus"":""blank"",""time"":3022},{""stimulus"":""https://ziweizhang0304.github.io/Stats_learning_trig/img/Stim/FN_019_g.png"",""time"":3061.399999976158},{""stimulus"":""blank"",""time"":3362.2999999523163},{""stimulus"":""https://ziweizhang0304.github.io/Stats_learning_trig/img/Stim/FN_020_g.png"",""time"":3401.100000023842},{""stimulus"":""blank"",""time"":3702},{""stimulus"":""https://ziweizhang0304.github.io/Stats_learning_trig/img/Stim/FN_007_g.png"",""time"":3741.1999999284744},{""stimulus"":""blank"",""time"":4042.5},{""stimulus"":""https://ziweizhang0304.github.io/Stats_learning_trig/img/Stim/FN_011_g.png"",""time"":4081.899999976158},{""stimulus"":""blank"",""time"":4383.5}]","[{""key_press"":32,""rt"":3509.0999999046326,""stimulus"":""https://ziweizhang0304.github.io/Stats_learning_trig/img/Stim/FN_020_g.png""}]","447.6999999284744","https://ziweizhang0304.github.io/Stats_learning_trig/img/Stim/FN_019_g.png","post_TD","20","3061.399999976158","3509.0999999046326","fast","9","3","62711f17fc06135fb32b6e6b","","","","","",""
"","image-keyboard-response","53","248611","0.0-5.0-20.0-0.0","1145.3999999761581","","","https://ziweizhang0304.github.io/Stats_learning_trig/img/Stim/FN_014_g.png","13","","","","","","","","","","","","","","","","","",""
"","animation","54","253032","0.0-5.0-20.0-1.0","","","","","","[{""stimulus"":""https://ziweizhang0304.github.io/Stats_learning_trig/img/Stim/FN_024_g.png"",""time"":341.2999999523163},{""stimulus"":""blank"",""time"":641.7999999523163},{""stimulus"":""https://ziweizhang0304.github.io/Stats_learning_trig/img/Stim/FN_015_g.png"",""time"":681.3999999761581},{""stimulus"":""blank"",""time"":982.3999999761581},{""stimulus"":""https://ziweizhang0304.github.io/Stats_learning_trig/img/Stim/FN_021_g.png"",""time"":1021.8999999761581},{""stimulus"":""blank"",""time"":1323},{""stimulus"":""https://ziweizhang0304.github.io/Stats_learning_trig/img/Stim/FN_011_g.png"",""time"":1361.8999999761581},{""stimulus"":""blank"",""time"":1663.6999999284744},{""stimulus"":""https://ziweizhang0304.github.io/Stats_learning_trig/img/Stim/FN_017_g.png"",""time"":1701.7999999523163},{""stimulus"":""blank"",""time"":2002.7999999523163},{""stimulus"":""https://ziweizhang0304.github.io/Stats_learning_trig/img/Stim/FN_001_g.png"",""time"":2041.6000000238419},{""stimulus"":""blank"",""time"":2343.1999999284744},{""stimulus"":""https://ziweizhang0304.github.io/Stats_learning_trig/img/Stim/FN_014_g.png"",""time"":2381.600000023842},{""stimulus"":""blank"",""time"":2682.6999999284744},{""stimulus"":""https://ziweizhang0304.github.io/Stats_learning_trig/img/Stim/FN_016_g.png"",""time"":2721.2999999523163},{""stimulus"":""blank"",""time"":3021.7999999523163},{""stimulus"":""https://ziweizhang0304.github.io/Stats_learning_trig/img/Stim/FN_022_g.png"",""time"":3061.5},{""stimulus"":""blank"",""time"":3362.600000023842},{""stimulus"":""https://ziweizhang0304.github.io/Stats_learning_trig/img/Stim/FN_020_g.png"",""time"":3401.100000023842},{""stimulus"":""blank"",""time"":3702.399999976158},{""stimulus"":""https://ziweizhang0304.github.io/Stats_learning_trig/img/Stim/FN_007_g.png"",""time"":3741.100000023842},{""stimulus"":""blank"",""time"":4042},{""stimulus"":""https://ziweizhang0304.github.io/Stats_learning_trig/img/Stim/FN_002_g.png"",""time"":4081.399999976158},{""stimulus"":""blank"",""time"":4382.5}]","[{""key_press"":32,""rt"":2800.0999999046326,""stimulus"":""https://ziweizhang0304.github.io/Stats_learning_trig/img/Stim/FN_016_g.png""}]","418.4999998807907","https://ziweizhang0304.github.io/Stats_learning_trig/img/Stim/FN_014_g.png","post_TD","21","2381.600000023842","2800.0999999046326","slow","7","3","62711f17fc06135fb32b6e6b","","","","","",""
"","image-keyboard-response","55","253573","0.0-5.0-21.0-0.0","536.6999999284744","","","https://ziweizhang0304.github.io/Stats_learning_trig/img/Stim/FN_017_g.png","13","","","","","","","","","","","","","","","","","",""
"","animation","56","257994","0.0-5.0-21.0-1.0","","","","","","[{""stimulus"":""https://ziweizhang0304.github.io/Stats_learning_trig/img/Stim/FN_020_g.png"",""time"":341.7999999523163},{""stimulus"":""blank"",""time"":642.6000000238419},{""stimulus"":""https://ziweizhang0304.github.io/Stats_learning_trig/img/Stim/FN_015_g.png"",""time"":681.8999999761581},{""stimulus"":""blank"",""time"":983.2999999523163},{""stimulus"":""https://ziweizhang0304.github.io/Stats_learning_trig/img/Stim/FN_021_g.png"",""time"":1021.6999999284744},{""stimulus"":""blank"",""time"":1323.1999999284744},{""stimulus"":""https://ziweizhang0304.github.io/Stats_learning_trig/img/Stim/FN_011_g.png"",""time"":1361.2999999523163},{""stimulus"":""blank"",""time"":1662.1999999284744},{""stimulus"":""https://ziweizhang0304.github.io/Stats_learning_trig/img/Stim/FN_024_g.png"",""time"":1701.7999999523163},{""stimulus"":""blank"",""time"":2003.3999999761581},{""stimulus"":""https://ziweizhang0304.github.io/Stats_learning_trig/img/Stim/FN_022_g.png"",""time"":2041.7999999523163},{""stimulus"":""blank"",""time"":2343.1999999284744},{""stimulus"":""https://ziweizhang0304.github.io/Stats_learning_trig/img/Stim/FN_017_g.png"",""time"":2381.100000023842},{""stimulus"":""blank"",""time"":2682.100000023842},{""stimulus"":""https://ziweizhang0304.github.io/Stats_learning_trig/img/Stim/FN_001_g.png"",""time"":2721.2999999523163},{""stimulus"":""blank"",""time"":3022.899999976158},{""stimulus"":""https://ziweizhang0304.github.io/Stats_learning_trig/img/Stim/FN_014_g.png"",""time"":3061.2999999523163},{""stimulus"":""blank"",""time"":3362.100000023842},{""stimulus"":""https://ziweizhang0304.github.io/Stats_learning_trig/img/Stim/FN_016_g.png"",""time"":3401.600000023842},{""stimulus"":""blank"",""time"":3703.1999999284744},{""stimulus"":""https://ziweizhang0304.github.io/Stats_learning_trig/img/Stim/FN_007_g.png"",""time"":3741.1999999284744},{""stimulus"":""blank"",""time"":4042.6999999284744},{""stimulus"":""https://ziweizhang0304.github.io/Stats_learning_trig/img/Stim/FN_002_g.png"",""time"":4081.6999999284744},{""stimulus"":""blank"",""time"":4383.299999952316}]","[{""key_press"":32,""rt"":2733.6999999284744,""stimulus"":""https://ziweizhang0304.github.io/Stats_learning_trig/img/Stim/FN_001_g.png""}]","352.59999990463257","https://ziweizhang0304.github.io/Stats_learning_trig/img/Stim/FN_017_g.png","post_TD","22","2381.100000023842","2733.6999999284744","slow","7","1","62711f17fc06135fb32b6e6b","","","","","",""
"","image-keyboard-response","57","258476","0.0-5.0-22.0-0.0","478","","","https://ziweizhang0304.github.io/Stats_learning_trig/img/Stim/FN_019_g.png","13","","","","","","","","","","","","","","","","","",""
"","animation","58","262897","0.0-5.0-22.0-1.0","","","","","","[{""stimulus"":""https://ziweizhang0304.github.io/Stats_learning_trig/img/Stim/FN_024_g.png"",""time"":342.39999997615814},{""stimulus"":""blank"",""time"":643.5999999046326},{""stimulus"":""https://ziweizhang0304.github.io/Stats_learning_trig/img/Stim/FN_011_g.png"",""time"":681.6999999284744},{""stimulus"":""blank"",""time"":982.5},{""stimulus"":""https://ziweizhang0304.github.io/Stats_learning_trig/img/Stim/FN_002_g.png"",""time"":1021.8999999761581},{""stimulus"":""blank"",""time"":1323.2999999523163},{""stimulus"":""https://ziweizhang0304.github.io/Stats_learning_trig/img/Stim/FN_022_g.png"",""time"":1360.7999999523163},{""stimulus"":""blank"",""time"":1661.7999999523163},{""stimulus"":""https://ziweizhang0304.github.io/Stats_learning_trig/img/Stim/FN_015_g.png"",""time"":1700.8999999761581},{""stimulus"":""blank"",""time"":2001.7999999523163},{""stimulus"":""https://ziweizhang0304.github.io/Stats_learning_trig/img/Stim/FN_013_g.png"",""time"":2041.2999999523163},{""stimulus"":""blank"",""time"":2343.0999999046326},{""stimulus"":""https://ziweizhang0304.github.io/Stats_learning_trig/img/Stim/FN_026_g.png"",""time"":2381.1999999284744},{""stimulus"":""blank"",""time"":2682},{""stimulus"":""https://ziweizhang0304.github.io/Stats_learning_trig/img/Stim/FN_019_g.png"",""time"":2721},{""stimulus"":""blank"",""time"":3022.7999999523163},{""stimulus"":""https://ziweizhang0304.github.io/Stats_learning_trig/img/Stim/FN_016_g.png"",""time"":3061.5},{""stimulus"":""blank"",""time"":3363},{""stimulus"":""https://ziweizhang0304.github.io/Stats_learning_trig/img/Stim/FN_020_g.png"",""time"":3401.2999999523163},{""stimulus"":""blank"",""time"":3702.0999999046326},{""stimulus"":""https://ziweizhang0304.github.io/Stats_learning_trig/img/Stim/FN_007_g.png"",""time"":3741.399999976158},{""stimulus"":""blank"",""time"":4042.6999999284744},{""stimulus"":""https://ziweizhang0304.github.io/Stats_learning_trig/img/Stim/FN_021_g.png"",""time"":4081.399999976158},{""stimulus"":""blank"",""time"":4382.099999904633}]","[{""key_press"":32,""rt"":3149,""stimulus"":""https://ziweizhang0304.github.io/Stats_learning_trig/img/Stim/FN_016_g.png""}]","428","https://ziweizhang0304.github.io/Stats_learning_trig/img/Stim/FN_019_g.png","post_TD","23","2721","3149","fast","8","3","62711f17fc06135fb32b6e6b","","","","","",""
"","image-keyboard-response","59","263368","0.0-5.0-23.0-0.0","466.7000000476837","","","https://ziweizhang0304.github.io/Stats_learning_trig/img/Stim/FN_017_g.png","13","","","","","","","","","","","","","","","","","",""
"","animation","60","267789","0.0-5.0-23.0-1.0","","","","","","[{""stimulus"":""https://ziweizhang0304.github.io/Stats_learning_trig/img/Stim/FN_022_g.png"",""time"":342.5},{""stimulus"":""blank"",""time"":644.2999999523163},{""stimulus"":""https://ziweizhang0304.github.io/Stats_learning_trig/img/Stim/FN_020_g.png"",""time"":682.2999999523163},{""stimulus"":""blank"",""time"":983.6000000238419},{""stimulus"":""https://ziweizhang0304.github.io/Stats_learning_trig/img/Stim/FN_002_g.png"",""time"":1021.1000000238419},{""stimulus"":""blank"",""time"":1322.3999999761581},{""stimulus"":""https://ziweizhang0304.github.io/Stats_learning_trig/img/Stim/FN_021_g.png"",""time"":1361.1000000238419},{""stimulus"":""blank"",""time"":1662},{""stimulus"":""https://ziweizhang0304.github.io/Stats_learning_trig/img/Stim/FN_016_g.png"",""time"":1701.1000000238419},{""stimulus"":""blank"",""time"":2002.2000000476837},{""stimulus"":""https://ziweizhang0304.github.io/Stats_learning_trig/img/Stim/FN_017_g.png"",""time"":2041.5},{""stimulus"":""blank"",""time"":2341.899999976158},{""stimulus"":""https://ziweizhang0304.github.io/Stats_learning_trig/img/Stim/FN_001_g.png"",""time"":2382.2999999523163},{""stimulus"":""blank"",""time"":2683.5},{""stimulus"":""https://ziweizhang0304.github.io/Stats_learning_trig/img/Stim/FN_014_g.png"",""time"":2721.100000023842},{""stimulus"":""blank"",""time"":3021.899999976158},{""stimulus"":""https://ziweizhang0304.github.io/Stats_learning_trig/img/Stim/FN_024_g.png"",""time"":3061},{""stimulus"":""blank"",""time"":3362.2000000476837},{""stimulus"":""https://ziweizhang0304.github.io/Stats_learning_trig/img/Stim/FN_015_g.png"",""time"":3402.899999976158},{""stimulus"":""blank"",""time"":3704.2000000476837},{""stimulus"":""https://ziweizhang0304.github.io/Stats_learning_trig/img/Stim/FN_007_g.png"",""time"":3740.899999976158},{""stimulus"":""blank"",""time"":4041.7000000476837},{""stimulus"":""https://ziweizhang0304.github.io/Stats_learning_trig/img/Stim/FN_011_g.png"",""time"":4081.2999999523163},{""stimulus"":""blank"",""time"":4382.700000047684}]","[{""key_press"":32,""rt"":2450.100000023842,""stimulus"":""https://ziweizhang0304.github.io/Stats_learning_trig/img/Stim/FN_001_g.png""}]","408.60000002384186","https://ziweizhang0304.github.io/Stats_learning_trig/img/Stim/FN_017_g.png","post_TD","24","2041.5","2450.100000023842","slow","6","1","62711f17fc06135fb32b6e6b","5695b","","","","",""
"","survey-text","61","293220","0.0-6.0","25415.100000023842","","","","","","","","","","","","","","","","","","{""Q0"":""No strategies, I just concentrated and pressed as fast as I could""}","","","",""
"","survey-text","62","328448","0.0-7.0","35222.39999997616","","","","","","","","","","","","","","","","","","{""[object Object]"":""Sometimes there were 3 or 4 of the same shape in a row that's the only pattern I noticed\n""}","","","",""
"","instructions","63","335249","0.0-8.0","6798.100000023842","","[{""page_index"":0,""viewing_time"":6797.700000047684}]","","","","","","","","","","","","","","","","","","","",""
"","free-sort","64","357926","0.0-9.0","22675","","","","","","","","","post_drag","","","","fast","","","","","","[{""src"":""https://ziweizhang0304.github.io/Stats_learning_trig/img/Stim/FN_013_g.png"",""x"":475,""y"":0},{""src"":""https://ziweizhang0304.github.io/Stats_learning_trig/img/Stim/FN_019_g.png"",""x"":-225,""y"":50},{""src"":""https://ziweizhang0304.github.io/Stats_learning_trig/img/Stim/FN_026_g.png"",""x"":475,""y"":50}]","[{""src"":""https://ziweizhang0304.github.io/Stats_learning_trig/img/Stim/FN_026_g.png"",""x"":27,""y"":33},{""src"":""https://ziweizhang0304.github.io/Stats_learning_trig/img/Stim/FN_013_g.png"",""x"":123,""y"":35},{""src"":""https://ziweizhang0304.github.io/Stats_learning_trig/img/Stim/FN_019_g.png"",""x"":225,""y"":14}]","[{""src"":""https://ziweizhang0304.github.io/Stats_learning_trig/img/Stim/FN_013_g.png"",""x"":123,""y"":35},{""src"":""https://ziweizhang0304.github.io/Stats_learning_trig/img/Stim/FN_019_g.png"",""x"":225,""y"":14},{""src"":""https://ziweizhang0304.github.io/Stats_learning_trig/img/Stim/FN_026_g.png"",""x"":27,""y"":33}]",""
"","free-sort","65","370565","0.0-10.0","12637.799999952316","","","","","","","","","post_drag","","","","slow","","","","","","[{""src"":""https://ziweizhang0304.github.io/Stats_learning_trig/img/Stim/FN_001_g.png"",""x"":475,""y"":0},{""src"":""https://ziweizhang0304.github.io/Stats_learning_trig/img/Stim/FN_014_g.png"",""x"":-225,""y"":50},{""src"":""https://ziweizhang0304.github.io/Stats_learning_trig/img/Stim/FN_017_g.png"",""x"":475,""y"":50}]","[{""src"":""https://ziweizhang0304.github.io/Stats_learning_trig/img/Stim/FN_014_g.png"",""x"":26,""y"":25},{""src"":""https://ziweizhang0304.github.io/Stats_learning_trig/img/Stim/FN_017_g.png"",""x"":131,""y"":39},{""src"":""https://ziweizhang0304.github.io/Stats_learning_trig/img/Stim/FN_001_g.png"",""x"":213,""y"":18}]","[{""src"":""https://ziweizhang0304.github.io/Stats_learning_trig/img/Stim/FN_001_g.png"",""x"":213,""y"":18},{""src"":""https://ziweizhang0304.github.io/Stats_learning_trig/img/Stim/FN_014_g.png"",""x"":26,""y"":25},{""src"":""https://ziweizhang0304.github.io/Stats_learning_trig/img/Stim/FN_017_g.png"",""x"":131,""y"":39}]",""
"","survey-multi-choice","66","379296","0.0-11.0","8725","","","","","","","","","","","","","","","","62711f17fc06135fb32b6e6b","","{""awareness"":""No"",""attention_check"":""Press SPACEBAR to a target""}","","","","[0,1]"
