"success","trial_type","trial_index","time_elapsed","internal_node_id","rt","url","view_history","stimulus","key_press","animation_sequence","response","TD_rt","TD_target","test_part","TD_trial_number","onset","offset","attention_state","TD_target_position","TD_within_triplet_counter","participant","yoke_participant","responses","init_locations","moves","final_locations","question_order"
"true","fullscreen","0","2691","0.0-0.0","","","","","","","","","","","","","","","","","","","","","","",""
"","external-html","1","14587","0.0-1.0","11612","https://ziweizhang0304.github.io/Stats_learning_trig/content/consent.html","","","","","","","","","","","","","","","","","","","","",""
"","instructions","2","31386","0.0-2.0","16793","","[{""page_index"":0,""viewing_time"":1430},{""page_index"":1,""viewing_time"":7462},{""page_index"":2,""viewing_time"":6302},{""page_index"":3,""viewing_time"":1599}]","","","","","","","","","","","","","","","","","","","",""
"","image-keyboard-response","3","37134","0.0-3.0-0.0-0.0","5747","","","https://ziweizhang0304.github.io/Stats_learning_trig/img/Stim/FN_020_g.png","13","","","","","","","","","","","","","","","","","",""
"","animation","4","41827","0.0-3.0-0.0-1.0","","","","","","[{""stimulus"":""https://ziweizhang0304.github.io/Stats_learning_trig/img/Stim/FN_018_g.png"",""time"":586},{""stimulus"":""blank"",""time"":893},{""stimulus"":""https://ziweizhang0304.github.io/Stats_learning_trig/img/Stim/FN_011_g.png"",""time"":934},{""stimulus"":""blank"",""time"":1253},{""stimulus"":""https://ziweizhang0304.github.io/Stats_learning_trig/img/Stim/FN_026_g.png"",""time"":1274},{""stimulus"":""blank"",""time"":1593},{""stimulus"":""https://ziweizhang0304.github.io/Stats_learning_trig/img/Stim/FN_019_g.png"",""time"":1614},{""stimulus"":""blank"",""time"":1933},{""stimulus"":""https://ziweizhang0304.github.io/Stats_learning_trig/img/Stim/FN_021_g.png"",""time"":1954},{""stimulus"":""blank"",""time"":2273},{""stimulus"":""https://ziweizhang0304.github.io/Stats_learning_trig/img/Stim/FN_010_g.png"",""time"":2294},{""stimulus"":""blank"",""time"":2612},{""stimulus"":""https://ziweizhang0304.github.io/Stats_learning_trig/img/Stim/FN_022_g.png"",""time"":2636},{""stimulus"":""blank"",""time"":2953},{""stimulus"":""https://ziweizhang0304.github.io/Stats_learning_trig/img/Stim/FN_020_g.png"",""time"":2992},{""stimulus"":""blank"",""time"":3293},{""stimulus"":""https://ziweizhang0304.github.io/Stats_learning_trig/img/Stim/FN_017_g.png"",""time"":3333},{""stimulus"":""blank"",""time"":3653},{""stimulus"":""https://ziweizhang0304.github.io/Stats_learning_trig/img/Stim/FN_001_g.png"",""time"":3674},{""stimulus"":""blank"",""time"":3993},{""stimulus"":""https://ziweizhang0304.github.io/Stats_learning_trig/img/Stim/FN_025_g.png"",""time"":4014},{""stimulus"":""blank"",""time"":4333},{""stimulus"":""https://ziweizhang0304.github.io/Stats_learning_trig/img/Stim/FN_002_g.png"",""time"":4354},{""stimulus"":""blank"",""time"":4673}]","[{""key_press"":32,""rt"":3370,""stimulus"":""https://ziweizhang0304.github.io/Stats_learning_trig/img/Stim/FN_017_g.png""}]","378","https://ziweizhang0304.github.io/Stats_learning_trig/img/Stim/FN_020_g.png","post_prac","","","","","","","","","","","","",""
"","html-keyboard-response","5","46433","0.0-3.0-0.0-2.0","4603","","","<p>Your reaction time for this trial was 378 ms.</p><p>Remember that you should only press the SPACEBAR when you see the shape presented at the beginning of the trial. </b> </p><p>Press enter to move on.</p>","13","","","","","","","","","","","","","","","","","",""
"","image-keyboard-response","6","51137","0.0-3.0-1.0-0.0","4703","","","https://ziweizhang0304.github.io/Stats_learning_trig/img/Stim/FN_012_g.png","13","","","","","","","","","","","","","","","","","",""
"","animation","7","55648","0.0-3.0-1.0-1.0","","","","","","[{""stimulus"":""https://ziweizhang0304.github.io/Stats_learning_trig/img/Stim/FN_001_g.png"",""time"":341},{""stimulus"":""blank"",""time"":661},{""stimulus"":""https://ziweizhang0304.github.io/Stats_learning_trig/img/Stim/FN_010_g.png"",""time"":682},{""stimulus"":""blank"",""time"":1001},{""stimulus"":""https://ziweizhang0304.github.io/Stats_learning_trig/img/Stim/FN_018_g.png"",""time"":1041},{""stimulus"":""blank"",""time"":1361},{""stimulus"":""https://ziweizhang0304.github.io/Stats_learning_trig/img/Stim/FN_015_g.png"",""time"":1383},{""stimulus"":""blank"",""time"":1701},{""stimulus"":""https://ziweizhang0304.github.io/Stats_learning_trig/img/Stim/FN_008_g.png"",""time"":1722},{""stimulus"":""blank"",""time"":2041},{""stimulus"":""https://ziweizhang0304.github.io/Stats_learning_trig/img/Stim/FN_012_g.png"",""time"":2063},{""stimulus"":""blank"",""time"":2380},{""stimulus"":""https://ziweizhang0304.github.io/Stats_learning_trig/img/Stim/FN_011_g.png"",""time"":2421},{""stimulus"":""blank"",""time"":2741},{""stimulus"":""https://ziweizhang0304.github.io/Stats_learning_trig/img/Stim/FN_026_g.png"",""time"":2763},{""stimulus"":""blank"",""time"":3080},{""stimulus"":""https://ziweizhang0304.github.io/Stats_learning_trig/img/Stim/FN_025_g.png"",""time"":3121},{""stimulus"":""blank"",""time"":3441},{""stimulus"":""https://ziweizhang0304.github.io/Stats_learning_trig/img/Stim/FN_019_g.png"",""time"":3463},{""stimulus"":""blank"",""time"":3781},{""stimulus"":""https://ziweizhang0304.github.io/Stats_learning_trig/img/Stim/FN_002_g.png"",""time"":3822},{""stimulus"":""blank"",""time"":4131},{""stimulus"":""https://ziweizhang0304.github.io/Stats_learning_trig/img/Stim/FN_022_g.png"",""time"":4171},{""stimulus"":""blank"",""time"":4491}]","[{""key_press"":32,""rt"":2469,""stimulus"":""https://ziweizhang0304.github.io/Stats_learning_trig/img/Stim/FN_011_g.png""}]","406","https://ziweizhang0304.github.io/Stats_learning_trig/img/Stim/FN_012_g.png","post_prac","","","","","","","","","","","","",""
"","html-keyboard-response","8","57633","0.0-3.0-1.0-2.0","1982","","","<p>Your reaction time for this trial was 406 ms.</p><p>Remember that you should only press the SPACEBAR when you see the shape presented at the beginning of the trial. </b> </p><p>Press enter to move on.</p>","13","","","","","","","","","","","","","","","","","",""
"","image-keyboard-response","9","59105","0.0-3.0-2.0-0.0","1471","","","https://ziweizhang0304.github.io/Stats_learning_trig/img/Stim/FN_020_g.png","13","","","","","","","","","","","","","","","","","",""
"","animation","10","63608","0.0-3.0-2.0-1.0","","","","","","[{""stimulus"":""https://ziweizhang0304.github.io/Stats_learning_trig/img/Stim/FN_022_g.png"",""time"":343},{""stimulus"":""blank"",""time"":650},{""stimulus"":""https://ziweizhang0304.github.io/Stats_learning_trig/img/Stim/FN_010_g.png"",""time"":703},{""stimulus"":""blank"",""time"":1023},{""stimulus"":""https://ziweizhang0304.github.io/Stats_learning_trig/img/Stim/FN_019_g.png"",""time"":1043},{""stimulus"":""blank"",""time"":1363},{""stimulus"":""https://ziweizhang0304.github.io/Stats_learning_trig/img/Stim/FN_026_g.png"",""time"":1383},{""stimulus"":""blank"",""time"":1703},{""stimulus"":""https://ziweizhang0304.github.io/Stats_learning_trig/img/Stim/FN_020_g.png"",""time"":1724},{""stimulus"":""blank"",""time"":2043},{""stimulus"":""https://ziweizhang0304.github.io/Stats_learning_trig/img/Stim/FN_017_g.png"",""time"":2083},{""stimulus"":""blank"",""time"":2403},{""stimulus"":""https://ziweizhang0304.github.io/Stats_learning_trig/img/Stim/FN_021_g.png"",""time"":2423},{""stimulus"":""blank"",""time"":2743},{""stimulus"":""https://ziweizhang0304.github.io/Stats_learning_trig/img/Stim/FN_011_g.png"",""time"":2763},{""stimulus"":""blank"",""time"":3083},{""stimulus"":""https://ziweizhang0304.github.io/Stats_learning_trig/img/Stim/FN_025_g.png"",""time"":3103},{""stimulus"":""blank"",""time"":3423},{""stimulus"":""https://ziweizhang0304.github.io/Stats_learning_trig/img/Stim/FN_001_g.png"",""time"":3463},{""stimulus"":""blank"",""time"":3783},{""stimulus"":""https://ziweizhang0304.github.io/Stats_learning_trig/img/Stim/FN_018_g.png"",""time"":3804},{""stimulus"":""blank"",""time"":4123},{""stimulus"":""https://ziweizhang0304.github.io/Stats_learning_trig/img/Stim/FN_002_g.png"",""time"":4144},{""stimulus"":""blank"",""time"":4463}]","[{""key_press"":32,""rt"":2107,""stimulus"":""https://ziweizhang0304.github.io/Stats_learning_trig/img/Stim/FN_017_g.png""}]","383","https://ziweizhang0304.github.io/Stats_learning_trig/img/Stim/FN_020_g.png","post_prac","","","","","","","","","","","","",""
"","html-keyboard-response","11","64847","0.0-3.0-2.0-2.0","1237","","","<p>Your reaction time for this trial was 383 ms.</p><p>Remember that you should only press the SPACEBAR when you see the shape presented at the beginning of the trial. </b> </p><p>Press enter to move on.</p>","13","","","","","","","","","","","","","","","","","",""
"","instructions","12","66524","0.0-4.0","1675","","[{""page_index"":0,""viewing_time"":1675}]","","","","","","","","","","","","","","","","","","","",""
"","image-keyboard-response","13","67849","0.0-5.0-0.0-0.0","1325","","","https://ziweizhang0304.github.io/Stats_learning_trig/img/Stim/FN_012_g.png","13","","","","","","","","","","","","","","","","","",""
"","animation","14","72298","0.0-5.0-0.0-1.0","","","","","","[{""stimulus"":""https://ziweizhang0304.github.io/Stats_learning_trig/img/Stim/FN_022_g.png"",""time"":348},{""stimulus"":""blank"",""time"":668},{""stimulus"":""https://ziweizhang0304.github.io/Stats_learning_trig/img/Stim/FN_018_g.png"",""time"":689},{""stimulus"":""blank"",""time"":1008},{""stimulus"":""https://ziweizhang0304.github.io/Stats_learning_trig/img/Stim/FN_002_g.png"",""time"":1029},{""stimulus"":""blank"",""time"":1348},{""stimulus"":""https://ziweizhang0304.github.io/Stats_learning_trig/img/Stim/FN_011_g.png"",""time"":1388},{""stimulus"":""blank"",""time"":1688},{""stimulus"":""https://ziweizhang0304.github.io/Stats_learning_trig/img/Stim/FN_019_g.png"",""time"":1728},{""stimulus"":""blank"",""time"":2047},{""stimulus"":""https://ziweizhang0304.github.io/Stats_learning_trig/img/Stim/FN_001_g.png"",""time"":2068},{""stimulus"":""blank"",""time"":2387},{""stimulus"":""https://ziweizhang0304.github.io/Stats_learning_trig/img/Stim/FN_015_g.png"",""time"":2407},{""stimulus"":""blank"",""time"":2728},{""stimulus"":""https://ziweizhang0304.github.io/Stats_learning_trig/img/Stim/FN_008_g.png"",""time"":2748},{""stimulus"":""blank"",""time"":3048},{""stimulus"":""https://ziweizhang0304.github.io/Stats_learning_trig/img/Stim/FN_012_g.png"",""time"":3088},{""stimulus"":""blank"",""time"":3388},{""stimulus"":""https://ziweizhang0304.github.io/Stats_learning_trig/img/Stim/FN_026_g.png"",""time"":3429},{""stimulus"":""blank"",""time"":3748},{""stimulus"":""https://ziweizhang0304.github.io/Stats_learning_trig/img/Stim/FN_025_g.png"",""time"":3768},{""stimulus"":""blank"",""time"":4088},{""stimulus"":""https://ziweizhang0304.github.io/Stats_learning_trig/img/Stim/FN_010_g.png"",""time"":4108},{""stimulus"":""blank"",""time"":4428}]","[{""key_press"":32,""rt"":3474,""stimulus"":""https://ziweizhang0304.github.io/Stats_learning_trig/img/Stim/FN_026_g.png""}]","386","https://ziweizhang0304.github.io/Stats_learning_trig/img/Stim/FN_012_g.png","post_TD","1","3088","3474","slow","9","3","5dd827c1393bd37c1adb1d47","","","","","",""
"","image-keyboard-response","15","75184","0.0-5.0-1.0-0.0","2884","","","https://ziweizhang0304.github.io/Stats_learning_trig/img/Stim/FN_015_g.png","13","","","","","","","","","","","","","","","","","",""
"","animation","16","79688","0.0-5.0-1.0-1.0","","","","","","[{""stimulus"":""https://ziweizhang0304.github.io/Stats_learning_trig/img/Stim/FN_011_g.png"",""time"":342},{""stimulus"":""blank"",""time"":662},{""stimulus"":""https://ziweizhang0304.github.io/Stats_learning_trig/img/Stim/FN_010_g.png"",""time"":702},{""stimulus"":""blank"",""time"":1002},{""stimulus"":""https://ziweizhang0304.github.io/Stats_learning_trig/img/Stim/FN_026_g.png"",""time"":1043},{""stimulus"":""blank"",""time"":1362},{""stimulus"":""https://ziweizhang0304.github.io/Stats_learning_trig/img/Stim/FN_018_g.png"",""time"":1402},{""stimulus"":""blank"",""time"":1722},{""stimulus"":""https://ziweizhang0304.github.io/Stats_learning_trig/img/Stim/FN_015_g.png"",""time"":1743},{""stimulus"":""blank"",""time"":2061},{""stimulus"":""https://ziweizhang0304.github.io/Stats_learning_trig/img/Stim/FN_008_g.png"",""time"":2102},{""stimulus"":""blank"",""time"":2422},{""stimulus"":""https://ziweizhang0304.github.io/Stats_learning_trig/img/Stim/FN_012_g.png"",""time"":2442},{""stimulus"":""blank"",""time"":2762},{""stimulus"":""https://ziweizhang0304.github.io/Stats_learning_trig/img/Stim/FN_025_g.png"",""time"":2783},{""stimulus"":""blank"",""time"":3102},{""stimulus"":""https://ziweizhang0304.github.io/Stats_learning_trig/img/Stim/FN_019_g.png"",""time"":3124},{""stimulus"":""blank"",""time"":3441},{""stimulus"":""https://ziweizhang0304.github.io/Stats_learning_trig/img/Stim/FN_001_g.png"",""time"":3462},{""stimulus"":""blank"",""time"":3782},{""stimulus"":""https://ziweizhang0304.github.io/Stats_learning_trig/img/Stim/FN_002_g.png"",""time"":3822},{""stimulus"":""blank"",""time"":4142},{""stimulus"":""https://ziweizhang0304.github.io/Stats_learning_trig/img/Stim/FN_022_g.png"",""time"":4162},{""stimulus"":""blank"",""time"":4482}]","[{""key_press"":32,""rt"":2140,""stimulus"":""https://ziweizhang0304.github.io/Stats_learning_trig/img/Stim/FN_008_g.png""}]","397","https://ziweizhang0304.github.io/Stats_learning_trig/img/Stim/FN_015_g.png","post_TD","2","1743","2140","slow","5","1","5dd827c1393bd37c1adb1d47","","","","","",""
"","image-keyboard-response","17","80950","0.0-5.0-2.0-0.0","1261","","","https://ziweizhang0304.github.io/Stats_learning_trig/img/Stim/FN_012_g.png","13","","","","","","","","","","","","","","","","","",""
"","animation","18","85467","0.0-5.0-2.0-1.0","","","","","","[{""stimulus"":""https://ziweizhang0304.github.io/Stats_learning_trig/img/Stim/FN_001_g.png"",""time"":357},{""stimulus"":""blank"",""time"":677},{""stimulus"":""https://ziweizhang0304.github.io/Stats_learning_trig/img/Stim/FN_010_g.png"",""time"":697},{""stimulus"":""blank"",""time"":1017},{""stimulus"":""https://ziweizhang0304.github.io/Stats_learning_trig/img/Stim/FN_018_g.png"",""time"":1038},{""stimulus"":""blank"",""time"":1357},{""stimulus"":""https://ziweizhang0304.github.io/Stats_learning_trig/img/Stim/FN_015_g.png"",""time"":1377},{""stimulus"":""blank"",""time"":1696},{""stimulus"":""https://ziweizhang0304.github.io/Stats_learning_trig/img/Stim/FN_008_g.png"",""time"":1737},{""stimulus"":""blank"",""time"":2057},{""stimulus"":""https://ziweizhang0304.github.io/Stats_learning_trig/img/Stim/FN_012_g.png"",""time"":2078},{""stimulus"":""blank"",""time"":2397},{""stimulus"":""https://ziweizhang0304.github.io/Stats_learning_trig/img/Stim/FN_011_g.png"",""time"":2437},{""stimulus"":""blank"",""time"":2757},{""stimulus"":""https://ziweizhang0304.github.io/Stats_learning_trig/img/Stim/FN_026_g.png"",""time"":2796},{""stimulus"":""blank"",""time"":3097},{""stimulus"":""https://ziweizhang0304.github.io/Stats_learning_trig/img/Stim/FN_025_g.png"",""time"":3137},{""stimulus"":""blank"",""time"":3457},{""stimulus"":""https://ziweizhang0304.github.io/Stats_learning_trig/img/Stim/FN_019_g.png"",""time"":3477},{""stimulus"":""blank"",""time"":3796},{""stimulus"":""https://ziweizhang0304.github.io/Stats_learning_trig/img/Stim/FN_002_g.png"",""time"":3817},{""stimulus"":""blank"",""time"":4137},{""stimulus"":""https://ziweizhang0304.github.io/Stats_learning_trig/img/Stim/FN_022_g.png"",""time"":4158},{""stimulus"":""blank"",""time"":4477}]","[{""key_press"":32,""rt"":2453,""stimulus"":""https://ziweizhang0304.github.io/Stats_learning_trig/img/Stim/FN_011_g.png""}]","375","https://ziweizhang0304.github.io/Stats_learning_trig/img/Stim/FN_012_g.png","post_TD","3","2078","2453","slow","6","3","5dd827c1393bd37c1adb1d47","","","","","",""
"","image-keyboard-response","19","86462","0.0-5.0-3.0-0.0","992","","","https://ziweizhang0304.github.io/Stats_learning_trig/img/Stim/FN_021_g.png","13","","","","","","","","","","","","","","","","","",""
"","animation","20","90928","0.0-5.0-3.0-1.0","","","","","","[{""stimulus"":""https://ziweizhang0304.github.io/Stats_learning_trig/img/Stim/FN_025_g.png"",""time"":345},{""stimulus"":""blank"",""time"":664},{""stimulus"":""https://ziweizhang0304.github.io/Stats_learning_trig/img/Stim/FN_011_g.png"",""time"":685},{""stimulus"":""blank"",""time"":985},{""stimulus"":""https://ziweizhang0304.github.io/Stats_learning_trig/img/Stim/FN_026_g.png"",""time"":1025},{""stimulus"":""blank"",""time"":1325},{""stimulus"":""https://ziweizhang0304.github.io/Stats_learning_trig/img/Stim/FN_020_g.png"",""time"":1365},{""stimulus"":""blank"",""time"":1685},{""stimulus"":""https://ziweizhang0304.github.io/Stats_learning_trig/img/Stim/FN_017_g.png"",""time"":1705},{""stimulus"":""blank"",""time"":2025},{""stimulus"":""https://ziweizhang0304.github.io/Stats_learning_trig/img/Stim/FN_021_g.png"",""time"":2066},{""stimulus"":""blank"",""time"":2385},{""stimulus"":""https://ziweizhang0304.github.io/Stats_learning_trig/img/Stim/FN_019_g.png"",""time"":2405},{""stimulus"":""blank"",""time"":2724},{""stimulus"":""https://ziweizhang0304.github.io/Stats_learning_trig/img/Stim/FN_010_g.png"",""time"":2745},{""stimulus"":""blank"",""time"":3045},{""stimulus"":""https://ziweizhang0304.github.io/Stats_learning_trig/img/Stim/FN_001_g.png"",""time"":3085},{""stimulus"":""blank"",""time"":3405},{""stimulus"":""https://ziweizhang0304.github.io/Stats_learning_trig/img/Stim/FN_018_g.png"",""time"":3427},{""stimulus"":""blank"",""time"":3745},{""stimulus"":""https://ziweizhang0304.github.io/Stats_learning_trig/img/Stim/FN_002_g.png"",""time"":3785},{""stimulus"":""blank"",""time"":4105},{""stimulus"":""https://ziweizhang0304.github.io/Stats_learning_trig/img/Stim/FN_022_g.png"",""time"":4127},{""stimulus"":""blank"",""time"":4445}]","[{""key_press"":32,""rt"":2490,""stimulus"":""https://ziweizhang0304.github.io/Stats_learning_trig/img/Stim/FN_019_g.png""}]","424","https://ziweizhang0304.github.io/Stats_learning_trig/img/Stim/FN_021_g.png","post_TD","4","2066","2490","fast","6","3","5dd827c1393bd37c1adb1d47","","","","","",""
"","image-keyboard-response","21","91762","0.0-5.0-4.0-0.0","833","","","https://ziweizhang0304.github.io/Stats_learning_trig/img/Stim/FN_020_g.png","13","","","","","","","","","","","","","","","","","",""
"","animation","22","96267","0.0-5.0-4.0-1.0","","","","","","[{""stimulus"":""https://ziweizhang0304.github.io/Stats_learning_trig/img/Stim/FN_022_g.png"",""time"":345},{""stimulus"":""blank"",""time"":665},{""stimulus"":""https://ziweizhang0304.github.io/Stats_learning_trig/img/Stim/FN_010_g.png"",""time"":686},{""stimulus"":""blank"",""time"":1004},{""stimulus"":""https://ziweizhang0304.github.io/Stats_learning_trig/img/Stim/FN_019_g.png"",""time"":1027},{""stimulus"":""blank"",""time"":1344},{""stimulus"":""https://ziweizhang0304.github.io/Stats_learning_trig/img/Stim/FN_026_g.png"",""time"":1365},{""stimulus"":""blank"",""time"":1685},{""stimulus"":""https://ziweizhang0304.github.io/Stats_learning_trig/img/Stim/FN_020_g.png"",""time"":1705},{""stimulus"":""blank"",""time"":2025},{""stimulus"":""https://ziweizhang0304.github.io/Stats_learning_trig/img/Stim/FN_017_g.png"",""time"":2045},{""stimulus"":""blank"",""time"":2365},{""stimulus"":""https://ziweizhang0304.github.io/Stats_learning_trig/img/Stim/FN_021_g.png"",""time"":2385},{""stimulus"":""blank"",""time"":2705},{""stimulus"":""https://ziweizhang0304.github.io/Stats_learning_trig/img/Stim/FN_011_g.png"",""time"":2745},{""stimulus"":""blank"",""time"":3065},{""stimulus"":""https://ziweizhang0304.github.io/Stats_learning_trig/img/Stim/FN_025_g.png"",""time"":3086},{""stimulus"":""blank"",""time"":3405},{""stimulus"":""https://ziweizhang0304.github.io/Stats_learning_trig/img/Stim/FN_001_g.png"",""time"":3446},{""stimulus"":""blank"",""time"":3765},{""stimulus"":""https://ziweizhang0304.github.io/Stats_learning_trig/img/Stim/FN_018_g.png"",""time"":3785},{""stimulus"":""blank"",""time"":4085},{""stimulus"":""https://ziweizhang0304.github.io/Stats_learning_trig/img/Stim/FN_002_g.png"",""time"":4146},{""stimulus"":""blank"",""time"":4465}]","[{""key_press"":32,""rt"":2142,""stimulus"":""https://ziweizhang0304.github.io/Stats_learning_trig/img/Stim/FN_017_g.png""}]","437","https://ziweizhang0304.github.io/Stats_learning_trig/img/Stim/FN_020_g.png","post_TD","5","1705","2142","fast","5","1","5dd827c1393bd37c1adb1d47","","","","","",""
"","image-keyboard-response","23","98127","0.0-5.0-5.0-0.0","1856","","","https://ziweizhang0304.github.io/Stats_learning_trig/img/Stim/FN_017_g.png","13","","","","","","","","","","","","","","","","","",""
"","animation","24","102608","0.0-5.0-5.0-1.0","","","","","","[{""stimulus"":""https://ziweizhang0304.github.io/Stats_learning_trig/img/Stim/FN_026_g.png"",""time"":341},{""stimulus"":""blank"",""time"":659},{""stimulus"":""https://ziweizhang0304.github.io/Stats_learning_trig/img/Stim/FN_018_g.png"",""time"":681},{""stimulus"":""blank"",""time"":1001},{""stimulus"":""https://ziweizhang0304.github.io/Stats_learning_trig/img/Stim/FN_019_g.png"",""time"":1021},{""stimulus"":""blank"",""time"":1340},{""stimulus"":""https://ziweizhang0304.github.io/Stats_learning_trig/img/Stim/FN_022_g.png"",""time"":1381},{""stimulus"":""blank"",""time"":1701},{""stimulus"":""https://ziweizhang0304.github.io/Stats_learning_trig/img/Stim/FN_010_g.png"",""time"":1741},{""stimulus"":""blank"",""time"":2041},{""stimulus"":""https://ziweizhang0304.github.io/Stats_learning_trig/img/Stim/FN_001_g.png"",""time"":2081},{""stimulus"":""blank"",""time"":2400},{""stimulus"":""https://ziweizhang0304.github.io/Stats_learning_trig/img/Stim/FN_020_g.png"",""time"":2421},{""stimulus"":""blank"",""time"":2740},{""stimulus"":""https://ziweizhang0304.github.io/Stats_learning_trig/img/Stim/FN_017_g.png"",""time"":2761},{""stimulus"":""blank"",""time"":3081},{""stimulus"":""https://ziweizhang0304.github.io/Stats_learning_trig/img/Stim/FN_021_g.png"",""time"":3102},{""stimulus"":""blank"",""time"":3420},{""stimulus"":""https://ziweizhang0304.github.io/Stats_learning_trig/img/Stim/FN_011_g.png"",""time"":3461},{""stimulus"":""blank"",""time"":3781},{""stimulus"":""https://ziweizhang0304.github.io/Stats_learning_trig/img/Stim/FN_025_g.png"",""time"":3801},{""stimulus"":""blank"",""time"":4121},{""stimulus"":""https://ziweizhang0304.github.io/Stats_learning_trig/img/Stim/FN_002_g.png"",""time"":4143},{""stimulus"":""blank"",""time"":4461}]","[{""key_press"":32,""rt"":3178,""stimulus"":""https://ziweizhang0304.github.io/Stats_learning_trig/img/Stim/FN_021_g.png""}]","417","https://ziweizhang0304.github.io/Stats_learning_trig/img/Stim/FN_017_g.png","post_TD","6","2761","3178","fast","8","2","5dd827c1393bd37c1adb1d47","","","","","",""
"","image-keyboard-response","25","103688","0.0-5.0-6.0-0.0","1078","","","https://ziweizhang0304.github.io/Stats_learning_trig/img/Stim/FN_017_g.png","13","","","","","","","","","","","","","","","","","",""
"","animation","26","108188","0.0-5.0-6.0-1.0","","","","","","[{""stimulus"":""https://ziweizhang0304.github.io/Stats_learning_trig/img/Stim/FN_026_g.png"",""time"":360},{""stimulus"":""blank"",""time"":680},{""stimulus"":""https://ziweizhang0304.github.io/Stats_learning_trig/img/Stim/FN_025_g.png"",""time"":701},{""stimulus"":""blank"",""time"":1020},{""stimulus"":""https://ziweizhang0304.github.io/Stats_learning_trig/img/Stim/FN_011_g.png"",""time"":1041},{""stimulus"":""blank"",""time"":1360},{""stimulus"":""https://ziweizhang0304.github.io/Stats_learning_trig/img/Stim/FN_022_g.png"",""time"":1382},{""stimulus"":""blank"",""time"":1699},{""stimulus"":""https://ziweizhang0304.github.io/Stats_learning_trig/img/Stim/FN_018_g.png"",""time"":1721},{""stimulus"":""blank"",""time"":2040},{""stimulus"":""https://ziweizhang0304.github.io/Stats_learning_trig/img/Stim/FN_020_g.png"",""time"":2080},{""stimulus"":""blank"",""time"":2400},{""stimulus"":""https://ziweizhang0304.github.io/Stats_learning_trig/img/Stim/FN_017_g.png"",""time"":2421},{""stimulus"":""blank"",""time"":2739},{""stimulus"":""https://ziweizhang0304.github.io/Stats_learning_trig/img/Stim/FN_021_g.png"",""time"":2760},{""stimulus"":""blank"",""time"":3080},{""stimulus"":""https://ziweizhang0304.github.io/Stats_learning_trig/img/Stim/FN_019_g.png"",""time"":3120},{""stimulus"":""blank"",""time"":3439},{""stimulus"":""https://ziweizhang0304.github.io/Stats_learning_trig/img/Stim/FN_010_g.png"",""time"":3480},{""stimulus"":""blank"",""time"":3799},{""stimulus"":""https://ziweizhang0304.github.io/Stats_learning_trig/img/Stim/FN_001_g.png"",""time"":3820},{""stimulus"":""blank"",""time"":4140},{""stimulus"":""https://ziweizhang0304.github.io/Stats_learning_trig/img/Stim/FN_002_g.png"",""time"":4160},{""stimulus"":""blank"",""time"":4480}]","[{""key_press"":32,""rt"":2839,""stimulus"":""https://ziweizhang0304.github.io/Stats_learning_trig/img/Stim/FN_021_g.png""}]","418","https://ziweizhang0304.github.io/Stats_learning_trig/img/Stim/FN_017_g.png","post_TD","7","2421","2839","fast","7","2","5dd827c1393bd37c1adb1d47","","","","","",""
"","image-keyboard-response","27","109297","0.0-5.0-7.0-0.0","1108","","","https://ziweizhang0304.github.io/Stats_learning_trig/img/Stim/FN_008_g.png","13","","","","","","","","","","","","","","","","","",""
"","animation","28","113837","0.0-5.0-7.0-1.0","","","","","","[{""stimulus"":""https://ziweizhang0304.github.io/Stats_learning_trig/img/Stim/FN_022_g.png"",""time"":350},{""stimulus"":""blank"",""time"":669},{""stimulus"":""https://ziweizhang0304.github.io/Stats_learning_trig/img/Stim/FN_018_g.png"",""time"":690},{""stimulus"":""blank"",""time"":1010},{""stimulus"":""https://ziweizhang0304.github.io/Stats_learning_trig/img/Stim/FN_002_g.png"",""time"":1030},{""stimulus"":""blank"",""time"":1350},{""stimulus"":""https://ziweizhang0304.github.io/Stats_learning_trig/img/Stim/FN_011_g.png"",""time"":1371},{""stimulus"":""blank"",""time"":1690},{""stimulus"":""https://ziweizhang0304.github.io/Stats_learning_trig/img/Stim/FN_019_g.png"",""time"":1730},{""stimulus"":""blank"",""time"":2050},{""stimulus"":""https://ziweizhang0304.github.io/Stats_learning_trig/img/Stim/FN_001_g.png"",""time"":2071},{""stimulus"":""blank"",""time"":2390},{""stimulus"":""https://ziweizhang0304.github.io/Stats_learning_trig/img/Stim/FN_015_g.png"",""time"":2429},{""stimulus"":""blank"",""time"":2740},{""stimulus"":""https://ziweizhang0304.github.io/Stats_learning_trig/img/Stim/FN_008_g.png"",""time"":2781},{""stimulus"":""blank"",""time"":3097},{""stimulus"":""https://ziweizhang0304.github.io/Stats_learning_trig/img/Stim/FN_012_g.png"",""time"":3120},{""stimulus"":""blank"",""time"":3440},{""stimulus"":""https://ziweizhang0304.github.io/Stats_learning_trig/img/Stim/FN_026_g.png"",""time"":3461},{""stimulus"":""blank"",""time"":3780},{""stimulus"":""https://ziweizhang0304.github.io/Stats_learning_trig/img/Stim/FN_025_g.png"",""time"":3820},{""stimulus"":""blank"",""time"":4140},{""stimulus"":""https://ziweizhang0304.github.io/Stats_learning_trig/img/Stim/FN_010_g.png"",""time"":4181},{""stimulus"":""blank"",""time"":4498}]","[{""key_press"":32,""rt"":3155,""stimulus"":""https://ziweizhang0304.github.io/Stats_learning_trig/img/Stim/FN_012_g.png""}]","374","https://ziweizhang0304.github.io/Stats_learning_trig/img/Stim/FN_008_g.png","post_TD","8","2781","3155","slow","8","2","5dd827c1393bd37c1adb1d47","","","","","",""
"","image-keyboard-response","29","114751","0.0-5.0-8.0-0.0","912","","","https://ziweizhang0304.github.io/Stats_learning_trig/img/Stim/FN_017_g.png","13","","","","","","","","","","","","","","","","","",""
"","animation","30","119217","0.0-5.0-8.0-1.0","","","","","","[{""stimulus"":""https://ziweizhang0304.github.io/Stats_learning_trig/img/Stim/FN_025_g.png"",""time"":346},{""stimulus"":""blank"",""time"":645},{""stimulus"":""https://ziweizhang0304.github.io/Stats_learning_trig/img/Stim/FN_011_g.png"",""time"":686},{""stimulus"":""blank"",""time"":1005},{""stimulus"":""https://ziweizhang0304.github.io/Stats_learning_trig/img/Stim/FN_026_g.png"",""time"":1026},{""stimulus"":""blank"",""time"":1325},{""stimulus"":""https://ziweizhang0304.github.io/Stats_learning_trig/img/Stim/FN_020_g.png"",""time"":1365},{""stimulus"":""blank"",""time"":1686},{""stimulus"":""https://ziweizhang0304.github.io/Stats_learning_trig/img/Stim/FN_017_g.png"",""time"":1706},{""stimulus"":""blank"",""time"":2025},{""stimulus"":""https://ziweizhang0304.github.io/Stats_learning_trig/img/Stim/FN_021_g.png"",""time"":2048},{""stimulus"":""blank"",""time"":2367},{""stimulus"":""https://ziweizhang0304.github.io/Stats_learning_trig/img/Stim/FN_019_g.png"",""time"":2387},{""stimulus"":""blank"",""time"":2706},{""stimulus"":""https://ziweizhang0304.github.io/Stats_learning_trig/img/Stim/FN_010_g.png"",""time"":2746},{""stimulus"":""blank"",""time"":3066},{""stimulus"":""https://ziweizhang0304.github.io/Stats_learning_trig/img/Stim/FN_001_g.png"",""time"":3087},{""stimulus"":""blank"",""time"":3406},{""stimulus"":""https://ziweizhang0304.github.io/Stats_learning_trig/img/Stim/FN_018_g.png"",""time"":3447},{""stimulus"":""blank"",""time"":3766},{""stimulus"":""https://ziweizhang0304.github.io/Stats_learning_trig/img/Stim/FN_002_g.png"",""time"":3786},{""stimulus"":""blank"",""time"":4086},{""stimulus"":""https://ziweizhang0304.github.io/Stats_learning_trig/img/Stim/FN_022_g.png"",""time"":4127},{""stimulus"":""blank"",""time"":4445}]","[{""key_press"":32,""rt"":2061,""stimulus"":""https://ziweizhang0304.github.io/Stats_learning_trig/img/Stim/FN_021_g.png""}]","355","https://ziweizhang0304.github.io/Stats_learning_trig/img/Stim/FN_017_g.png","post_TD","9","1706","2061","fast","5","2","5dd827c1393bd37c1adb1d47","","","","","",""
"","image-keyboard-response","31","120811","0.0-5.0-9.0-0.0","1593","","","https://ziweizhang0304.github.io/Stats_learning_trig/img/Stim/FN_020_g.png","13","","","","","","","","","","","","","","","","","",""
"","animation","32","125357","0.0-5.0-9.0-1.0","","","","","","[{""stimulus"":""https://ziweizhang0304.github.io/Stats_learning_trig/img/Stim/FN_026_g.png"",""time"":347},{""stimulus"":""blank"",""time"":656},{""stimulus"":""https://ziweizhang0304.github.io/Stats_learning_trig/img/Stim/FN_025_g.png"",""time"":697},{""stimulus"":""blank"",""time"":1016},{""stimulus"":""https://ziweizhang0304.github.io/Stats_learning_trig/img/Stim/FN_011_g.png"",""time"":1056},{""stimulus"":""blank"",""time"":1355},{""stimulus"":""https://ziweizhang0304.github.io/Stats_learning_trig/img/Stim/FN_022_g.png"",""time"":1416},{""stimulus"":""blank"",""time"":1736},{""stimulus"":""https://ziweizhang0304.github.io/Stats_learning_trig/img/Stim/FN_018_g.png"",""time"":1776},{""stimulus"":""blank"",""time"":2092},{""stimulus"":""https://ziweizhang0304.github.io/Stats_learning_trig/img/Stim/FN_020_g.png"",""time"":2116},{""stimulus"":""blank"",""time"":2426},{""stimulus"":""https://ziweizhang0304.github.io/Stats_learning_trig/img/Stim/FN_017_g.png"",""time"":2461},{""stimulus"":""blank"",""time"":2765},{""stimulus"":""https://ziweizhang0304.github.io/Stats_learning_trig/img/Stim/FN_021_g.png"",""time"":2806},{""stimulus"":""blank"",""time"":3126},{""stimulus"":""https://ziweizhang0304.github.io/Stats_learning_trig/img/Stim/FN_019_g.png"",""time"":3165},{""stimulus"":""blank"",""time"":3465},{""stimulus"":""https://ziweizhang0304.github.io/Stats_learning_trig/img/Stim/FN_010_g.png"",""time"":3506},{""stimulus"":""blank"",""time"":3826},{""stimulus"":""https://ziweizhang0304.github.io/Stats_learning_trig/img/Stim/FN_001_g.png"",""time"":3846},{""stimulus"":""blank"",""time"":4166},{""stimulus"":""https://ziweizhang0304.github.io/Stats_learning_trig/img/Stim/FN_002_g.png"",""time"":4187},{""stimulus"":""blank"",""time"":4505}]","[{""key_press"":32,""rt"":2509,""stimulus"":""https://ziweizhang0304.github.io/Stats_learning_trig/img/Stim/FN_017_g.png""}]","393","https://ziweizhang0304.github.io/Stats_learning_trig/img/Stim/FN_020_g.png","post_TD","10","2116","2509","fast","6","1","5dd827c1393bd37c1adb1d47","","","","","",""
"","image-keyboard-response","33","126254","0.0-5.0-10.0-0.0","896","","","https://ziweizhang0304.github.io/Stats_learning_trig/img/Stim/FN_021_g.png","13","","","","","","","","","","","","","","","","","",""
"","animation","34","130757","0.0-5.0-10.0-1.0","","","","","","[{""stimulus"":""https://ziweizhang0304.github.io/Stats_learning_trig/img/Stim/FN_022_g.png"",""time"":344},{""stimulus"":""blank"",""time"":664},{""stimulus"":""https://ziweizhang0304.github.io/Stats_learning_trig/img/Stim/FN_010_g.png"",""time"":684},{""stimulus"":""blank"",""time"":1004},{""stimulus"":""https://ziweizhang0304.github.io/Stats_learning_trig/img/Stim/FN_019_g.png"",""time"":1044},{""stimulus"":""blank"",""time"":1344},{""stimulus"":""https://ziweizhang0304.github.io/Stats_learning_trig/img/Stim/FN_026_g.png"",""time"":1384},{""stimulus"":""blank"",""time"":1704},{""stimulus"":""https://ziweizhang0304.github.io/Stats_learning_trig/img/Stim/FN_020_g.png"",""time"":1724},{""stimulus"":""blank"",""time"":2044},{""stimulus"":""https://ziweizhang0304.github.io/Stats_learning_trig/img/Stim/FN_017_g.png"",""time"":2084},{""stimulus"":""blank"",""time"":2384},{""stimulus"":""https://ziweizhang0304.github.io/Stats_learning_trig/img/Stim/FN_021_g.png"",""time"":2424},{""stimulus"":""blank"",""time"":2744},{""stimulus"":""https://ziweizhang0304.github.io/Stats_learning_trig/img/Stim/FN_011_g.png"",""time"":2763},{""stimulus"":""blank"",""time"":3064},{""stimulus"":""https://ziweizhang0304.github.io/Stats_learning_trig/img/Stim/FN_025_g.png"",""time"":3104},{""stimulus"":""blank"",""time"":3424},{""stimulus"":""https://ziweizhang0304.github.io/Stats_learning_trig/img/Stim/FN_001_g.png"",""time"":3444},{""stimulus"":""blank"",""time"":3764},{""stimulus"":""https://ziweizhang0304.github.io/Stats_learning_trig/img/Stim/FN_018_g.png"",""time"":3785},{""stimulus"":""blank"",""time"":4104},{""stimulus"":""https://ziweizhang0304.github.io/Stats_learning_trig/img/Stim/FN_002_g.png"",""time"":4145},{""stimulus"":""blank"",""time"":4464}]","[{""key_press"":32,""rt"":2781,""stimulus"":""https://ziweizhang0304.github.io/Stats_learning_trig/img/Stim/FN_011_g.png""}]","357","https://ziweizhang0304.github.io/Stats_learning_trig/img/Stim/FN_021_g.png","post_TD","11","2424","2781","fast","7","3","5dd827c1393bd37c1adb1d47","","","","","",""
"","image-keyboard-response","35","131470","0.0-5.0-11.0-0.0","711","","","https://ziweizhang0304.github.io/Stats_learning_trig/img/Stim/FN_021_g.png","13","","","","","","","","","","","","","","","","","",""
"","animation","36","135977","0.0-5.0-11.0-1.0","","","","","","[{""stimulus"":""https://ziweizhang0304.github.io/Stats_learning_trig/img/Stim/FN_026_g.png"",""time"":347},{""stimulus"":""blank"",""time"":667},{""stimulus"":""https://ziweizhang0304.github.io/Stats_learning_trig/img/Stim/FN_018_g.png"",""time"":688},{""stimulus"":""blank"",""time"":1007},{""stimulus"":""https://ziweizhang0304.github.io/Stats_learning_trig/img/Stim/FN_019_g.png"",""time"":1028},{""stimulus"":""blank"",""time"":1347},{""stimulus"":""https://ziweizhang0304.github.io/Stats_learning_trig/img/Stim/FN_022_g.png"",""time"":1387},{""stimulus"":""blank"",""time"":1707},{""stimulus"":""https://ziweizhang0304.github.io/Stats_learning_trig/img/Stim/FN_010_g.png"",""time"":1728},{""stimulus"":""blank"",""time"":2047},{""stimulus"":""https://ziweizhang0304.github.io/Stats_learning_trig/img/Stim/FN_001_g.png"",""time"":2068},{""stimulus"":""blank"",""time"":2387},{""stimulus"":""https://ziweizhang0304.github.io/Stats_learning_trig/img/Stim/FN_020_g.png"",""time"":2409},{""stimulus"":""blank"",""time"":2727},{""stimulus"":""https://ziweizhang0304.github.io/Stats_learning_trig/img/Stim/FN_017_g.png"",""time"":2767},{""stimulus"":""blank"",""time"":3087},{""stimulus"":""https://ziweizhang0304.github.io/Stats_learning_trig/img/Stim/FN_021_g.png"",""time"":3109},{""stimulus"":""blank"",""time"":3427},{""stimulus"":""https://ziweizhang0304.github.io/Stats_learning_trig/img/Stim/FN_011_g.png"",""time"":3467},{""stimulus"":""blank"",""time"":3787},{""stimulus"":""https://ziweizhang0304.github.io/Stats_learning_trig/img/Stim/FN_025_g.png"",""time"":3809},{""stimulus"":""blank"",""time"":4126},{""stimulus"":""https://ziweizhang0304.github.io/Stats_learning_trig/img/Stim/FN_002_g.png"",""time"":4166},{""stimulus"":""blank"",""time"":4467}]","[{""key_press"":32,""rt"":3093,""stimulus"":""blank""}]","NaN","https://ziweizhang0304.github.io/Stats_learning_trig/img/Stim/FN_021_g.png","post_TD","12","3109","","fast","9","3","5dd827c1393bd37c1adb1d47","","","","","",""
"","image-keyboard-response","37","136804","0.0-5.0-12.0-0.0","824","","","https://ziweizhang0304.github.io/Stats_learning_trig/img/Stim/FN_020_g.png","13","","","","","","","","","","","","","","","","","",""
"","animation","38","141268","0.0-5.0-12.0-1.0","","","","","","[{""stimulus"":""https://ziweizhang0304.github.io/Stats_learning_trig/img/Stim/FN_026_g.png"",""time"":353},{""stimulus"":""blank"",""time"":664},{""stimulus"":""https://ziweizhang0304.github.io/Stats_learning_trig/img/Stim/FN_018_g.png"",""time"":704},{""stimulus"":""blank"",""time"":1023},{""stimulus"":""https://ziweizhang0304.github.io/Stats_learning_trig/img/Stim/FN_019_g.png"",""time"":1044},{""stimulus"":""blank"",""time"":1363},{""stimulus"":""https://ziweizhang0304.github.io/Stats_learning_trig/img/Stim/FN_022_g.png"",""time"":1384},{""stimulus"":""blank"",""time"":1704},{""stimulus"":""https://ziweizhang0304.github.io/Stats_learning_trig/img/Stim/FN_010_g.png"",""time"":1724},{""stimulus"":""blank"",""time"":2044},{""stimulus"":""https://ziweizhang0304.github.io/Stats_learning_trig/img/Stim/FN_001_g.png"",""time"":2064},{""stimulus"":""blank"",""time"":2384},{""stimulus"":""https://ziweizhang0304.github.io/Stats_learning_trig/img/Stim/FN_020_g.png"",""time"":2424},{""stimulus"":""blank"",""time"":2744},{""stimulus"":""https://ziweizhang0304.github.io/Stats_learning_trig/img/Stim/FN_017_g.png"",""time"":2764},{""stimulus"":""blank"",""time"":3084},{""stimulus"":""https://ziweizhang0304.github.io/Stats_learning_trig/img/Stim/FN_021_g.png"",""time"":3104},{""stimulus"":""blank"",""time"":3424},{""stimulus"":""https://ziweizhang0304.github.io/Stats_learning_trig/img/Stim/FN_011_g.png"",""time"":3444},{""stimulus"":""blank"",""time"":3744},{""stimulus"":""https://ziweizhang0304.github.io/Stats_learning_trig/img/Stim/FN_025_g.png"",""time"":3784},{""stimulus"":""blank"",""time"":4084},{""stimulus"":""https://ziweizhang0304.github.io/Stats_learning_trig/img/Stim/FN_002_g.png"",""time"":4124},{""stimulus"":""blank"",""time"":4424}]","[{""key_press"":32,""rt"":2724,""stimulus"":""https://ziweizhang0304.github.io/Stats_learning_trig/img/Stim/FN_020_g.png""}]","300","https://ziweizhang0304.github.io/Stats_learning_trig/img/Stim/FN_020_g.png","post_TD","13","2424","2724","fast","7","1","5dd827c1393bd37c1adb1d47","","","","","",""
"","image-keyboard-response","39","141928","0.0-5.0-13.0-0.0","658","","","https://ziweizhang0304.github.io/Stats_learning_trig/img/Stim/FN_008_g.png","13","","","","","","","","","","","","","","","","","",""
"","animation","40","146407","0.0-5.0-13.0-1.0","","","","","","[{""stimulus"":""https://ziweizhang0304.github.io/Stats_learning_trig/img/Stim/FN_001_g.png"",""time"":359},{""stimulus"":""blank"",""time"":659},{""stimulus"":""https://ziweizhang0304.github.io/Stats_learning_trig/img/Stim/FN_019_g.png"",""time"":699},{""stimulus"":""blank"",""time"":1019},{""stimulus"":""https://ziweizhang0304.github.io/Stats_learning_trig/img/Stim/FN_018_g.png"",""time"":1040},{""stimulus"":""blank"",""time"":1359},{""stimulus"":""https://ziweizhang0304.github.io/Stats_learning_trig/img/Stim/FN_025_g.png"",""time"":1380},{""stimulus"":""blank"",""time"":1699},{""stimulus"":""https://ziweizhang0304.github.io/Stats_learning_trig/img/Stim/FN_026_g.png"",""time"":1739},{""stimulus"":""blank"",""time"":2058},{""stimulus"":""https://ziweizhang0304.github.io/Stats_learning_trig/img/Stim/FN_015_g.png"",""time"":2079},{""stimulus"":""blank"",""time"":2398},{""stimulus"":""https://ziweizhang0304.github.io/Stats_learning_trig/img/Stim/FN_008_g.png"",""time"":2419},{""stimulus"":""blank"",""time"":2738},{""stimulus"":""https://ziweizhang0304.github.io/Stats_learning_trig/img/Stim/FN_012_g.png"",""time"":2759},{""stimulus"":""blank"",""time"":3078},{""stimulus"":""https://ziweizhang0304.github.io/Stats_learning_trig/img/Stim/FN_011_g.png"",""time"":3099},{""stimulus"":""blank"",""time"":3418},{""stimulus"":""https://ziweizhang0304.github.io/Stats_learning_trig/img/Stim/FN_010_g.png"",""time"":3439},{""stimulus"":""blank"",""time"":3759},{""stimulus"":""https://ziweizhang0304.github.io/Stats_learning_trig/img/Stim/FN_002_g.png"",""time"":3782},{""stimulus"":""blank"",""time"":4098},{""stimulus"":""https://ziweizhang0304.github.io/Stats_learning_trig/img/Stim/FN_022_g.png"",""time"":4139},{""stimulus"":""blank"",""time"":4439}]","[{""key_press"":32,""rt"":2850,""stimulus"":""https://ziweizhang0304.github.io/Stats_learning_trig/img/Stim/FN_012_g.png""}]","431","https://ziweizhang0304.github.io/Stats_learning_trig/img/Stim/FN_008_g.png","post_TD","14","2419","2850","slow","7","2","5dd827c1393bd37c1adb1d47","","","","","",""
"","image-keyboard-response","41","147033","0.0-5.0-14.0-0.0","623","","","https://ziweizhang0304.github.io/Stats_learning_trig/img/Stim/FN_017_g.png","13","","","","","","","","","","","","","","","","","",""
"","animation","42","151517","0.0-5.0-14.0-1.0","","","","","","[{""stimulus"":""https://ziweizhang0304.github.io/Stats_learning_trig/img/Stim/FN_022_g.png"",""time"":347},{""stimulus"":""blank"",""time"":666},{""stimulus"":""https://ziweizhang0304.github.io/Stats_learning_trig/img/Stim/FN_010_g.png"",""time"":706},{""stimulus"":""blank"",""time"":1026},{""stimulus"":""https://ziweizhang0304.github.io/Stats_learning_trig/img/Stim/FN_019_g.png"",""time"":1046},{""stimulus"":""blank"",""time"":1366},{""stimulus"":""https://ziweizhang0304.github.io/Stats_learning_trig/img/Stim/FN_026_g.png"",""time"":1386},{""stimulus"":""blank"",""time"":1706},{""stimulus"":""https://ziweizhang0304.github.io/Stats_learning_trig/img/Stim/FN_020_g.png"",""time"":1728},{""stimulus"":""blank"",""time"":2046},{""stimulus"":""https://ziweizhang0304.github.io/Stats_learning_trig/img/Stim/FN_017_g.png"",""time"":2066},{""stimulus"":""blank"",""time"":2386},{""stimulus"":""https://ziweizhang0304.github.io/Stats_learning_trig/img/Stim/FN_021_g.png"",""time"":2426},{""stimulus"":""blank"",""time"":2746},{""stimulus"":""https://ziweizhang0304.github.io/Stats_learning_trig/img/Stim/FN_011_g.png"",""time"":2766},{""stimulus"":""blank"",""time"":3066},{""stimulus"":""https://ziweizhang0304.github.io/Stats_learning_trig/img/Stim/FN_025_g.png"",""time"":3106},{""stimulus"":""blank"",""time"":3426},{""stimulus"":""https://ziweizhang0304.github.io/Stats_learning_trig/img/Stim/FN_001_g.png"",""time"":3447},{""stimulus"":""blank"",""time"":3766},{""stimulus"":""https://ziweizhang0304.github.io/Stats_learning_trig/img/Stim/FN_018_g.png"",""time"":3786},{""stimulus"":""blank"",""time"":4106},{""stimulus"":""https://ziweizhang0304.github.io/Stats_learning_trig/img/Stim/FN_002_g.png"",""time"":4127},{""stimulus"":""blank"",""time"":4446}]","[{""key_press"":32,""rt"":2395,""stimulus"":""blank""}]","329","https://ziweizhang0304.github.io/Stats_learning_trig/img/Stim/FN_017_g.png","post_TD","15","2066","2395","fast","6","2","5dd827c1393bd37c1adb1d47","","","","","",""
"","image-keyboard-response","43","152187","0.0-5.0-15.0-0.0","667","","","https://ziweizhang0304.github.io/Stats_learning_trig/img/Stim/FN_012_g.png","13","","","","","","","","","","","","","","","","","",""
"","animation","44","156737","0.0-5.0-15.0-1.0","","","","","","[{""stimulus"":""https://ziweizhang0304.github.io/Stats_learning_trig/img/Stim/FN_011_g.png"",""time"":350},{""stimulus"":""blank"",""time"":670},{""stimulus"":""https://ziweizhang0304.github.io/Stats_learning_trig/img/Stim/FN_010_g.png"",""time"":709},{""stimulus"":""blank"",""time"":1029},{""stimulus"":""https://ziweizhang0304.github.io/Stats_learning_trig/img/Stim/FN_026_g.png"",""time"":1051},{""stimulus"":""blank"",""time"":1370},{""stimulus"":""https://ziweizhang0304.github.io/Stats_learning_trig/img/Stim/FN_018_g.png"",""time"":1391},{""stimulus"":""blank"",""time"":1710},{""stimulus"":""https://ziweizhang0304.github.io/Stats_learning_trig/img/Stim/FN_015_g.png"",""time"":1750},{""stimulus"":""blank"",""time"":2070},{""stimulus"":""https://ziweizhang0304.github.io/Stats_learning_trig/img/Stim/FN_008_g.png"",""time"":2091},{""stimulus"":""blank"",""time"":2409},{""stimulus"":""https://ziweizhang0304.github.io/Stats_learning_trig/img/Stim/FN_012_g.png"",""time"":2430},{""stimulus"":""blank"",""time"":2750},{""stimulus"":""https://ziweizhang0304.github.io/Stats_learning_trig/img/Stim/FN_025_g.png"",""time"":2770},{""stimulus"":""blank"",""time"":3090},{""stimulus"":""https://ziweizhang0304.github.io/Stats_learning_trig/img/Stim/FN_019_g.png"",""time"":3110},{""stimulus"":""blank"",""time"":3430},{""stimulus"":""https://ziweizhang0304.github.io/Stats_learning_trig/img/Stim/FN_001_g.png"",""time"":3470},{""stimulus"":""blank"",""time"":3789},{""stimulus"":""https://ziweizhang0304.github.io/Stats_learning_trig/img/Stim/FN_002_g.png"",""time"":3830},{""stimulus"":""blank"",""time"":4149},{""stimulus"":""https://ziweizhang0304.github.io/Stats_learning_trig/img/Stim/FN_022_g.png"",""time"":4190},{""stimulus"":""blank"",""time"":4509}]","[{""key_press"":32,""rt"":2900,""stimulus"":""https://ziweizhang0304.github.io/Stats_learning_trig/img/Stim/FN_025_g.png""}]","470","https://ziweizhang0304.github.io/Stats_learning_trig/img/Stim/FN_012_g.png","post_TD","16","2430","2900","slow","7","3","5dd827c1393bd37c1adb1d47","","","","","",""
"","image-keyboard-response","45","157414","0.0-5.0-16.0-0.0","675","","","https://ziweizhang0304.github.io/Stats_learning_trig/img/Stim/FN_008_g.png","13","","","","","","","","","","","","","","","","","",""
"","animation","46","161917","0.0-5.0-16.0-1.0","","","","","","[{""stimulus"":""https://ziweizhang0304.github.io/Stats_learning_trig/img/Stim/FN_001_g.png"",""time"":344},{""stimulus"":""blank"",""time"":664},{""stimulus"":""https://ziweizhang0304.github.io/Stats_learning_trig/img/Stim/FN_010_g.png"",""time"":684},{""stimulus"":""blank"",""time"":984},{""stimulus"":""https://ziweizhang0304.github.io/Stats_learning_trig/img/Stim/FN_018_g.png"",""time"":1024},{""stimulus"":""blank"",""time"":1344},{""stimulus"":""https://ziweizhang0304.github.io/Stats_learning_trig/img/Stim/FN_015_g.png"",""time"":1364},{""stimulus"":""blank"",""time"":1684},{""stimulus"":""https://ziweizhang0304.github.io/Stats_learning_trig/img/Stim/FN_008_g.png"",""time"":1724},{""stimulus"":""blank"",""time"":2044},{""stimulus"":""https://ziweizhang0304.github.io/Stats_learning_trig/img/Stim/FN_012_g.png"",""time"":2064},{""stimulus"":""blank"",""time"":2384},{""stimulus"":""https://ziweizhang0304.github.io/Stats_learning_trig/img/Stim/FN_011_g.png"",""time"":2424},{""stimulus"":""blank"",""time"":2744},{""stimulus"":""https://ziweizhang0304.github.io/Stats_learning_trig/img/Stim/FN_026_g.png"",""time"":2765},{""stimulus"":""blank"",""time"":3084},{""stimulus"":""https://ziweizhang0304.github.io/Stats_learning_trig/img/Stim/FN_025_g.png"",""time"":3105},{""stimulus"":""blank"",""time"":3419},{""stimulus"":""https://ziweizhang0304.github.io/Stats_learning_trig/img/Stim/FN_019_g.png"",""time"":3444},{""stimulus"":""blank"",""time"":3764},{""stimulus"":""https://ziweizhang0304.github.io/Stats_learning_trig/img/Stim/FN_002_g.png"",""time"":3804},{""stimulus"":""blank"",""time"":4104},{""stimulus"":""https://ziweizhang0304.github.io/Stats_learning_trig/img/Stim/FN_022_g.png"",""time"":4164},{""stimulus"":""blank"",""time"":4464}]","[{""key_press"":32,""rt"":2058,""stimulus"":""blank""}]","334","https://ziweizhang0304.github.io/Stats_learning_trig/img/Stim/FN_008_g.png","post_TD","17","1724","2058","slow","5","2","5dd827c1393bd37c1adb1d47","","","","","",""
"","image-keyboard-response","47","162573","0.0-5.0-17.0-0.0","654","","","https://ziweizhang0304.github.io/Stats_learning_trig/img/Stim/FN_015_g.png","13","","","","","","","","","","","","","","","","","",""
"","animation","48","167047","0.0-5.0-17.0-1.0","","","","","","[{""stimulus"":""https://ziweizhang0304.github.io/Stats_learning_trig/img/Stim/FN_022_g.png"",""time"":343},{""stimulus"":""blank"",""time"":661},{""stimulus"":""https://ziweizhang0304.github.io/Stats_learning_trig/img/Stim/FN_018_g.png"",""time"":704},{""stimulus"":""blank"",""time"":1023},{""stimulus"":""https://ziweizhang0304.github.io/Stats_learning_trig/img/Stim/FN_002_g.png"",""time"":1044},{""stimulus"":""blank"",""time"":1353},{""stimulus"":""https://ziweizhang0304.github.io/Stats_learning_trig/img/Stim/FN_011_g.png"",""time"":1394},{""stimulus"":""blank"",""time"":1693},{""stimulus"":""https://ziweizhang0304.github.io/Stats_learning_trig/img/Stim/FN_019_g.png"",""time"":1734},{""stimulus"":""blank"",""time"":2054},{""stimulus"":""https://ziweizhang0304.github.io/Stats_learning_trig/img/Stim/FN_001_g.png"",""time"":2074},{""stimulus"":""blank"",""time"":2393},{""stimulus"":""https://ziweizhang0304.github.io/Stats_learning_trig/img/Stim/FN_015_g.png"",""time"":2415},{""stimulus"":""blank"",""time"":2733},{""stimulus"":""https://ziweizhang0304.github.io/Stats_learning_trig/img/Stim/FN_008_g.png"",""time"":2754},{""stimulus"":""blank"",""time"":3073},{""stimulus"":""https://ziweizhang0304.github.io/Stats_learning_trig/img/Stim/FN_012_g.png"",""time"":3094},{""stimulus"":""blank"",""time"":3414},{""stimulus"":""https://ziweizhang0304.github.io/Stats_learning_trig/img/Stim/FN_026_g.png"",""time"":3434},{""stimulus"":""blank"",""time"":3734},{""stimulus"":""https://ziweizhang0304.github.io/Stats_learning_trig/img/Stim/FN_025_g.png"",""time"":3794},{""stimulus"":""blank"",""time"":4114},{""stimulus"":""https://ziweizhang0304.github.io/Stats_learning_trig/img/Stim/FN_010_g.png"",""time"":4134},{""stimulus"":""blank"",""time"":4454}]","[{""key_press"":32,""rt"":2822,""stimulus"":""https://ziweizhang0304.github.io/Stats_learning_trig/img/Stim/FN_008_g.png""}]","407","https://ziweizhang0304.github.io/Stats_learning_trig/img/Stim/FN_015_g.png","post_TD","18","2415","2822","slow","7","1","5dd827c1393bd37c1adb1d47","","","","","",""
"","image-keyboard-response","49","167678","0.0-5.0-18.0-0.0","630","","","https://ziweizhang0304.github.io/Stats_learning_trig/img/Stim/FN_015_g.png","13","","","","","","","","","","","","","","","","","",""
"","animation","50","172170","0.0-5.0-18.0-1.0","","","","","","[{""stimulus"":""https://ziweizhang0304.github.io/Stats_learning_trig/img/Stim/FN_001_g.png"",""time"":349},{""stimulus"":""blank"",""time"":669},{""stimulus"":""https://ziweizhang0304.github.io/Stats_learning_trig/img/Stim/FN_010_g.png"",""time"":689},{""stimulus"":""blank"",""time"":1009},{""stimulus"":""https://ziweizhang0304.github.io/Stats_learning_trig/img/Stim/FN_018_g.png"",""time"":1030},{""stimulus"":""blank"",""time"":1349},{""stimulus"":""https://ziweizhang0304.github.io/Stats_learning_trig/img/Stim/FN_015_g.png"",""time"":1388},{""stimulus"":""blank"",""time"":1689},{""stimulus"":""https://ziweizhang0304.github.io/Stats_learning_trig/img/Stim/FN_008_g.png"",""time"":1729},{""stimulus"":""blank"",""time"":2048},{""stimulus"":""https://ziweizhang0304.github.io/Stats_learning_trig/img/Stim/FN_012_g.png"",""time"":2069},{""stimulus"":""blank"",""time"":2388},{""stimulus"":""https://ziweizhang0304.github.io/Stats_learning_trig/img/Stim/FN_011_g.png"",""time"":2409},{""stimulus"":""blank"",""time"":2729},{""stimulus"":""https://ziweizhang0304.github.io/Stats_learning_trig/img/Stim/FN_026_g.png"",""time"":2769},{""stimulus"":""blank"",""time"":3088},{""stimulus"":""https://ziweizhang0304.github.io/Stats_learning_trig/img/Stim/FN_025_g.png"",""time"":3109},{""stimulus"":""blank"",""time"":3428},{""stimulus"":""https://ziweizhang0304.github.io/Stats_learning_trig/img/Stim/FN_019_g.png"",""time"":3449},{""stimulus"":""blank"",""time"":3749},{""stimulus"":""https://ziweizhang0304.github.io/Stats_learning_trig/img/Stim/FN_002_g.png"",""time"":3791},{""stimulus"":""blank"",""time"":4108},{""stimulus"":""https://ziweizhang0304.github.io/Stats_learning_trig/img/Stim/FN_022_g.png"",""time"":4149},{""stimulus"":""blank"",""time"":4468}]","[{""key_press"":32,""rt"":1751,""stimulus"":""https://ziweizhang0304.github.io/Stats_learning_trig/img/Stim/FN_008_g.png""}]","363","https://ziweizhang0304.github.io/Stats_learning_trig/img/Stim/FN_015_g.png","post_TD","19","1388","1751","slow","4","1","5dd827c1393bd37c1adb1d47","","","","","",""
"","image-keyboard-response","51","172806","0.0-5.0-19.0-0.0","634","","","https://ziweizhang0304.github.io/Stats_learning_trig/img/Stim/FN_020_g.png","13","","","","","","","","","","","","","","","","","",""
"","animation","52","177287","0.0-5.0-19.0-1.0","","","","","","[{""stimulus"":""https://ziweizhang0304.github.io/Stats_learning_trig/img/Stim/FN_025_g.png"",""time"":341},{""stimulus"":""blank"",""time"":641},{""stimulus"":""https://ziweizhang0304.github.io/Stats_learning_trig/img/Stim/FN_011_g.png"",""time"":681},{""stimulus"":""blank"",""time"":1000},{""stimulus"":""https://ziweizhang0304.github.io/Stats_learning_trig/img/Stim/FN_026_g.png"",""time"":1021},{""stimulus"":""blank"",""time"":1341},{""stimulus"":""https://ziweizhang0304.github.io/Stats_learning_trig/img/Stim/FN_020_g.png"",""time"":1363},{""stimulus"":""blank"",""time"":1681},{""stimulus"":""https://ziweizhang0304.github.io/Stats_learning_trig/img/Stim/FN_017_g.png"",""time"":1721},{""stimulus"":""blank"",""time"":2041},{""stimulus"":""https://ziweizhang0304.github.io/Stats_learning_trig/img/Stim/FN_021_g.png"",""time"":2063},{""stimulus"":""blank"",""time"":2381},{""stimulus"":""https://ziweizhang0304.github.io/Stats_learning_trig/img/Stim/FN_019_g.png"",""time"":2401},{""stimulus"":""blank"",""time"":2721},{""stimulus"":""https://ziweizhang0304.github.io/Stats_learning_trig/img/Stim/FN_010_g.png"",""time"":2741},{""stimulus"":""blank"",""time"":3060},{""stimulus"":""https://ziweizhang0304.github.io/Stats_learning_trig/img/Stim/FN_001_g.png"",""time"":3101},{""stimulus"":""blank"",""time"":3421},{""stimulus"":""https://ziweizhang0304.github.io/Stats_learning_trig/img/Stim/FN_018_g.png"",""time"":3441},{""stimulus"":""blank"",""time"":3761},{""stimulus"":""https://ziweizhang0304.github.io/Stats_learning_trig/img/Stim/FN_002_g.png"",""time"":3782},{""stimulus"":""blank"",""time"":4101},{""stimulus"":""https://ziweizhang0304.github.io/Stats_learning_trig/img/Stim/FN_022_g.png"",""time"":4141},{""stimulus"":""blank"",""time"":4441}]","[{""key_press"":32,""rt"":1821,""stimulus"":""https://ziweizhang0304.github.io/Stats_learning_trig/img/Stim/FN_017_g.png""}]","458","https://ziweizhang0304.github.io/Stats_learning_trig/img/Stim/FN_020_g.png","post_TD","20","1363","1821","fast","4","1","5dd827c1393bd37c1adb1d47","","","","","",""
"","image-keyboard-response","53","178038","0.0-5.0-20.0-0.0","750","","","https://ziweizhang0304.github.io/Stats_learning_trig/img/Stim/FN_008_g.png","13","","","","","","","","","","","","","","","","","",""
"","animation","54","182508","0.0-5.0-20.0-1.0","","","","","","[{""stimulus"":""https://ziweizhang0304.github.io/Stats_learning_trig/img/Stim/FN_011_g.png"",""time"":351},{""stimulus"":""blank"",""time"":670},{""stimulus"":""https://ziweizhang0304.github.io/Stats_learning_trig/img/Stim/FN_010_g.png"",""time"":690},{""stimulus"":""blank"",""time"":990},{""stimulus"":""https://ziweizhang0304.github.io/Stats_learning_trig/img/Stim/FN_026_g.png"",""time"":1030},{""stimulus"":""blank"",""time"":1349},{""stimulus"":""https://ziweizhang0304.github.io/Stats_learning_trig/img/Stim/FN_018_g.png"",""time"":1370},{""stimulus"":""blank"",""time"":1689},{""stimulus"":""https://ziweizhang0304.github.io/Stats_learning_trig/img/Stim/FN_015_g.png"",""time"":1729},{""stimulus"":""blank"",""time"":2029},{""stimulus"":""https://ziweizhang0304.github.io/Stats_learning_trig/img/Stim/FN_008_g.png"",""time"":2070},{""stimulus"":""blank"",""time"":2370},{""stimulus"":""https://ziweizhang0304.github.io/Stats_learning_trig/img/Stim/FN_012_g.png"",""time"":2410},{""stimulus"":""blank"",""time"":2729},{""stimulus"":""https://ziweizhang0304.github.io/Stats_learning_trig/img/Stim/FN_025_g.png"",""time"":2750},{""stimulus"":""blank"",""time"":3069},{""stimulus"":""https://ziweizhang0304.github.io/Stats_learning_trig/img/Stim/FN_019_g.png"",""time"":3090},{""stimulus"":""blank"",""time"":3410},{""stimulus"":""https://ziweizhang0304.github.io/Stats_learning_trig/img/Stim/FN_001_g.png"",""time"":3430},{""stimulus"":""blank"",""time"":3749},{""stimulus"":""https://ziweizhang0304.github.io/Stats_learning_trig/img/Stim/FN_002_g.png"",""time"":3770},{""stimulus"":""blank"",""time"":4090},{""stimulus"":""https://ziweizhang0304.github.io/Stats_learning_trig/img/Stim/FN_022_g.png"",""time"":4110},{""stimulus"":""blank"",""time"":4430}]","[{""key_press"":32,""rt"":2432,""stimulus"":""https://ziweizhang0304.github.io/Stats_learning_trig/img/Stim/FN_012_g.png""}]","362","https://ziweizhang0304.github.io/Stats_learning_trig/img/Stim/FN_008_g.png","post_TD","21","2070","2432","slow","6","2","5dd827c1393bd37c1adb1d47","","","","","",""
"","image-keyboard-response","55","183193","0.0-5.0-21.0-0.0","683","","","https://ziweizhang0304.github.io/Stats_learning_trig/img/Stim/FN_021_g.png","13","","","","","","","","","","","","","","","","","",""
"","animation","56","187727","0.0-5.0-21.0-1.0","","","","","","[{""stimulus"":""https://ziweizhang0304.github.io/Stats_learning_trig/img/Stim/FN_026_g.png"",""time"":355},{""stimulus"":""blank"",""time"":655},{""stimulus"":""https://ziweizhang0304.github.io/Stats_learning_trig/img/Stim/FN_025_g.png"",""time"":715},{""stimulus"":""blank"",""time"":1035},{""stimulus"":""https://ziweizhang0304.github.io/Stats_learning_trig/img/Stim/FN_011_g.png"",""time"":1057},{""stimulus"":""blank"",""time"":1375},{""stimulus"":""https://ziweizhang0304.github.io/Stats_learning_trig/img/Stim/FN_022_g.png"",""time"":1415},{""stimulus"":""blank"",""time"":1735},{""stimulus"":""https://ziweizhang0304.github.io/Stats_learning_trig/img/Stim/FN_018_g.png"",""time"":1756},{""stimulus"":""blank"",""time"":2075},{""stimulus"":""https://ziweizhang0304.github.io/Stats_learning_trig/img/Stim/FN_020_g.png"",""time"":2095},{""stimulus"":""blank"",""time"":2415},{""stimulus"":""https://ziweizhang0304.github.io/Stats_learning_trig/img/Stim/FN_017_g.png"",""time"":2436},{""stimulus"":""blank"",""time"":2754},{""stimulus"":""https://ziweizhang0304.github.io/Stats_learning_trig/img/Stim/FN_021_g.png"",""time"":2790},{""stimulus"":""blank"",""time"":3095},{""stimulus"":""https://ziweizhang0304.github.io/Stats_learning_trig/img/Stim/FN_019_g.png"",""time"":3135},{""stimulus"":""blank"",""time"":3455},{""stimulus"":""https://ziweizhang0304.github.io/Stats_learning_trig/img/Stim/FN_010_g.png"",""time"":3490},{""stimulus"":""blank"",""time"":3814},{""stimulus"":""https://ziweizhang0304.github.io/Stats_learning_trig/img/Stim/FN_001_g.png"",""time"":3836},{""stimulus"":""blank"",""time"":4155},{""stimulus"":""https://ziweizhang0304.github.io/Stats_learning_trig/img/Stim/FN_002_g.png"",""time"":4175},{""stimulus"":""blank"",""time"":4475}]","[{""key_press"":32,""rt"":3118,""stimulus"":""blank""}]","328","https://ziweizhang0304.github.io/Stats_learning_trig/img/Stim/FN_021_g.png","post_TD","22","2790","3118","fast","8","3","5dd827c1393bd37c1adb1d47","","","","","",""
"","image-keyboard-response","57","188381","0.0-5.0-22.0-0.0","651","","","https://ziweizhang0304.github.io/Stats_learning_trig/img/Stim/FN_012_g.png","13","","","","","","","","","","","","","","","","","",""
"","animation","58","192907","0.0-5.0-22.0-1.0","","","","","","[{""stimulus"":""https://ziweizhang0304.github.io/Stats_learning_trig/img/Stim/FN_001_g.png"",""time"":346},{""stimulus"":""blank"",""time"":646},{""stimulus"":""https://ziweizhang0304.github.io/Stats_learning_trig/img/Stim/FN_019_g.png"",""time"":686},{""stimulus"":""blank"",""time"":1002},{""stimulus"":""https://ziweizhang0304.github.io/Stats_learning_trig/img/Stim/FN_018_g.png"",""time"":1026},{""stimulus"":""blank"",""time"":1346},{""stimulus"":""https://ziweizhang0304.github.io/Stats_learning_trig/img/Stim/FN_025_g.png"",""time"":1367},{""stimulus"":""blank"",""time"":1675},{""stimulus"":""https://ziweizhang0304.github.io/Stats_learning_trig/img/Stim/FN_026_g.png"",""time"":1726},{""stimulus"":""blank"",""time"":2045},{""stimulus"":""https://ziweizhang0304.github.io/Stats_learning_trig/img/Stim/FN_015_g.png"",""time"":2067},{""stimulus"":""blank"",""time"":2385},{""stimulus"":""https://ziweizhang0304.github.io/Stats_learning_trig/img/Stim/FN_008_g.png"",""time"":2427},{""stimulus"":""blank"",""time"":2746},{""stimulus"":""https://ziweizhang0304.github.io/Stats_learning_trig/img/Stim/FN_012_g.png"",""time"":2768},{""stimulus"":""blank"",""time"":3086},{""stimulus"":""https://ziweizhang0304.github.io/Stats_learning_trig/img/Stim/FN_011_g.png"",""time"":3126},{""stimulus"":""blank"",""time"":3426},{""stimulus"":""https://ziweizhang0304.github.io/Stats_learning_trig/img/Stim/FN_010_g.png"",""time"":3466},{""stimulus"":""blank"",""time"":3785},{""stimulus"":""https://ziweizhang0304.github.io/Stats_learning_trig/img/Stim/FN_002_g.png"",""time"":3826},{""stimulus"":""blank"",""time"":4145},{""stimulus"":""https://ziweizhang0304.github.io/Stats_learning_trig/img/Stim/FN_022_g.png"",""time"":4185},{""stimulus"":""blank"",""time"":4486}]","[{""key_press"":32,""rt"":3132,""stimulus"":""https://ziweizhang0304.github.io/Stats_learning_trig/img/Stim/FN_011_g.png""}]","364","https://ziweizhang0304.github.io/Stats_learning_trig/img/Stim/FN_012_g.png","post_TD","23","2768","3132","slow","8","3","5dd827c1393bd37c1adb1d47","","","","","",""
"","image-keyboard-response","59","193614","0.0-5.0-23.0-0.0","705","","","https://ziweizhang0304.github.io/Stats_learning_trig/img/Stim/FN_015_g.png","13","","","","","","","","","","","","","","","","","",""
"","animation","60","198107","0.0-5.0-23.0-1.0","","","","","","[{""stimulus"":""https://ziweizhang0304.github.io/Stats_learning_trig/img/Stim/FN_001_g.png"",""time"":354},{""stimulus"":""blank"",""time"":674},{""stimulus"":""https://ziweizhang0304.github.io/Stats_learning_trig/img/Stim/FN_019_g.png"",""time"":693},{""stimulus"":""blank"",""time"":994},{""stimulus"":""https://ziweizhang0304.github.io/Stats_learning_trig/img/Stim/FN_018_g.png"",""time"":1033},{""stimulus"":""blank"",""time"":1353},{""stimulus"":""https://ziweizhang0304.github.io/Stats_learning_trig/img/Stim/FN_025_g.png"",""time"":1373},{""stimulus"":""blank"",""time"":1693},{""stimulus"":""https://ziweizhang0304.github.io/Stats_learning_trig/img/Stim/FN_026_g.png"",""time"":1714},{""stimulus"":""blank"",""time"":2033},{""stimulus"":""https://ziweizhang0304.github.io/Stats_learning_trig/img/Stim/FN_015_g.png"",""time"":2055},{""stimulus"":""blank"",""time"":2373},{""stimulus"":""https://ziweizhang0304.github.io/Stats_learning_trig/img/Stim/FN_008_g.png"",""time"":2394},{""stimulus"":""blank"",""time"":2714},{""stimulus"":""https://ziweizhang0304.github.io/Stats_learning_trig/img/Stim/FN_012_g.png"",""time"":2755},{""stimulus"":""blank"",""time"":3073},{""stimulus"":""https://ziweizhang0304.github.io/Stats_learning_trig/img/Stim/FN_011_g.png"",""time"":3114},{""stimulus"":""blank"",""time"":3433},{""stimulus"":""https://ziweizhang0304.github.io/Stats_learning_trig/img/Stim/FN_010_g.png"",""time"":3454},{""stimulus"":""blank"",""time"":3773},{""stimulus"":""https://ziweizhang0304.github.io/Stats_learning_trig/img/Stim/FN_002_g.png"",""time"":3814},{""stimulus"":""blank"",""time"":4134},{""stimulus"":""https://ziweizhang0304.github.io/Stats_learning_trig/img/Stim/FN_022_g.png"",""time"":4154},{""stimulus"":""blank"",""time"":4454}]","[{""key_press"":32,""rt"":2379,""stimulus"":""blank""}]","324","https://ziweizhang0304.github.io/Stats_learning_trig/img/Stim/FN_015_g.png","post_TD","24","2055","2379","slow","6","1","5dd827c1393bd37c1adb1d47","eed9b","","","","",""
"","survey-text","61","238256","0.0-6.0","39866","","","","","","","","","","","","","","","","","","{""Q0"":""I made a name for all the shapes in my head so I could remember them better and focused on that so I could hit the spacebar as quick as possible.""}","","","",""
"","survey-text","62","274304","0.0-7.0","36039","","","","","","","","","","","","","","","","","","{""[object Object]"":""It seemed like the shape I was supposed to select was always like the 4th or 5th choice. Somewhere in the middle.""}","","","",""
"","instructions","63","281076","0.0-8.0","6772","","[{""page_index"":0,""viewing_time"":6771}]","","","","","","","","","","","","","","","","","","","",""
"","free-sort","64","297141","0.0-9.0","16064","","","","","","","","","post_drag","","","","fast","","","","","","[{""src"":""https://ziweizhang0304.github.io/Stats_learning_trig/img/Stim/FN_020_g.png"",""x"":475,""y"":0},{""src"":""https://ziweizhang0304.github.io/Stats_learning_trig/img/Stim/FN_021_g.png"",""x"":-225,""y"":50},{""src"":""https://ziweizhang0304.github.io/Stats_learning_trig/img/Stim/FN_017_g.png"",""x"":475,""y"":50}]","[{""src"":""https://ziweizhang0304.github.io/Stats_learning_trig/img/Stim/FN_017_g.png"",""x"":134,""y"":26},{""src"":""https://ziweizhang0304.github.io/Stats_learning_trig/img/Stim/FN_017_g.png"",""x"":27,""y"":26},{""src"":""https://ziweizhang0304.github.io/Stats_learning_trig/img/Stim/FN_020_g.png"",""x"":204,""y"":21},{""src"":""https://ziweizhang0304.github.io/Stats_learning_trig/img/Stim/FN_017_g.png"",""x"":122,""y"":23},{""src"":""https://ziweizhang0304.github.io/Stats_learning_trig/img/Stim/FN_021_g.png"",""x"":4,""y"":13}]","[{""src"":""https://ziweizhang0304.github.io/Stats_learning_trig/img/Stim/FN_020_g.png"",""x"":204,""y"":21},{""src"":""https://ziweizhang0304.github.io/Stats_learning_trig/img/Stim/FN_021_g.png"",""x"":4,""y"":13},{""src"":""https://ziweizhang0304.github.io/Stats_learning_trig/img/Stim/FN_017_g.png"",""x"":122,""y"":23}]",""
"","free-sort","65","303241","0.0-10.0","6098","","","","","","","","","post_drag","","","","slow","","","","","","[{""src"":""https://ziweizhang0304.github.io/Stats_learning_trig/img/Stim/FN_008_g.png"",""x"":475,""y"":0},{""src"":""https://ziweizhang0304.github.io/Stats_learning_trig/img/Stim/FN_012_g.png"",""x"":-225,""y"":50},{""src"":""https://ziweizhang0304.github.io/Stats_learning_trig/img/Stim/FN_015_g.png"",""x"":475,""y"":50}]","[{""src"":""https://ziweizhang0304.github.io/Stats_learning_trig/img/Stim/FN_015_g.png"",""x"":12,""y"":21},{""src"":""https://ziweizhang0304.github.io/Stats_learning_trig/img/Stim/FN_008_g.png"",""x"":97,""y"":19},{""src"":""https://ziweizhang0304.github.io/Stats_learning_trig/img/Stim/FN_012_g.png"",""x"":191,""y"":40}]","[{""src"":""https://ziweizhang0304.github.io/Stats_learning_trig/img/Stim/FN_008_g.png"",""x"":97,""y"":19},{""src"":""https://ziweizhang0304.github.io/Stats_learning_trig/img/Stim/FN_012_g.png"",""x"":191,""y"":40},{""src"":""https://ziweizhang0304.github.io/Stats_learning_trig/img/Stim/FN_015_g.png"",""x"":12,""y"":21}]",""
"","survey-multi-choice","66","312704","0.0-11.0","9460","","","","","","","","","","","","","","","","5dd827c1393bd37c1adb1d47","","{""awareness"":""No"",""attention_check"":""Press SPACEBAR to a target""}","","","","[0,1]"
