"success","trial_type","trial_index","time_elapsed","internal_node_id","rt","url","view_history","stimulus","key_press","animation_sequence","response","TD_rt","TD_target","test_part","TD_trial_number","onset","offset","attention_state","TD_target_position","TD_within_triplet_counter","participant","yoke_participant","responses","init_locations","moves","final_locations","question_order"
"true","fullscreen","0","2838","0.0-0.0","","","","","","","","","","","","","","","","","","","","","","",""
"","external-html","1","9875","0.0-1.0","6893","https://ziweizhang0304.github.io/Stats_learning_trig/content/consent.html","","","","","","","","","","","","","","","","","","","","",""
"","instructions","2","38686","0.0-2.0","28806.39999999851","","[{""page_index"":0,""viewing_time"":3602.800000000745},{""page_index"":1,""viewing_time"":11076.79999999702},{""page_index"":2,""viewing_time"":11157.20000000298},{""page_index"":3,""viewing_time"":2968.699999999255}]","","","","","","","","","","","","","","","","","","","",""
"","image-keyboard-response","3","43750","0.0-3.0-0.0-0.0","5062.699999999255","","","https://ziweizhang0304.github.io/Stats_learning_trig/img/Stim/FN_016_g.png","13","","","","","","","","","","","","","","","","","",""
"","animation","4","48174","0.0-3.0-0.0-1.0","","","","","","[{""stimulus"":""https://ziweizhang0304.github.io/Stats_learning_trig/img/Stim/FN_014_g.png"",""time"":350.80000000074506},{""stimulus"":""blank"",""time"":652.8000000007451},{""stimulus"":""https://ziweizhang0304.github.io/Stats_learning_trig/img/Stim/FN_015_g.png"",""time"":682.0999999977648},{""stimulus"":""blank"",""time"":984},{""stimulus"":""https://ziweizhang0304.github.io/Stats_learning_trig/img/Stim/FN_003_g.png"",""time"":1022.3999999985099},{""stimulus"":""blank"",""time"":1324.199999999255},{""stimulus"":""https://ziweizhang0304.github.io/Stats_learning_trig/img/Stim/FN_010_g.png"",""time"":1362.300000000745},{""stimulus"":""blank"",""time"":1663.699999999255},{""stimulus"":""https://ziweizhang0304.github.io/Stats_learning_trig/img/Stim/FN_001_g.png"",""time"":1702.300000000745},{""stimulus"":""blank"",""time"":2002.800000000745},{""stimulus"":""https://ziweizhang0304.github.io/Stats_learning_trig/img/Stim/FN_012_g.png"",""time"":2041.5},{""stimulus"":""blank"",""time"":2343},{""stimulus"":""https://ziweizhang0304.github.io/Stats_learning_trig/img/Stim/FN_023_g.png"",""time"":2382.099999997765},{""stimulus"":""blank"",""time"":2682.800000000745},{""stimulus"":""https://ziweizhang0304.github.io/Stats_learning_trig/img/Stim/FN_008_g.png"",""time"":2722.099999997765},{""stimulus"":""blank"",""time"":3022.89999999851},{""stimulus"":""https://ziweizhang0304.github.io/Stats_learning_trig/img/Stim/FN_024_g.png"",""time"":3062.39999999851},{""stimulus"":""blank"",""time"":3364},{""stimulus"":""https://ziweizhang0304.github.io/Stats_learning_trig/img/Stim/FN_022_g.png"",""time"":3402.5},{""stimulus"":""blank"",""time"":3704.599999997765},{""stimulus"":""https://ziweizhang0304.github.io/Stats_learning_trig/img/Stim/FN_016_g.png"",""time"":3742.300000000745},{""stimulus"":""blank"",""time"":4044.300000000745},{""stimulus"":""https://ziweizhang0304.github.io/Stats_learning_trig/img/Stim/FN_013_g.png"",""time"":4082.099999997765},{""stimulus"":""blank"",""time"":4384.199999999255}]","[{""key_press"":32,""rt"":4116.900000002235,""stimulus"":""https://ziweizhang0304.github.io/Stats_learning_trig/img/Stim/FN_013_g.png""}]","374.6000000014901","https://ziweizhang0304.github.io/Stats_learning_trig/img/Stim/FN_016_g.png","post_prac","","","","","","","","","","","","",""
"","html-keyboard-response","5","53303","0.0-3.0-0.0-2.0","5121.70000000298","","","<p>Your reaction time for this trial was 374.6 ms.</p><p>Remember that you should only press the SPACEBAR when you see the shape presented at the beginning of the trial. </b> </p><p>Press enter to move on.</p>","13","","","","","","","","","","","","","","","","","",""
"","image-keyboard-response","6","55908","0.0-3.0-1.0-0.0","2604.300000000745","","","https://ziweizhang0304.github.io/Stats_learning_trig/img/Stim/FN_010_g.png","13","","","","","","","","","","","","","","","","","",""
"","animation","7","60331","0.0-3.0-1.0-1.0","","","","","","[{""stimulus"":""https://ziweizhang0304.github.io/Stats_learning_trig/img/Stim/FN_001_g.png"",""time"":341.69999999925494},{""stimulus"":""blank"",""time"":643.1999999992549},{""stimulus"":""https://ziweizhang0304.github.io/Stats_learning_trig/img/Stim/FN_013_g.png"",""time"":682.1999999992549},{""stimulus"":""blank"",""time"":983.5999999977648},{""stimulus"":""https://ziweizhang0304.github.io/Stats_learning_trig/img/Stim/FN_003_g.png"",""time"":1021},{""stimulus"":""blank"",""time"":1322.3999999985099},{""stimulus"":""https://ziweizhang0304.github.io/Stats_learning_trig/img/Stim/FN_023_g.png"",""time"":1362.3999999985099},{""stimulus"":""blank"",""time"":1663},{""stimulus"":""https://ziweizhang0304.github.io/Stats_learning_trig/img/Stim/FN_012_g.png"",""time"":1702.2999999970198},{""stimulus"":""blank"",""time"":2003.3999999985099},{""stimulus"":""https://ziweizhang0304.github.io/Stats_learning_trig/img/Stim/FN_022_g.png"",""time"":2042.3999999985099},{""stimulus"":""blank"",""time"":2343.5},{""stimulus"":""https://ziweizhang0304.github.io/Stats_learning_trig/img/Stim/FN_016_g.png"",""time"":2382.199999999255},{""stimulus"":""blank"",""time"":2683},{""stimulus"":""https://ziweizhang0304.github.io/Stats_learning_trig/img/Stim/FN_010_g.png"",""time"":2722.699999999255},{""stimulus"":""blank"",""time"":3023.39999999851},{""stimulus"":""https://ziweizhang0304.github.io/Stats_learning_trig/img/Stim/FN_008_g.png"",""time"":3062.199999999255},{""stimulus"":""blank"",""time"":3363},{""stimulus"":""https://ziweizhang0304.github.io/Stats_learning_trig/img/Stim/FN_014_g.png"",""time"":3402.699999999255},{""stimulus"":""blank"",""time"":3704.5},{""stimulus"":""https://ziweizhang0304.github.io/Stats_learning_trig/img/Stim/FN_015_g.png"",""time"":3740.89999999851},{""stimulus"":""blank"",""time"":4041.2999999970198},{""stimulus"":""https://ziweizhang0304.github.io/Stats_learning_trig/img/Stim/FN_024_g.png"",""time"":4082},{""stimulus"":""blank"",""time"":4383.699999999255}]","[{""key_press"":32,""rt"":3099.699999999255,""stimulus"":""https://ziweizhang0304.github.io/Stats_learning_trig/img/Stim/FN_008_g.png""}]","377","https://ziweizhang0304.github.io/Stats_learning_trig/img/Stim/FN_010_g.png","post_prac","","","","","","","","","","","","",""
"","html-keyboard-response","8","63924","0.0-3.0-1.0-2.0","3591.39999999851","","","<p>Your reaction time for this trial was 377 ms.</p><p>Remember that you should only press the SPACEBAR when you see the shape presented at the beginning of the trial. </b> </p><p>Press enter to move on.</p>","13","","","","","","","","","","","","","","","","","",""
"","image-keyboard-response","9","67865","0.0-3.0-2.0-0.0","3940.10000000149","","","https://ziweizhang0304.github.io/Stats_learning_trig/img/Stim/FN_010_g.png","13","","","","","","","","","","","","","","","","","",""
"","animation","10","72288","0.0-3.0-2.0-1.0","","","","","","[{""stimulus"":""https://ziweizhang0304.github.io/Stats_learning_trig/img/Stim/FN_001_g.png"",""time"":341.80000000074506},{""stimulus"":""blank"",""time"":643.8000000007451},{""stimulus"":""https://ziweizhang0304.github.io/Stats_learning_trig/img/Stim/FN_024_g.png"",""time"":682},{""stimulus"":""blank"",""time"":983},{""stimulus"":""https://ziweizhang0304.github.io/Stats_learning_trig/img/Stim/FN_012_g.png"",""time"":1022.1999999992549},{""stimulus"":""blank"",""time"":1323.699999999255},{""stimulus"":""https://ziweizhang0304.github.io/Stats_learning_trig/img/Stim/FN_022_g.png"",""time"":1361.8999999985099},{""stimulus"":""blank"",""time"":1663.8999999985099},{""stimulus"":""https://ziweizhang0304.github.io/Stats_learning_trig/img/Stim/FN_016_g.png"",""time"":1702.0999999977648},{""stimulus"":""blank"",""time"":2002.800000000745},{""stimulus"":""https://ziweizhang0304.github.io/Stats_learning_trig/img/Stim/FN_010_g.png"",""time"":2041.8999999985099},{""stimulus"":""blank"",""time"":2343.5},{""stimulus"":""https://ziweizhang0304.github.io/Stats_learning_trig/img/Stim/FN_008_g.png"",""time"":2381.39999999851},{""stimulus"":""blank"",""time"":2682.099999997765},{""stimulus"":""https://ziweizhang0304.github.io/Stats_learning_trig/img/Stim/FN_023_g.png"",""time"":2721.300000000745},{""stimulus"":""blank"",""time"":3023.39999999851},{""stimulus"":""https://ziweizhang0304.github.io/Stats_learning_trig/img/Stim/FN_013_g.png"",""time"":3062.39999999851},{""stimulus"":""blank"",""time"":3363.300000000745},{""stimulus"":""https://ziweizhang0304.github.io/Stats_learning_trig/img/Stim/FN_003_g.png"",""time"":3401.599999997765},{""stimulus"":""blank"",""time"":3703.599999997765},{""stimulus"":""https://ziweizhang0304.github.io/Stats_learning_trig/img/Stim/FN_014_g.png"",""time"":3741.599999997765},{""stimulus"":""blank"",""time"":4042.699999999255},{""stimulus"":""https://ziweizhang0304.github.io/Stats_learning_trig/img/Stim/FN_015_g.png"",""time"":4081.5},{""stimulus"":""blank"",""time"":4383.099999997765}]","[{""key_press"":32,""rt"":2431.2000000029802,""stimulus"":""https://ziweizhang0304.github.io/Stats_learning_trig/img/Stim/FN_008_g.png""}]","389.30000000447035","https://ziweizhang0304.github.io/Stats_learning_trig/img/Stim/FN_010_g.png","post_prac","","","","","","","","","","","","",""
"","html-keyboard-response","11","74375","0.0-3.0-2.0-2.0","2083.199999999255","","","<p>Your reaction time for this trial was 389.3 ms.</p><p>Remember that you should only press the SPACEBAR when you see the shape presented at the beginning of the trial. </b> </p><p>Press enter to move on.</p>","13","","","","","","","","","","","","","","","","","",""
"","instructions","12","75707","0.0-4.0","1331.300000000745","","[{""page_index"":0,""viewing_time"":1330.9000000022352}]","","","","","","","","","","","","","","","","","","","",""
"","image-keyboard-response","13","78647","0.0-5.0-0.0-0.0","2938.5","","","https://ziweizhang0304.github.io/Stats_learning_trig/img/Stim/FN_020_g.png","13","","","","","","","","","","","","","","","","","",""
"","animation","14","83069","0.0-5.0-0.0-1.0","","","","","","[{""stimulus"":""https://ziweizhang0304.github.io/Stats_learning_trig/img/Stim/FN_015_g.png"",""time"":342.30000000074506},{""stimulus"":""blank"",""time"":643.3999999985099},{""stimulus"":""https://ziweizhang0304.github.io/Stats_learning_trig/img/Stim/FN_003_g.png"",""time"":681.3000000007451},{""stimulus"":""blank"",""time"":982.0999999977648},{""stimulus"":""https://ziweizhang0304.github.io/Stats_learning_trig/img/Stim/FN_014_g.png"",""time"":1021.3999999985099},{""stimulus"":""blank"",""time"":1321.699999999255},{""stimulus"":""https://ziweizhang0304.github.io/Stats_learning_trig/img/Stim/FN_013_g.png"",""time"":1361.699999999255},{""stimulus"":""blank"",""time"":1662.8999999985099},{""stimulus"":""https://ziweizhang0304.github.io/Stats_learning_trig/img/Stim/FN_012_g.png"",""time"":1702.0999999977648},{""stimulus"":""blank"",""time"":2002.5},{""stimulus"":""https://ziweizhang0304.github.io/Stats_learning_trig/img/Stim/FN_008_g.png"",""time"":2041.800000000745},{""stimulus"":""blank"",""time"":2342.89999999851},{""stimulus"":""https://ziweizhang0304.github.io/Stats_learning_trig/img/Stim/FN_019_g.png"",""time"":2381.800000000745},{""stimulus"":""blank"",""time"":2683.099999997765},{""stimulus"":""https://ziweizhang0304.github.io/Stats_learning_trig/img/Stim/FN_020_g.png"",""time"":2721.699999999255},{""stimulus"":""blank"",""time"":3023.5},{""stimulus"":""https://ziweizhang0304.github.io/Stats_learning_trig/img/Stim/FN_006_g.png"",""time"":3062.199999999255},{""stimulus"":""blank"",""time"":3363.300000000745},{""stimulus"":""https://ziweizhang0304.github.io/Stats_learning_trig/img/Stim/FN_023_g.png"",""time"":3402.199999999255},{""stimulus"":""blank"",""time"":3703},{""stimulus"":""https://ziweizhang0304.github.io/Stats_learning_trig/img/Stim/FN_001_g.png"",""time"":3742.199999999255},{""stimulus"":""blank"",""time"":4044.099999997765},{""stimulus"":""https://ziweizhang0304.github.io/Stats_learning_trig/img/Stim/FN_024_g.png"",""time"":4082.300000000745},{""stimulus"":""blank"",""time"":4383.39999999851}]","[{""key_press"":32,""rt"":3142.10000000149,""stimulus"":""https://ziweizhang0304.github.io/Stats_learning_trig/img/Stim/FN_006_g.png""}]","420.4000000022352","https://ziweizhang0304.github.io/Stats_learning_trig/img/Stim/FN_020_g.png","post_TD","1","2721.699999999255","3142.10000000149","slow","8","2","60fd6ea5d5e5f804bb6fc4cf","","","","","",""
"","image-keyboard-response","15","86352","0.0-5.0-1.0-0.0","3280.39999999851","","","https://ziweizhang0304.github.io/Stats_learning_trig/img/Stim/FN_010_g.png","13","","","","","","","","","","","","","","","","","",""
"","animation","16","90776","0.0-5.0-1.0-1.0","","","","","","[{""stimulus"":""https://ziweizhang0304.github.io/Stats_learning_trig/img/Stim/FN_003_g.png"",""time"":341.6000000014901},{""stimulus"":""blank"",""time"":642.8000000007451},{""stimulus"":""https://ziweizhang0304.github.io/Stats_learning_trig/img/Stim/FN_013_g.png"",""time"":681.8000000007451},{""stimulus"":""blank"",""time"":983.1000000014901},{""stimulus"":""https://ziweizhang0304.github.io/Stats_learning_trig/img/Stim/FN_001_g.png"",""time"":1021.6000000014901},{""stimulus"":""blank"",""time"":1322.800000000745},{""stimulus"":""https://ziweizhang0304.github.io/Stats_learning_trig/img/Stim/FN_008_g.png"",""time"":1361.1000000014901},{""stimulus"":""blank"",""time"":1662.800000000745},{""stimulus"":""https://ziweizhang0304.github.io/Stats_learning_trig/img/Stim/FN_022_g.png"",""time"":1702.300000000745},{""stimulus"":""blank"",""time"":2002.9000000022352},{""stimulus"":""https://ziweizhang0304.github.io/Stats_learning_trig/img/Stim/FN_016_g.png"",""time"":2042.4000000022352},{""stimulus"":""blank"",""time"":2343.400000002235},{""stimulus"":""https://ziweizhang0304.github.io/Stats_learning_trig/img/Stim/FN_010_g.png"",""time"":2382.2000000029802},{""stimulus"":""blank"",""time"":2683.2000000029802},{""stimulus"":""https://ziweizhang0304.github.io/Stats_learning_trig/img/Stim/FN_023_g.png"",""time"":2721.5},{""stimulus"":""blank"",""time"":3021.800000000745},{""stimulus"":""https://ziweizhang0304.github.io/Stats_learning_trig/img/Stim/FN_012_g.png"",""time"":3061.800000000745},{""stimulus"":""blank"",""time"":3362.60000000149},{""stimulus"":""https://ziweizhang0304.github.io/Stats_learning_trig/img/Stim/FN_014_g.png"",""time"":3401.800000000745},{""stimulus"":""blank"",""time"":3702.7000000029802},{""stimulus"":""https://ziweizhang0304.github.io/Stats_learning_trig/img/Stim/FN_015_g.png"",""time"":3742.2000000029802},{""stimulus"":""blank"",""time"":4043.2000000029802},{""stimulus"":""https://ziweizhang0304.github.io/Stats_learning_trig/img/Stim/FN_024_g.png"",""time"":4081.900000002235},{""stimulus"":""blank"",""time"":4382.900000002235}]","[{""key_press"":32,""rt"":2778.60000000149,""stimulus"":""https://ziweizhang0304.github.io/Stats_learning_trig/img/Stim/FN_023_g.png""}]","396.3999999985099","https://ziweizhang0304.github.io/Stats_learning_trig/img/Stim/FN_010_g.png","post_TD","2","2382.2000000029802","2778.60000000149","fast","7","3","60fd6ea5d5e5f804bb6fc4cf","","","","","",""
"","image-keyboard-response","17","92746","0.0-5.0-2.0-0.0","1967.6000000014901","","","https://ziweizhang0304.github.io/Stats_learning_trig/img/Stim/FN_010_g.png","13","","","","","","","","","","","","","","","","","",""
"","animation","18","97168","0.0-5.0-2.0-1.0","","","","","","[{""stimulus"":""https://ziweizhang0304.github.io/Stats_learning_trig/img/Stim/FN_013_g.png"",""time"":342.3999999985099},{""stimulus"":""blank"",""time"":643.6999999992549},{""stimulus"":""https://ziweizhang0304.github.io/Stats_learning_trig/img/Stim/FN_023_g.png"",""time"":682.8000000007451},{""stimulus"":""blank"",""time"":983.5999999977648},{""stimulus"":""https://ziweizhang0304.github.io/Stats_learning_trig/img/Stim/FN_008_g.png"",""time"":1022},{""stimulus"":""blank"",""time"":1323.3999999985099},{""stimulus"":""https://ziweizhang0304.github.io/Stats_learning_trig/img/Stim/FN_014_g.png"",""time"":1362.5},{""stimulus"":""blank"",""time"":1664.199999999255},{""stimulus"":""https://ziweizhang0304.github.io/Stats_learning_trig/img/Stim/FN_003_g.png"",""time"":1702.199999999255},{""stimulus"":""blank"",""time"":2003.300000000745},{""stimulus"":""https://ziweizhang0304.github.io/Stats_learning_trig/img/Stim/FN_024_g.png"",""time"":2042},{""stimulus"":""blank"",""time"":2342.699999999255},{""stimulus"":""https://ziweizhang0304.github.io/Stats_learning_trig/img/Stim/FN_022_g.png"",""time"":2382.099999997765},{""stimulus"":""blank"",""time"":2683.39999999851},{""stimulus"":""https://ziweizhang0304.github.io/Stats_learning_trig/img/Stim/FN_016_g.png"",""time"":2721.800000000745},{""stimulus"":""blank"",""time"":3022.5},{""stimulus"":""https://ziweizhang0304.github.io/Stats_learning_trig/img/Stim/FN_010_g.png"",""time"":3061.89999999851},{""stimulus"":""blank"",""time"":3363},{""stimulus"":""https://ziweizhang0304.github.io/Stats_learning_trig/img/Stim/FN_012_g.png"",""time"":3401.39999999851},{""stimulus"":""blank"",""time"":3702.699999999255},{""stimulus"":""https://ziweizhang0304.github.io/Stats_learning_trig/img/Stim/FN_001_g.png"",""time"":3741.800000000745},{""stimulus"":""blank"",""time"":4042.89999999851},{""stimulus"":""https://ziweizhang0304.github.io/Stats_learning_trig/img/Stim/FN_015_g.png"",""time"":4081.89999999851},{""stimulus"":""blank"",""time"":4382.5}]","[{""key_press"":32,""rt"":3485.10000000149,""stimulus"":""https://ziweizhang0304.github.io/Stats_learning_trig/img/Stim/FN_012_g.png""}]","423.20000000298023","https://ziweizhang0304.github.io/Stats_learning_trig/img/Stim/FN_010_g.png","post_TD","3","3061.89999999851","3485.10000000149","fast","9","3","60fd6ea5d5e5f804bb6fc4cf","","","","","",""
"","image-keyboard-response","19","99002","0.0-5.0-3.0-0.0","1831.7999999970198","","","https://ziweizhang0304.github.io/Stats_learning_trig/img/Stim/FN_022_g.png","13","","","","","","","","","","","","","","","","","",""
"","animation","20","103424","0.0-5.0-3.0-1.0","","","","","","[{""stimulus"":""https://ziweizhang0304.github.io/Stats_learning_trig/img/Stim/FN_001_g.png"",""time"":341.69999999925494},{""stimulus"":""blank"",""time"":642.1999999992549},{""stimulus"":""https://ziweizhang0304.github.io/Stats_learning_trig/img/Stim/FN_024_g.png"",""time"":681.8000000007451},{""stimulus"":""blank"",""time"":983.1999999992549},{""stimulus"":""https://ziweizhang0304.github.io/Stats_learning_trig/img/Stim/FN_012_g.png"",""time"":1021.6999999992549},{""stimulus"":""blank"",""time"":1322.4000000022352},{""stimulus"":""https://ziweizhang0304.github.io/Stats_learning_trig/img/Stim/FN_022_g.png"",""time"":1362.199999999255},{""stimulus"":""blank"",""time"":1663.699999999255},{""stimulus"":""https://ziweizhang0304.github.io/Stats_learning_trig/img/Stim/FN_016_g.png"",""time"":1702.300000000745},{""stimulus"":""blank"",""time"":2002.699999999255},{""stimulus"":""https://ziweizhang0304.github.io/Stats_learning_trig/img/Stim/FN_010_g.png"",""time"":2042.300000000745},{""stimulus"":""blank"",""time"":2343.199999999255},{""stimulus"":""https://ziweizhang0304.github.io/Stats_learning_trig/img/Stim/FN_008_g.png"",""time"":2381.5},{""stimulus"":""blank"",""time"":2682.199999999255},{""stimulus"":""https://ziweizhang0304.github.io/Stats_learning_trig/img/Stim/FN_023_g.png"",""time"":2721.800000000745},{""stimulus"":""blank"",""time"":3023.699999999255},{""stimulus"":""https://ziweizhang0304.github.io/Stats_learning_trig/img/Stim/FN_013_g.png"",""time"":3061.5},{""stimulus"":""blank"",""time"":3362.800000000745},{""stimulus"":""https://ziweizhang0304.github.io/Stats_learning_trig/img/Stim/FN_003_g.png"",""time"":3401.5},{""stimulus"":""blank"",""time"":3703.400000002235},{""stimulus"":""https://ziweizhang0304.github.io/Stats_learning_trig/img/Stim/FN_014_g.png"",""time"":3742.800000000745},{""stimulus"":""blank"",""time"":4043.300000000745},{""stimulus"":""https://ziweizhang0304.github.io/Stats_learning_trig/img/Stim/FN_015_g.png"",""time"":4082.10000000149},{""stimulus"":""blank"",""time"":4383.300000000745}]","[{""key_press"":32,""rt"":1730.5,""stimulus"":""https://ziweizhang0304.github.io/Stats_learning_trig/img/Stim/FN_016_g.png""}]","368.30000000074506","https://ziweizhang0304.github.io/Stats_learning_trig/img/Stim/FN_022_g.png","post_TD","4","1362.199999999255","1730.5","fast","4","1","60fd6ea5d5e5f804bb6fc4cf","","","","","",""
"","image-keyboard-response","21","105721","0.0-5.0-4.0-0.0","2293","","","https://ziweizhang0304.github.io/Stats_learning_trig/img/Stim/FN_006_g.png","13","","","","","","","","","","","","","","","","","",""
"","animation","22","110143","0.0-5.0-4.0-1.0","","","","","","[{""stimulus"":""https://ziweizhang0304.github.io/Stats_learning_trig/img/Stim/FN_015_g.png"",""time"":341.8999999985099},{""stimulus"":""blank"",""time"":643.1999999992549},{""stimulus"":""https://ziweizhang0304.github.io/Stats_learning_trig/img/Stim/FN_003_g.png"",""time"":681.3999999985099},{""stimulus"":""blank"",""time"":982},{""stimulus"":""https://ziweizhang0304.github.io/Stats_learning_trig/img/Stim/FN_014_g.png"",""time"":1022.3999999985099},{""stimulus"":""blank"",""time"":1323.300000000745},{""stimulus"":""https://ziweizhang0304.github.io/Stats_learning_trig/img/Stim/FN_013_g.png"",""time"":1362},{""stimulus"":""blank"",""time"":1662.199999999255},{""stimulus"":""https://ziweizhang0304.github.io/Stats_learning_trig/img/Stim/FN_012_g.png"",""time"":1702.5999999977648},{""stimulus"":""blank"",""time"":2003.199999999255},{""stimulus"":""https://ziweizhang0304.github.io/Stats_learning_trig/img/Stim/FN_008_g.png"",""time"":2041.699999999255},{""stimulus"":""blank"",""time"":2343.099999997765},{""stimulus"":""https://ziweizhang0304.github.io/Stats_learning_trig/img/Stim/FN_019_g.png"",""time"":2381.5},{""stimulus"":""blank"",""time"":2683.5},{""stimulus"":""https://ziweizhang0304.github.io/Stats_learning_trig/img/Stim/FN_020_g.png"",""time"":2721},{""stimulus"":""blank"",""time"":3022.599999997765},{""stimulus"":""https://ziweizhang0304.github.io/Stats_learning_trig/img/Stim/FN_006_g.png"",""time"":3062.300000000745},{""stimulus"":""blank"",""time"":3363.199999999255},{""stimulus"":""https://ziweizhang0304.github.io/Stats_learning_trig/img/Stim/FN_023_g.png"",""time"":3402.300000000745},{""stimulus"":""blank"",""time"":3704.099999997765},{""stimulus"":""https://ziweizhang0304.github.io/Stats_learning_trig/img/Stim/FN_001_g.png"",""time"":3741.199999999255},{""stimulus"":""blank"",""time"":4041.699999999255},{""stimulus"":""https://ziweizhang0304.github.io/Stats_learning_trig/img/Stim/FN_024_g.png"",""time"":4081.5},{""stimulus"":""blank"",""time"":4382.89999999851}]","[{""key_press"":32,""rt"":3441.800000000745,""stimulus"":""https://ziweizhang0304.github.io/Stats_learning_trig/img/Stim/FN_023_g.png""}]","379.5","https://ziweizhang0304.github.io/Stats_learning_trig/img/Stim/FN_006_g.png","post_TD","5","3062.300000000745","3441.800000000745","slow","9","3","60fd6ea5d5e5f804bb6fc4cf","","","","","",""
"","image-keyboard-response","23","112270","0.0-5.0-5.0-0.0","2126.199999999255","","","https://ziweizhang0304.github.io/Stats_learning_trig/img/Stim/FN_006_g.png","13","","","","","","","","","","","","","","","","","",""
"","animation","24","116692","0.0-5.0-5.0-1.0","","","","","","[{""stimulus"":""https://ziweizhang0304.github.io/Stats_learning_trig/img/Stim/FN_015_g.png"",""time"":342.3999999985099},{""stimulus"":""blank"",""time"":643.6000000014901},{""stimulus"":""https://ziweizhang0304.github.io/Stats_learning_trig/img/Stim/FN_001_g.png"",""time"":680.8000000007451},{""stimulus"":""blank"",""time"":981.8999999985099},{""stimulus"":""https://ziweizhang0304.github.io/Stats_learning_trig/img/Stim/FN_003_g.png"",""time"":1022},{""stimulus"":""blank"",""time"":1322.3999999985099},{""stimulus"":""https://ziweizhang0304.github.io/Stats_learning_trig/img/Stim/FN_024_g.png"",""time"":1361.6000000014901},{""stimulus"":""blank"",""time"":1662.8999999985099},{""stimulus"":""https://ziweizhang0304.github.io/Stats_learning_trig/img/Stim/FN_008_g.png"",""time"":1702.1000000014901},{""stimulus"":""blank"",""time"":2003.5},{""stimulus"":""https://ziweizhang0304.github.io/Stats_learning_trig/img/Stim/FN_019_g.png"",""time"":2042.1000000014901},{""stimulus"":""blank"",""time"":2343.10000000149},{""stimulus"":""https://ziweizhang0304.github.io/Stats_learning_trig/img/Stim/FN_020_g.png"",""time"":2381.699999999255},{""stimulus"":""blank"",""time"":2683.39999999851},{""stimulus"":""https://ziweizhang0304.github.io/Stats_learning_trig/img/Stim/FN_006_g.png"",""time"":2721.60000000149},{""stimulus"":""blank"",""time"":3022.699999999255},{""stimulus"":""https://ziweizhang0304.github.io/Stats_learning_trig/img/Stim/FN_023_g.png"",""time"":3061.89999999851},{""stimulus"":""blank"",""time"":3363},{""stimulus"":""https://ziweizhang0304.github.io/Stats_learning_trig/img/Stim/FN_012_g.png"",""time"":3402.39999999851},{""stimulus"":""blank"",""time"":3702.89999999851},{""stimulus"":""https://ziweizhang0304.github.io/Stats_learning_trig/img/Stim/FN_013_g.png"",""time"":3741.800000000745},{""stimulus"":""blank"",""time"":4043.39999999851},{""stimulus"":""https://ziweizhang0304.github.io/Stats_learning_trig/img/Stim/FN_014_g.png"",""time"":4081.39999999851},{""stimulus"":""blank"",""time"":4382.300000000745}]","[{""key_press"":32,""rt"":3113.699999999255,""stimulus"":""https://ziweizhang0304.github.io/Stats_learning_trig/img/Stim/FN_023_g.png""}]","392.0999999977648","https://ziweizhang0304.github.io/Stats_learning_trig/img/Stim/FN_006_g.png","post_TD","6","2721.60000000149","3113.699999999255","slow","8","3","60fd6ea5d5e5f804bb6fc4cf","","","","","",""
"","image-keyboard-response","25","119320","0.0-5.0-6.0-0.0","2624.39999999851","","","https://ziweizhang0304.github.io/Stats_learning_trig/img/Stim/FN_019_g.png","13","","","","","","","","","","","","","","","","","",""
"","animation","26","123742","0.0-5.0-6.0-1.0","","","","","","[{""stimulus"":""https://ziweizhang0304.github.io/Stats_learning_trig/img/Stim/FN_003_g.png"",""time"":342.69999999925494},{""stimulus"":""blank"",""time"":643.5},{""stimulus"":""https://ziweizhang0304.github.io/Stats_learning_trig/img/Stim/FN_014_g.png"",""time"":681.5999999977648},{""stimulus"":""blank"",""time"":983},{""stimulus"":""https://ziweizhang0304.github.io/Stats_learning_trig/img/Stim/FN_023_g.png"",""time"":1022.5},{""stimulus"":""blank"",""time"":1323.3999999985099},{""stimulus"":""https://ziweizhang0304.github.io/Stats_learning_trig/img/Stim/FN_019_g.png"",""time"":1362.5999999977648},{""stimulus"":""blank"",""time"":1663.199999999255},{""stimulus"":""https://ziweizhang0304.github.io/Stats_learning_trig/img/Stim/FN_020_g.png"",""time"":1702.0999999977648},{""stimulus"":""blank"",""time"":2003.2999999970198},{""stimulus"":""https://ziweizhang0304.github.io/Stats_learning_trig/img/Stim/FN_006_g.png"",""time"":2042.199999999255},{""stimulus"":""blank"",""time"":2343.599999997765},{""stimulus"":""https://ziweizhang0304.github.io/Stats_learning_trig/img/Stim/FN_008_g.png"",""time"":2381.199999999255},{""stimulus"":""blank"",""time"":2682.699999999255},{""stimulus"":""https://ziweizhang0304.github.io/Stats_learning_trig/img/Stim/FN_012_g.png"",""time"":2721.89999999851},{""stimulus"":""blank"",""time"":3023.2999999970198},{""stimulus"":""https://ziweizhang0304.github.io/Stats_learning_trig/img/Stim/FN_013_g.png"",""time"":3061},{""stimulus"":""blank"",""time"":3362.099999997765},{""stimulus"":""https://ziweizhang0304.github.io/Stats_learning_trig/img/Stim/FN_001_g.png"",""time"":3402},{""stimulus"":""blank"",""time"":3703},{""stimulus"":""https://ziweizhang0304.github.io/Stats_learning_trig/img/Stim/FN_015_g.png"",""time"":3742.2999999970198},{""stimulus"":""blank"",""time"":4046.39999999851},{""stimulus"":""https://ziweizhang0304.github.io/Stats_learning_trig/img/Stim/FN_024_g.png"",""time"":4081.2999999970198},{""stimulus"":""blank"",""time"":4382.099999997765}]","[{""key_press"":32,""rt"":1898,""stimulus"":""https://ziweizhang0304.github.io/Stats_learning_trig/img/Stim/FN_020_g.png""}]","535.4000000022352","https://ziweizhang0304.github.io/Stats_learning_trig/img/Stim/FN_019_g.png","post_TD","7","1362.5999999977648","1898","slow","4","1","60fd6ea5d5e5f804bb6fc4cf","","","","","",""
"","image-keyboard-response","27","125873","0.0-5.0-7.0-0.0","2128.599999997765","","","https://ziweizhang0304.github.io/Stats_learning_trig/img/Stim/FN_020_g.png","13","","","","","","","","","","","","","","","","","",""
"","animation","28","130295","0.0-5.0-7.0-1.0","","","","","","[{""stimulus"":""https://ziweizhang0304.github.io/Stats_learning_trig/img/Stim/FN_003_g.png"",""time"":342.5},{""stimulus"":""blank"",""time"":643.0999999977648},{""stimulus"":""https://ziweizhang0304.github.io/Stats_learning_trig/img/Stim/FN_014_g.png"",""time"":680.7999999970198},{""stimulus"":""blank"",""time"":981.2999999970198},{""stimulus"":""https://ziweizhang0304.github.io/Stats_learning_trig/img/Stim/FN_023_g.png"",""time"":1022.1999999992549},{""stimulus"":""blank"",""time"":1322.5999999977648},{""stimulus"":""https://ziweizhang0304.github.io/Stats_learning_trig/img/Stim/FN_019_g.png"",""time"":1361.7999999970198},{""stimulus"":""blank"",""time"":1662.8999999985099},{""stimulus"":""https://ziweizhang0304.github.io/Stats_learning_trig/img/Stim/FN_020_g.png"",""time"":1702.0999999977648},{""stimulus"":""blank"",""time"":2002.8999999985099},{""stimulus"":""https://ziweizhang0304.github.io/Stats_learning_trig/img/Stim/FN_006_g.png"",""time"":2041},{""stimulus"":""blank"",""time"":2342.699999999255},{""stimulus"":""https://ziweizhang0304.github.io/Stats_learning_trig/img/Stim/FN_008_g.png"",""time"":2382.199999999255},{""stimulus"":""blank"",""time"":2683.5},{""stimulus"":""https://ziweizhang0304.github.io/Stats_learning_trig/img/Stim/FN_012_g.png"",""time"":2721.5},{""stimulus"":""blank"",""time"":3022.699999999255},{""stimulus"":""https://ziweizhang0304.github.io/Stats_learning_trig/img/Stim/FN_013_g.png"",""time"":3061.89999999851},{""stimulus"":""blank"",""time"":3363.699999999255},{""stimulus"":""https://ziweizhang0304.github.io/Stats_learning_trig/img/Stim/FN_001_g.png"",""time"":3402},{""stimulus"":""blank"",""time"":3703.099999997765},{""stimulus"":""https://ziweizhang0304.github.io/Stats_learning_trig/img/Stim/FN_015_g.png"",""time"":3742.2999999970198},{""stimulus"":""blank"",""time"":4042.7999999970198},{""stimulus"":""https://ziweizhang0304.github.io/Stats_learning_trig/img/Stim/FN_024_g.png"",""time"":4081.699999999255},{""stimulus"":""blank"",""time"":4382}]","[{""key_press"":32,""rt"":2091.199999999255,""stimulus"":""https://ziweizhang0304.github.io/Stats_learning_trig/img/Stim/FN_006_g.png""}]","389.1000000014901","https://ziweizhang0304.github.io/Stats_learning_trig/img/Stim/FN_020_g.png","post_TD","8","1702.0999999977648","2091.199999999255","slow","5","2","60fd6ea5d5e5f804bb6fc4cf","","","","","",""
"","image-keyboard-response","29","131487","0.0-5.0-8.0-0.0","1188.300000000745","","","https://ziweizhang0304.github.io/Stats_learning_trig/img/Stim/FN_006_g.png","13","","","","","","","","","","","","","","","","","",""
"","animation","30","135909","0.0-5.0-8.0-1.0","","","","","","[{""stimulus"":""https://ziweizhang0304.github.io/Stats_learning_trig/img/Stim/FN_024_g.png"",""time"":341},{""stimulus"":""blank"",""time"":642.3000000007451},{""stimulus"":""https://ziweizhang0304.github.io/Stats_learning_trig/img/Stim/FN_015_g.png"",""time"":682.0999999977648},{""stimulus"":""blank"",""time"":983.1999999992549},{""stimulus"":""https://ziweizhang0304.github.io/Stats_learning_trig/img/Stim/FN_008_g.png"",""time"":1022.3999999985099},{""stimulus"":""blank"",""time"":1323.300000000745},{""stimulus"":""https://ziweizhang0304.github.io/Stats_learning_trig/img/Stim/FN_001_g.png"",""time"":1362.5},{""stimulus"":""blank"",""time"":1662.800000000745},{""stimulus"":""https://ziweizhang0304.github.io/Stats_learning_trig/img/Stim/FN_019_g.png"",""time"":1701.5999999977648},{""stimulus"":""blank"",""time"":2002.5},{""stimulus"":""https://ziweizhang0304.github.io/Stats_learning_trig/img/Stim/FN_020_g.png"",""time"":2041.5},{""stimulus"":""blank"",""time"":2343.5},{""stimulus"":""https://ziweizhang0304.github.io/Stats_learning_trig/img/Stim/FN_006_g.png"",""time"":2381.800000000745},{""stimulus"":""blank"",""time"":2682.89999999851},{""stimulus"":""https://ziweizhang0304.github.io/Stats_learning_trig/img/Stim/FN_023_g.png"",""time"":2722.5},{""stimulus"":""blank"",""time"":3023},{""stimulus"":""https://ziweizhang0304.github.io/Stats_learning_trig/img/Stim/FN_012_g.png"",""time"":3062},{""stimulus"":""blank"",""time"":3363.39999999851},{""stimulus"":""https://ziweizhang0304.github.io/Stats_learning_trig/img/Stim/FN_013_g.png"",""time"":3402.89999999851},{""stimulus"":""blank"",""time"":3704},{""stimulus"":""https://ziweizhang0304.github.io/Stats_learning_trig/img/Stim/FN_003_g.png"",""time"":3741.599999997765},{""stimulus"":""blank"",""time"":4042.699999999255},{""stimulus"":""https://ziweizhang0304.github.io/Stats_learning_trig/img/Stim/FN_014_g.png"",""time"":4081.5},{""stimulus"":""blank"",""time"":4383.099999997765}]","[{""key_press"":32,""rt"":2739.60000000149,""stimulus"":""https://ziweizhang0304.github.io/Stats_learning_trig/img/Stim/FN_023_g.png""}]","357.80000000074506","https://ziweizhang0304.github.io/Stats_learning_trig/img/Stim/FN_006_g.png","post_TD","9","2381.800000000745","2739.60000000149","slow","7","3","60fd6ea5d5e5f804bb6fc4cf","","","","","",""
"","image-keyboard-response","31","137943","0.0-5.0-9.0-0.0","2033.199999999255","","","https://ziweizhang0304.github.io/Stats_learning_trig/img/Stim/FN_022_g.png","13","","","","","","","","","","","","","","","","","",""
"","animation","32","142365","0.0-5.0-9.0-1.0","","","","","","[{""stimulus"":""https://ziweizhang0304.github.io/Stats_learning_trig/img/Stim/FN_013_g.png"",""time"":342},{""stimulus"":""blank"",""time"":643},{""stimulus"":""https://ziweizhang0304.github.io/Stats_learning_trig/img/Stim/FN_023_g.png"",""time"":681.9000000022352},{""stimulus"":""blank"",""time"":982.9000000022352},{""stimulus"":""https://ziweizhang0304.github.io/Stats_learning_trig/img/Stim/FN_008_g.png"",""time"":1021.6000000014901},{""stimulus"":""blank"",""time"":1323.1000000014901},{""stimulus"":""https://ziweizhang0304.github.io/Stats_learning_trig/img/Stim/FN_014_g.png"",""time"":1362.300000000745},{""stimulus"":""blank"",""time"":1663.6000000014901},{""stimulus"":""https://ziweizhang0304.github.io/Stats_learning_trig/img/Stim/FN_003_g.png"",""time"":1701.5},{""stimulus"":""blank"",""time"":2002.6000000014901},{""stimulus"":""https://ziweizhang0304.github.io/Stats_learning_trig/img/Stim/FN_024_g.png"",""time"":2042.2000000029802},{""stimulus"":""blank"",""time"":2343.5},{""stimulus"":""https://ziweizhang0304.github.io/Stats_learning_trig/img/Stim/FN_022_g.png"",""time"":2381.7000000029802},{""stimulus"":""blank"",""time"":2683},{""stimulus"":""https://ziweizhang0304.github.io/Stats_learning_trig/img/Stim/FN_016_g.png"",""time"":2722.300000000745},{""stimulus"":""blank"",""time"":3022.5},{""stimulus"":""https://ziweizhang0304.github.io/Stats_learning_trig/img/Stim/FN_010_g.png"",""time"":3062.10000000149},{""stimulus"":""blank"",""time"":3363.7000000029802},{""stimulus"":""https://ziweizhang0304.github.io/Stats_learning_trig/img/Stim/FN_012_g.png"",""time"":3401.800000000745},{""stimulus"":""blank"",""time"":3703.400000002235},{""stimulus"":""https://ziweizhang0304.github.io/Stats_learning_trig/img/Stim/FN_001_g.png"",""time"":3741.2000000029802},{""stimulus"":""blank"",""time"":4042.400000002235},{""stimulus"":""https://ziweizhang0304.github.io/Stats_learning_trig/img/Stim/FN_015_g.png"",""time"":4082.10000000149},{""stimulus"":""blank"",""time"":4383.300000000745}]","[{""key_press"":32,""rt"":2754.89999999851,""stimulus"":""https://ziweizhang0304.github.io/Stats_learning_trig/img/Stim/FN_016_g.png""}]","373.19999999552965","https://ziweizhang0304.github.io/Stats_learning_trig/img/Stim/FN_022_g.png","post_TD","10","2381.7000000029802","2754.89999999851","fast","7","1","60fd6ea5d5e5f804bb6fc4cf","","","","","",""
"","image-keyboard-response","33","143557","0.0-5.0-10.0-0.0","1187.7999999970198","","","https://ziweizhang0304.github.io/Stats_learning_trig/img/Stim/FN_020_g.png","13","","","","","","","","","","","","","","","","","",""
"","animation","34","147978","0.0-5.0-10.0-1.0","","","","","","[{""stimulus"":""https://ziweizhang0304.github.io/Stats_learning_trig/img/Stim/FN_015_g.png"",""time"":341.5999999977648},{""stimulus"":""blank"",""time"":642.7999999970198},{""stimulus"":""https://ziweizhang0304.github.io/Stats_learning_trig/img/Stim/FN_001_g.png"",""time"":682.1999999992549},{""stimulus"":""blank"",""time"":983.2999999970198},{""stimulus"":""https://ziweizhang0304.github.io/Stats_learning_trig/img/Stim/FN_003_g.png"",""time"":1022.2999999970198},{""stimulus"":""blank"",""time"":1322.5999999977648},{""stimulus"":""https://ziweizhang0304.github.io/Stats_learning_trig/img/Stim/FN_024_g.png"",""time"":1362.5999999977648},{""stimulus"":""blank"",""time"":1664},{""stimulus"":""https://ziweizhang0304.github.io/Stats_learning_trig/img/Stim/FN_008_g.png"",""time"":1701.199999999255},{""stimulus"":""blank"",""time"":2002},{""stimulus"":""https://ziweizhang0304.github.io/Stats_learning_trig/img/Stim/FN_019_g.png"",""time"":2041.5},{""stimulus"":""blank"",""time"":2342.699999999255},{""stimulus"":""https://ziweizhang0304.github.io/Stats_learning_trig/img/Stim/FN_020_g.png"",""time"":2382},{""stimulus"":""blank"",""time"":2682.599999997765},{""stimulus"":""https://ziweizhang0304.github.io/Stats_learning_trig/img/Stim/FN_006_g.png"",""time"":2722.099999997765},{""stimulus"":""blank"",""time"":3023.89999999851},{""stimulus"":""https://ziweizhang0304.github.io/Stats_learning_trig/img/Stim/FN_023_g.png"",""time"":3062.199999999255},{""stimulus"":""blank"",""time"":3363.2999999970198},{""stimulus"":""https://ziweizhang0304.github.io/Stats_learning_trig/img/Stim/FN_012_g.png"",""time"":3402.39999999851},{""stimulus"":""blank"",""time"":3703.2999999970198},{""stimulus"":""https://ziweizhang0304.github.io/Stats_learning_trig/img/Stim/FN_013_g.png"",""time"":3741.5},{""stimulus"":""blank"",""time"":4043.2999999970198},{""stimulus"":""https://ziweizhang0304.github.io/Stats_learning_trig/img/Stim/FN_014_g.png"",""time"":4082.2999999970198},{""stimulus"":""blank"",""time"":4383.89999999851}]","[{""key_press"":32,""rt"":2766.199999999255,""stimulus"":""https://ziweizhang0304.github.io/Stats_learning_trig/img/Stim/FN_006_g.png""}]","384.19999999925494","https://ziweizhang0304.github.io/Stats_learning_trig/img/Stim/FN_020_g.png","post_TD","11","2382","2766.199999999255","slow","7","2","60fd6ea5d5e5f804bb6fc4cf","","","","","",""
"","image-keyboard-response","35","150527","0.0-5.0-11.0-0.0","2545.89999999851","","","https://ziweizhang0304.github.io/Stats_learning_trig/img/Stim/FN_010_g.png","13","","","","","","","","","","","","","","","","","",""
"","animation","36","154949","0.0-5.0-11.0-1.0","","","","","","[{""stimulus"":""https://ziweizhang0304.github.io/Stats_learning_trig/img/Stim/FN_001_g.png"",""time"":341.30000000074506},{""stimulus"":""blank"",""time"":641.8000000007451},{""stimulus"":""https://ziweizhang0304.github.io/Stats_learning_trig/img/Stim/FN_024_g.png"",""time"":682.1999999992549},{""stimulus"":""blank"",""time"":982.8000000007451},{""stimulus"":""https://ziweizhang0304.github.io/Stats_learning_trig/img/Stim/FN_012_g.png"",""time"":1022.1999999992549},{""stimulus"":""blank"",""time"":1322.699999999255},{""stimulus"":""https://ziweizhang0304.github.io/Stats_learning_trig/img/Stim/FN_022_g.png"",""time"":1362.1000000014901},{""stimulus"":""blank"",""time"":1662.4000000022352},{""stimulus"":""https://ziweizhang0304.github.io/Stats_learning_trig/img/Stim/FN_016_g.png"",""time"":1701.4000000022352},{""stimulus"":""blank"",""time"":2002.5},{""stimulus"":""https://ziweizhang0304.github.io/Stats_learning_trig/img/Stim/FN_010_g.png"",""time"":2040.6000000014901},{""stimulus"":""blank"",""time"":2342.5},{""stimulus"":""https://ziweizhang0304.github.io/Stats_learning_trig/img/Stim/FN_008_g.png"",""time"":2382.199999999255},{""stimulus"":""blank"",""time"":2683.5},{""stimulus"":""https://ziweizhang0304.github.io/Stats_learning_trig/img/Stim/FN_023_g.png"",""time"":2721.800000000745},{""stimulus"":""blank"",""time"":3022},{""stimulus"":""https://ziweizhang0304.github.io/Stats_learning_trig/img/Stim/FN_013_g.png"",""time"":3061.900000002235},{""stimulus"":""blank"",""time"":3362.699999999255},{""stimulus"":""https://ziweizhang0304.github.io/Stats_learning_trig/img/Stim/FN_003_g.png"",""time"":3402},{""stimulus"":""blank"",""time"":3703},{""stimulus"":""https://ziweizhang0304.github.io/Stats_learning_trig/img/Stim/FN_014_g.png"",""time"":3741.300000000745},{""stimulus"":""blank"",""time"":4042.300000000745},{""stimulus"":""https://ziweizhang0304.github.io/Stats_learning_trig/img/Stim/FN_015_g.png"",""time"":4081.199999999255},{""stimulus"":""blank"",""time"":4382.800000000745}]","[{""key_press"":32,""rt"":2430.599999997765,""stimulus"":""https://ziweizhang0304.github.io/Stats_learning_trig/img/Stim/FN_008_g.png""}]","389.9999999962747","https://ziweizhang0304.github.io/Stats_learning_trig/img/Stim/FN_010_g.png","post_TD","12","2040.6000000014901","2430.599999997765","fast","6","3","60fd6ea5d5e5f804bb6fc4cf","","","","","",""
"","image-keyboard-response","37","156080","0.0-5.0-12.0-0.0","1128.800000000745","","","https://ziweizhang0304.github.io/Stats_learning_trig/img/Stim/FN_019_g.png","13","","","","","","","","","","","","","","","","","",""
"","animation","38","160501","0.0-5.0-12.0-1.0","","","","","","[{""stimulus"":""https://ziweizhang0304.github.io/Stats_learning_trig/img/Stim/FN_015_g.png"",""time"":342.20000000298023},{""stimulus"":""blank"",""time"":643.4000000022352},{""stimulus"":""https://ziweizhang0304.github.io/Stats_learning_trig/img/Stim/FN_003_g.png"",""time"":682},{""stimulus"":""blank"",""time"":983.6000000014901},{""stimulus"":""https://ziweizhang0304.github.io/Stats_learning_trig/img/Stim/FN_014_g.png"",""time"":1020.7000000029802},{""stimulus"":""blank"",""time"":1322.1000000014901},{""stimulus"":""https://ziweizhang0304.github.io/Stats_learning_trig/img/Stim/FN_013_g.png"",""time"":1361.6000000014901},{""stimulus"":""blank"",""time"":1663.1000000014901},{""stimulus"":""https://ziweizhang0304.github.io/Stats_learning_trig/img/Stim/FN_012_g.png"",""time"":1701.9000000022352},{""stimulus"":""blank"",""time"":2004.1000000014901},{""stimulus"":""https://ziweizhang0304.github.io/Stats_learning_trig/img/Stim/FN_008_g.png"",""time"":2042.5},{""stimulus"":""blank"",""time"":2342.900000002235},{""stimulus"":""https://ziweizhang0304.github.io/Stats_learning_trig/img/Stim/FN_019_g.png"",""time"":2381.400000002235},{""stimulus"":""blank"",""time"":2682.300000000745},{""stimulus"":""https://ziweizhang0304.github.io/Stats_learning_trig/img/Stim/FN_020_g.png"",""time"":2722},{""stimulus"":""blank"",""time"":3024.10000000149},{""stimulus"":""https://ziweizhang0304.github.io/Stats_learning_trig/img/Stim/FN_006_g.png"",""time"":3062.400000002235},{""stimulus"":""blank"",""time"":3363},{""stimulus"":""https://ziweizhang0304.github.io/Stats_learning_trig/img/Stim/FN_023_g.png"",""time"":3402.400000002235},{""stimulus"":""blank"",""time"":3703.400000002235},{""stimulus"":""https://ziweizhang0304.github.io/Stats_learning_trig/img/Stim/FN_001_g.png"",""time"":3742.10000000149},{""stimulus"":""blank"",""time"":4043},{""stimulus"":""https://ziweizhang0304.github.io/Stats_learning_trig/img/Stim/FN_024_g.png"",""time"":4082.300000000745},{""stimulus"":""blank"",""time"":4383}]","[{""key_press"":32,""rt"":2737,""stimulus"":""https://ziweizhang0304.github.io/Stats_learning_trig/img/Stim/FN_020_g.png""}]","355.5999999977648","https://ziweizhang0304.github.io/Stats_learning_trig/img/Stim/FN_019_g.png","post_TD","13","2381.400000002235","2737","slow","7","1","60fd6ea5d5e5f804bb6fc4cf","","","","","",""
"","image-keyboard-response","39","161382","0.0-5.0-13.0-0.0","876.7999999970198","","","https://ziweizhang0304.github.io/Stats_learning_trig/img/Stim/FN_006_g.png","13","","","","","","","","","","","","","","","","","",""
"","animation","40","165803","0.0-5.0-13.0-1.0","","","","","","[{""stimulus"":""https://ziweizhang0304.github.io/Stats_learning_trig/img/Stim/FN_003_g.png"",""time"":342.0999999977648},{""stimulus"":""blank"",""time"":644.1999999992549},{""stimulus"":""https://ziweizhang0304.github.io/Stats_learning_trig/img/Stim/FN_014_g.png"",""time"":681.1999999992549},{""stimulus"":""blank"",""time"":981.3999999985099},{""stimulus"":""https://ziweizhang0304.github.io/Stats_learning_trig/img/Stim/FN_023_g.png"",""time"":1022.0999999977648},{""stimulus"":""blank"",""time"":1323.5},{""stimulus"":""https://ziweizhang0304.github.io/Stats_learning_trig/img/Stim/FN_019_g.png"",""time"":1362.5},{""stimulus"":""blank"",""time"":1663.3999999985099},{""stimulus"":""https://ziweizhang0304.github.io/Stats_learning_trig/img/Stim/FN_020_g.png"",""time"":1701.800000000745},{""stimulus"":""blank"",""time"":2003.0999999977648},{""stimulus"":""https://ziweizhang0304.github.io/Stats_learning_trig/img/Stim/FN_006_g.png"",""time"":2041},{""stimulus"":""blank"",""time"":2342.199999999255},{""stimulus"":""https://ziweizhang0304.github.io/Stats_learning_trig/img/Stim/FN_008_g.png"",""time"":2382.300000000745},{""stimulus"":""blank"",""time"":2682.599999997765},{""stimulus"":""https://ziweizhang0304.github.io/Stats_learning_trig/img/Stim/FN_012_g.png"",""time"":2721.599999997765},{""stimulus"":""blank"",""time"":3022},{""stimulus"":""https://ziweizhang0304.github.io/Stats_learning_trig/img/Stim/FN_013_g.png"",""time"":3061.800000000745},{""stimulus"":""blank"",""time"":3362.5},{""stimulus"":""https://ziweizhang0304.github.io/Stats_learning_trig/img/Stim/FN_001_g.png"",""time"":3401.699999999255},{""stimulus"":""blank"",""time"":3702.39999999851},{""stimulus"":""https://ziweizhang0304.github.io/Stats_learning_trig/img/Stim/FN_015_g.png"",""time"":3742.199999999255},{""stimulus"":""blank"",""time"":4042.5},{""stimulus"":""https://ziweizhang0304.github.io/Stats_learning_trig/img/Stim/FN_024_g.png"",""time"":4081.699999999255},{""stimulus"":""blank"",""time"":4382.599999997765}]","[{""key_press"":32,""rt"":2408.300000000745,""stimulus"":""https://ziweizhang0304.github.io/Stats_learning_trig/img/Stim/FN_008_g.png""}]","367.30000000074506","https://ziweizhang0304.github.io/Stats_learning_trig/img/Stim/FN_006_g.png","post_TD","14","2041","2408.300000000745","slow","6","3","60fd6ea5d5e5f804bb6fc4cf","","","","","",""
"","image-keyboard-response","41","167074","0.0-5.0-14.0-0.0","1269","","","https://ziweizhang0304.github.io/Stats_learning_trig/img/Stim/FN_019_g.png","13","","","","","","","","","","","","","","","","","",""
"","animation","42","171497","0.0-5.0-14.0-1.0","","","","","","[{""stimulus"":""https://ziweizhang0304.github.io/Stats_learning_trig/img/Stim/FN_024_g.png"",""time"":341.6000000014901},{""stimulus"":""blank"",""time"":642.4000000022352},{""stimulus"":""https://ziweizhang0304.github.io/Stats_learning_trig/img/Stim/FN_015_g.png"",""time"":682.2000000029802},{""stimulus"":""blank"",""time"":983.5},{""stimulus"":""https://ziweizhang0304.github.io/Stats_learning_trig/img/Stim/FN_008_g.png"",""time"":1022.4000000022352},{""stimulus"":""blank"",""time"":1323.6000000014901},{""stimulus"":""https://ziweizhang0304.github.io/Stats_learning_trig/img/Stim/FN_001_g.png"",""time"":1362.5},{""stimulus"":""blank"",""time"":1663.800000000745},{""stimulus"":""https://ziweizhang0304.github.io/Stats_learning_trig/img/Stim/FN_019_g.png"",""time"":1702.1000000014901},{""stimulus"":""blank"",""time"":2003.2000000029802},{""stimulus"":""https://ziweizhang0304.github.io/Stats_learning_trig/img/Stim/FN_020_g.png"",""time"":2042.300000000745},{""stimulus"":""blank"",""time"":2343.7000000029802},{""stimulus"":""https://ziweizhang0304.github.io/Stats_learning_trig/img/Stim/FN_006_g.png"",""time"":2382.60000000149},{""stimulus"":""blank"",""time"":2683.60000000149},{""stimulus"":""https://ziweizhang0304.github.io/Stats_learning_trig/img/Stim/FN_023_g.png"",""time"":2722.60000000149},{""stimulus"":""blank"",""time"":3024},{""stimulus"":""https://ziweizhang0304.github.io/Stats_learning_trig/img/Stim/FN_012_g.png"",""time"":3062},{""stimulus"":""blank"",""time"":3363.400000002235},{""stimulus"":""https://ziweizhang0304.github.io/Stats_learning_trig/img/Stim/FN_013_g.png"",""time"":3401},{""stimulus"":""blank"",""time"":3702.7000000029802},{""stimulus"":""https://ziweizhang0304.github.io/Stats_learning_trig/img/Stim/FN_003_g.png"",""time"":3741.400000002235},{""stimulus"":""blank"",""time"":4042.60000000149},{""stimulus"":""https://ziweizhang0304.github.io/Stats_learning_trig/img/Stim/FN_014_g.png"",""time"":4082.400000002235},{""stimulus"":""blank"",""time"":4383.300000000745}]","[{""key_press"":32,""rt"":2097.60000000149,""stimulus"":""https://ziweizhang0304.github.io/Stats_learning_trig/img/Stim/FN_020_g.png""}]","395.5","https://ziweizhang0304.github.io/Stats_learning_trig/img/Stim/FN_019_g.png","post_TD","15","1702.1000000014901","2097.60000000149","slow","5","1","60fd6ea5d5e5f804bb6fc4cf","","","","","",""
"","image-keyboard-response","43","172357","0.0-5.0-15.0-0.0","856.1000000014901","","","https://ziweizhang0304.github.io/Stats_learning_trig/img/Stim/FN_022_g.png","13","","","","","","","","","","","","","","","","","",""
"","animation","44","176778","0.0-5.0-15.0-1.0","","","","","","[{""stimulus"":""https://ziweizhang0304.github.io/Stats_learning_trig/img/Stim/FN_001_g.png"",""time"":342},{""stimulus"":""blank"",""time"":642.6999999992549},{""stimulus"":""https://ziweizhang0304.github.io/Stats_learning_trig/img/Stim/FN_013_g.png"",""time"":681.1999999992549},{""stimulus"":""blank"",""time"":982.7999999970198},{""stimulus"":""https://ziweizhang0304.github.io/Stats_learning_trig/img/Stim/FN_003_g.png"",""time"":1022.2999999970198},{""stimulus"":""blank"",""time"":1323.2999999970198},{""stimulus"":""https://ziweizhang0304.github.io/Stats_learning_trig/img/Stim/FN_023_g.png"",""time"":1361.5},{""stimulus"":""blank"",""time"":1662.5999999977648},{""stimulus"":""https://ziweizhang0304.github.io/Stats_learning_trig/img/Stim/FN_012_g.png"",""time"":1701.2999999970198},{""stimulus"":""blank"",""time"":2002.5},{""stimulus"":""https://ziweizhang0304.github.io/Stats_learning_trig/img/Stim/FN_022_g.png"",""time"":2041},{""stimulus"":""blank"",""time"":2341.7999999970198},{""stimulus"":""https://ziweizhang0304.github.io/Stats_learning_trig/img/Stim/FN_016_g.png"",""time"":2382.099999997765},{""stimulus"":""blank"",""time"":2683},{""stimulus"":""https://ziweizhang0304.github.io/Stats_learning_trig/img/Stim/FN_010_g.png"",""time"":2721.5},{""stimulus"":""blank"",""time"":3022.39999999851},{""stimulus"":""https://ziweizhang0304.github.io/Stats_learning_trig/img/Stim/FN_008_g.png"",""time"":3062.599999997765},{""stimulus"":""blank"",""time"":3363.199999999255},{""stimulus"":""https://ziweizhang0304.github.io/Stats_learning_trig/img/Stim/FN_014_g.png"",""time"":3401.699999999255},{""stimulus"":""blank"",""time"":3702.7999999970198},{""stimulus"":""https://ziweizhang0304.github.io/Stats_learning_trig/img/Stim/FN_015_g.png"",""time"":3742},{""stimulus"":""blank"",""time"":4043},{""stimulus"":""https://ziweizhang0304.github.io/Stats_learning_trig/img/Stim/FN_024_g.png"",""time"":4081.89999999851},{""stimulus"":""blank"",""time"":4383.599999997765}]","[{""key_press"":32,""rt"":2422.199999999255,""stimulus"":""https://ziweizhang0304.github.io/Stats_learning_trig/img/Stim/FN_016_g.png""}]","381.19999999925494","https://ziweizhang0304.github.io/Stats_learning_trig/img/Stim/FN_022_g.png","post_TD","16","2041","2422.199999999255","fast","6","1","60fd6ea5d5e5f804bb6fc4cf","","","","","",""
"","image-keyboard-response","45","178471","0.0-5.0-16.0-0.0","1688.300000000745","","","https://ziweizhang0304.github.io/Stats_learning_trig/img/Stim/FN_010_g.png","13","","","","","","","","","","","","","","","","","",""
"","animation","46","182892","0.0-5.0-16.0-1.0","","","","","","[{""stimulus"":""https://ziweizhang0304.github.io/Stats_learning_trig/img/Stim/FN_001_g.png"",""time"":342.69999999925494},{""stimulus"":""blank"",""time"":643.8999999985099},{""stimulus"":""https://ziweizhang0304.github.io/Stats_learning_trig/img/Stim/FN_013_g.png"",""time"":682.3999999985099},{""stimulus"":""blank"",""time"":983.3999999985099},{""stimulus"":""https://ziweizhang0304.github.io/Stats_learning_trig/img/Stim/FN_003_g.png"",""time"":1022.3999999985099},{""stimulus"":""blank"",""time"":1323.3999999985099},{""stimulus"":""https://ziweizhang0304.github.io/Stats_learning_trig/img/Stim/FN_023_g.png"",""time"":1361.8999999985099},{""stimulus"":""blank"",""time"":1662.5999999977648},{""stimulus"":""https://ziweizhang0304.github.io/Stats_learning_trig/img/Stim/FN_012_g.png"",""time"":1702.5},{""stimulus"":""blank"",""time"":2003.5},{""stimulus"":""https://ziweizhang0304.github.io/Stats_learning_trig/img/Stim/FN_022_g.png"",""time"":2042.300000000745},{""stimulus"":""blank"",""time"":2343.300000000745},{""stimulus"":""https://ziweizhang0304.github.io/Stats_learning_trig/img/Stim/FN_016_g.png"",""time"":2382.199999999255},{""stimulus"":""blank"",""time"":2682.5},{""stimulus"":""https://ziweizhang0304.github.io/Stats_learning_trig/img/Stim/FN_010_g.png"",""time"":2721.199999999255},{""stimulus"":""blank"",""time"":3023},{""stimulus"":""https://ziweizhang0304.github.io/Stats_learning_trig/img/Stim/FN_008_g.png"",""time"":3061.199999999255},{""stimulus"":""blank"",""time"":3362.39999999851},{""stimulus"":""https://ziweizhang0304.github.io/Stats_learning_trig/img/Stim/FN_014_g.png"",""time"":3401.599999997765},{""stimulus"":""blank"",""time"":3702.89999999851},{""stimulus"":""https://ziweizhang0304.github.io/Stats_learning_trig/img/Stim/FN_015_g.png"",""time"":3742.099999997765},{""stimulus"":""blank"",""time"":4042.800000000745},{""stimulus"":""https://ziweizhang0304.github.io/Stats_learning_trig/img/Stim/FN_024_g.png"",""time"":4082.099999997765},{""stimulus"":""blank"",""time"":4382.800000000745}]","[{""key_press"":32,""rt"":3042.400000002235,""stimulus"":""blank""}]","321.20000000298023","https://ziweizhang0304.github.io/Stats_learning_trig/img/Stim/FN_010_g.png","post_TD","17","2721.199999999255","3042.400000002235","fast","8","3","60fd6ea5d5e5f804bb6fc4cf","","","","","",""
"","image-keyboard-response","47","183806","0.0-5.0-17.0-0.0","910.5","","","https://ziweizhang0304.github.io/Stats_learning_trig/img/Stim/FN_020_g.png","13","","","","","","","","","","","","","","","","","",""
"","animation","48","188229","0.0-5.0-17.0-1.0","","","","","","[{""stimulus"":""https://ziweizhang0304.github.io/Stats_learning_trig/img/Stim/FN_024_g.png"",""time"":342.30000000074506},{""stimulus"":""blank"",""time"":642.8000000007451},{""stimulus"":""https://ziweizhang0304.github.io/Stats_learning_trig/img/Stim/FN_015_g.png"",""time"":681.9000000022352},{""stimulus"":""blank"",""time"":983.3000000007451},{""stimulus"":""https://ziweizhang0304.github.io/Stats_learning_trig/img/Stim/FN_008_g.png"",""time"":1021.9000000022352},{""stimulus"":""blank"",""time"":1323.6000000014901},{""stimulus"":""https://ziweizhang0304.github.io/Stats_learning_trig/img/Stim/FN_001_g.png"",""time"":1362.5},{""stimulus"":""blank"",""time"":1662.9000000022352},{""stimulus"":""https://ziweizhang0304.github.io/Stats_learning_trig/img/Stim/FN_019_g.png"",""time"":1702.300000000745},{""stimulus"":""blank"",""time"":2002.9000000022352},{""stimulus"":""https://ziweizhang0304.github.io/Stats_learning_trig/img/Stim/FN_020_g.png"",""time"":2042.2000000029802},{""stimulus"":""blank"",""time"":2343.60000000149},{""stimulus"":""https://ziweizhang0304.github.io/Stats_learning_trig/img/Stim/FN_006_g.png"",""time"":2381.800000000745},{""stimulus"":""blank"",""time"":2682.300000000745},{""stimulus"":""https://ziweizhang0304.github.io/Stats_learning_trig/img/Stim/FN_023_g.png"",""time"":2721.60000000149},{""stimulus"":""blank"",""time"":3022.900000002235},{""stimulus"":""https://ziweizhang0304.github.io/Stats_learning_trig/img/Stim/FN_012_g.png"",""time"":3061.60000000149},{""stimulus"":""blank"",""time"":3362.2000000029802},{""stimulus"":""https://ziweizhang0304.github.io/Stats_learning_trig/img/Stim/FN_013_g.png"",""time"":3402.5},{""stimulus"":""blank"",""time"":3703.5},{""stimulus"":""https://ziweizhang0304.github.io/Stats_learning_trig/img/Stim/FN_003_g.png"",""time"":3742.2000000029802},{""stimulus"":""blank"",""time"":4043.300000000745},{""stimulus"":""https://ziweizhang0304.github.io/Stats_learning_trig/img/Stim/FN_014_g.png"",""time"":4081.900000002235},{""stimulus"":""blank"",""time"":4382.800000000745}]","[{""key_press"":32,""rt"":2404,""stimulus"":""https://ziweizhang0304.github.io/Stats_learning_trig/img/Stim/FN_006_g.png""}]","361.79999999701977","https://ziweizhang0304.github.io/Stats_learning_trig/img/Stim/FN_020_g.png","post_TD","18","2042.2000000029802","2404","slow","6","2","60fd6ea5d5e5f804bb6fc4cf","","","","","",""
"","image-keyboard-response","49","189014","0.0-5.0-18.0-0.0","782.5","","","https://ziweizhang0304.github.io/Stats_learning_trig/img/Stim/FN_019_g.png","13","","","","","","","","","","","","","","","","","",""
"","animation","50","193437","0.0-5.0-18.0-1.0","","","","","","[{""stimulus"":""https://ziweizhang0304.github.io/Stats_learning_trig/img/Stim/FN_015_g.png"",""time"":342.5},{""stimulus"":""blank"",""time"":643.8000000007451},{""stimulus"":""https://ziweizhang0304.github.io/Stats_learning_trig/img/Stim/FN_001_g.png"",""time"":681.1000000014901},{""stimulus"":""blank"",""time"":981.3000000007451},{""stimulus"":""https://ziweizhang0304.github.io/Stats_learning_trig/img/Stim/FN_003_g.png"",""time"":1021.8000000007451},{""stimulus"":""blank"",""time"":1323.1000000014901},{""stimulus"":""https://ziweizhang0304.github.io/Stats_learning_trig/img/Stim/FN_024_g.png"",""time"":1362.1000000014901},{""stimulus"":""blank"",""time"":1663.1000000014901},{""stimulus"":""https://ziweizhang0304.github.io/Stats_learning_trig/img/Stim/FN_008_g.png"",""time"":1702.5},{""stimulus"":""blank"",""time"":2003.4000000022352},{""stimulus"":""https://ziweizhang0304.github.io/Stats_learning_trig/img/Stim/FN_019_g.png"",""time"":2042},{""stimulus"":""blank"",""time"":2342.7000000029802},{""stimulus"":""https://ziweizhang0304.github.io/Stats_learning_trig/img/Stim/FN_020_g.png"",""time"":2382.60000000149},{""stimulus"":""blank"",""time"":2684},{""stimulus"":""https://ziweizhang0304.github.io/Stats_learning_trig/img/Stim/FN_006_g.png"",""time"":2722.300000000745},{""stimulus"":""blank"",""time"":3023},{""stimulus"":""https://ziweizhang0304.github.io/Stats_learning_trig/img/Stim/FN_023_g.png"",""time"":3061.60000000149},{""stimulus"":""blank"",""time"":3363.400000002235},{""stimulus"":""https://ziweizhang0304.github.io/Stats_learning_trig/img/Stim/FN_012_g.png"",""time"":3401.800000000745},{""stimulus"":""blank"",""time"":3703.2000000029802},{""stimulus"":""https://ziweizhang0304.github.io/Stats_learning_trig/img/Stim/FN_013_g.png"",""time"":3742},{""stimulus"":""blank"",""time"":4043.2000000029802},{""stimulus"":""https://ziweizhang0304.github.io/Stats_learning_trig/img/Stim/FN_014_g.png"",""time"":4081.7000000029802},{""stimulus"":""blank"",""time"":4383.20000000298}]","[{""key_press"":32,""rt"":2404.800000000745,""stimulus"":""https://ziweizhang0304.github.io/Stats_learning_trig/img/Stim/FN_020_g.png""}]","362.80000000074506","https://ziweizhang0304.github.io/Stats_learning_trig/img/Stim/FN_019_g.png","post_TD","19","2042","2404.800000000745","slow","6","1","60fd6ea5d5e5f804bb6fc4cf","","","","","",""
"","image-keyboard-response","51","195058","0.0-5.0-19.0-0.0","1617.7000000029802","","","https://ziweizhang0304.github.io/Stats_learning_trig/img/Stim/FN_016_g.png","13","","","","","","","","","","","","","","","","","",""
"","animation","52","199479","0.0-5.0-19.0-1.0","","","","","","[{""stimulus"":""https://ziweizhang0304.github.io/Stats_learning_trig/img/Stim/FN_001_g.png"",""time"":342.20000000298023},{""stimulus"":""blank"",""time"":643.9000000022352},{""stimulus"":""https://ziweizhang0304.github.io/Stats_learning_trig/img/Stim/FN_013_g.png"",""time"":681.9000000022352},{""stimulus"":""blank"",""time"":983.1000000014901},{""stimulus"":""https://ziweizhang0304.github.io/Stats_learning_trig/img/Stim/FN_003_g.png"",""time"":1021.8000000007451},{""stimulus"":""blank"",""time"":1323.1000000014901},{""stimulus"":""https://ziweizhang0304.github.io/Stats_learning_trig/img/Stim/FN_023_g.png"",""time"":1362.2000000029802},{""stimulus"":""blank"",""time"":1663.7000000029802},{""stimulus"":""https://ziweizhang0304.github.io/Stats_learning_trig/img/Stim/FN_012_g.png"",""time"":1701},{""stimulus"":""blank"",""time"":2002.9000000022352},{""stimulus"":""https://ziweizhang0304.github.io/Stats_learning_trig/img/Stim/FN_022_g.png"",""time"":2042.1000000014901},{""stimulus"":""blank"",""time"":2343.900000002235},{""stimulus"":""https://ziweizhang0304.github.io/Stats_learning_trig/img/Stim/FN_016_g.png"",""time"":2381.10000000149},{""stimulus"":""blank"",""time"":2682},{""stimulus"":""https://ziweizhang0304.github.io/Stats_learning_trig/img/Stim/FN_010_g.png"",""time"":2721.900000002235},{""stimulus"":""blank"",""time"":3023.400000002235},{""stimulus"":""https://ziweizhang0304.github.io/Stats_learning_trig/img/Stim/FN_008_g.png"",""time"":3061.800000000745},{""stimulus"":""blank"",""time"":3363.5},{""stimulus"":""https://ziweizhang0304.github.io/Stats_learning_trig/img/Stim/FN_014_g.png"",""time"":3402.10000000149},{""stimulus"":""blank"",""time"":3703.5},{""stimulus"":""https://ziweizhang0304.github.io/Stats_learning_trig/img/Stim/FN_015_g.png"",""time"":3742.5},{""stimulus"":""blank"",""time"":4043.7000000029802},{""stimulus"":""https://ziweizhang0304.github.io/Stats_learning_trig/img/Stim/FN_024_g.png"",""time"":4082.10000000149},{""stimulus"":""blank"",""time"":4382.60000000149}]","[{""key_press"":32,""rt"":2751.39999999851,""stimulus"":""https://ziweizhang0304.github.io/Stats_learning_trig/img/Stim/FN_010_g.png""}]","370.29999999701977","https://ziweizhang0304.github.io/Stats_learning_trig/img/Stim/FN_016_g.png","post_TD","20","2381.10000000149","2751.39999999851","fast","7","2","60fd6ea5d5e5f804bb6fc4cf","","","","","",""
"","image-keyboard-response","53","200247","0.0-5.0-20.0-0.0","764.1999999992549","","","https://ziweizhang0304.github.io/Stats_learning_trig/img/Stim/FN_022_g.png","13","","","","","","","","","","","","","","","","","",""
"","animation","54","204668","0.0-5.0-20.0-1.0","","","","","","[{""stimulus"":""https://ziweizhang0304.github.io/Stats_learning_trig/img/Stim/FN_003_g.png"",""time"":342.5999999977648},{""stimulus"":""blank"",""time"":643.6999999992549},{""stimulus"":""https://ziweizhang0304.github.io/Stats_learning_trig/img/Stim/FN_013_g.png"",""time"":681.6999999992549},{""stimulus"":""blank"",""time"":982.5999999977648},{""stimulus"":""https://ziweizhang0304.github.io/Stats_learning_trig/img/Stim/FN_001_g.png"",""time"":1021.7999999970198},{""stimulus"":""blank"",""time"":1323},{""stimulus"":""https://ziweizhang0304.github.io/Stats_learning_trig/img/Stim/FN_008_g.png"",""time"":1361.5999999977648},{""stimulus"":""blank"",""time"":1663.5},{""stimulus"":""https://ziweizhang0304.github.io/Stats_learning_trig/img/Stim/FN_022_g.png"",""time"":1700.699999999255},{""stimulus"":""blank"",""time"":2001.7999999970198},{""stimulus"":""https://ziweizhang0304.github.io/Stats_learning_trig/img/Stim/FN_016_g.png"",""time"":2041.7999999970198},{""stimulus"":""blank"",""time"":2342.199999999255},{""stimulus"":""https://ziweizhang0304.github.io/Stats_learning_trig/img/Stim/FN_010_g.png"",""time"":2382.199999999255},{""stimulus"":""blank"",""time"":2682.599999997765},{""stimulus"":""https://ziweizhang0304.github.io/Stats_learning_trig/img/Stim/FN_023_g.png"",""time"":2721.699999999255},{""stimulus"":""blank"",""time"":3022.099999997765},{""stimulus"":""https://ziweizhang0304.github.io/Stats_learning_trig/img/Stim/FN_012_g.png"",""time"":3062},{""stimulus"":""blank"",""time"":3363.599999997765},{""stimulus"":""https://ziweizhang0304.github.io/Stats_learning_trig/img/Stim/FN_014_g.png"",""time"":3402.39999999851},{""stimulus"":""blank"",""time"":3703.099999997765},{""stimulus"":""https://ziweizhang0304.github.io/Stats_learning_trig/img/Stim/FN_015_g.png"",""time"":3741.699999999255},{""stimulus"":""blank"",""time"":4042.89999999851},{""stimulus"":""https://ziweizhang0304.github.io/Stats_learning_trig/img/Stim/FN_024_g.png"",""time"":4082.099999997765},{""stimulus"":""blank"",""time"":4382.89999999851}]","[{""key_press"":32,""rt"":2054.5,""stimulus"":""https://ziweizhang0304.github.io/Stats_learning_trig/img/Stim/FN_016_g.png""}]","353.80000000074506","https://ziweizhang0304.github.io/Stats_learning_trig/img/Stim/FN_022_g.png","post_TD","21","1700.699999999255","2054.5","fast","5","1","60fd6ea5d5e5f804bb6fc4cf","","","","","",""
"","image-keyboard-response","55","205905","0.0-5.0-21.0-0.0","1233.0999999977648","","","https://ziweizhang0304.github.io/Stats_learning_trig/img/Stim/FN_016_g.png","13","","","","","","","","","","","","","","","","","",""
"","animation","56","210326","0.0-5.0-21.0-1.0","","","","","","[{""stimulus"":""https://ziweizhang0304.github.io/Stats_learning_trig/img/Stim/FN_001_g.png"",""time"":341.5},{""stimulus"":""blank"",""time"":642.6999999992549},{""stimulus"":""https://ziweizhang0304.github.io/Stats_learning_trig/img/Stim/FN_024_g.png"",""time"":681.6000000014901},{""stimulus"":""blank"",""time"":982.8999999985099},{""stimulus"":""https://ziweizhang0304.github.io/Stats_learning_trig/img/Stim/FN_012_g.png"",""time"":1020.8999999985099},{""stimulus"":""blank"",""time"":1322.6000000014901},{""stimulus"":""https://ziweizhang0304.github.io/Stats_learning_trig/img/Stim/FN_022_g.png"",""time"":1361.3999999985099},{""stimulus"":""blank"",""time"":1663.3999999985099},{""stimulus"":""https://ziweizhang0304.github.io/Stats_learning_trig/img/Stim/FN_016_g.png"",""time"":1701.699999999255},{""stimulus"":""blank"",""time"":2002.8999999985099},{""stimulus"":""https://ziweizhang0304.github.io/Stats_learning_trig/img/Stim/FN_010_g.png"",""time"":2040.8999999985099},{""stimulus"":""blank"",""time"":2342.300000000745},{""stimulus"":""https://ziweizhang0304.github.io/Stats_learning_trig/img/Stim/FN_008_g.png"",""time"":2381.60000000149},{""stimulus"":""blank"",""time"":2683.10000000149},{""stimulus"":""https://ziweizhang0304.github.io/Stats_learning_trig/img/Stim/FN_023_g.png"",""time"":2722.10000000149},{""stimulus"":""blank"",""time"":3023.60000000149},{""stimulus"":""https://ziweizhang0304.github.io/Stats_learning_trig/img/Stim/FN_013_g.png"",""time"":3061.800000000745},{""stimulus"":""blank"",""time"":3362.89999999851},{""stimulus"":""https://ziweizhang0304.github.io/Stats_learning_trig/img/Stim/FN_003_g.png"",""time"":3402.10000000149},{""stimulus"":""blank"",""time"":3704.10000000149},{""stimulus"":""https://ziweizhang0304.github.io/Stats_learning_trig/img/Stim/FN_014_g.png"",""time"":3740.800000000745},{""stimulus"":""blank"",""time"":4042.5},{""stimulus"":""https://ziweizhang0304.github.io/Stats_learning_trig/img/Stim/FN_015_g.png"",""time"":4081.699999999255},{""stimulus"":""blank"",""time"":4383.10000000149}]","[{""key_press"":32,""rt"":2068.599999997765,""stimulus"":""https://ziweizhang0304.github.io/Stats_learning_trig/img/Stim/FN_010_g.png""}]","366.8999999985099","https://ziweizhang0304.github.io/Stats_learning_trig/img/Stim/FN_016_g.png","post_TD","22","1701.699999999255","2068.599999997765","fast","5","2","60fd6ea5d5e5f804bb6fc4cf","","","","","",""
"","image-keyboard-response","57","211064","0.0-5.0-22.0-0.0","735.5","","","https://ziweizhang0304.github.io/Stats_learning_trig/img/Stim/FN_016_g.png","13","","","","","","","","","","","","","","","","","",""
"","animation","58","215486","0.0-5.0-22.0-1.0","","","","","","[{""stimulus"":""https://ziweizhang0304.github.io/Stats_learning_trig/img/Stim/FN_003_g.png"",""time"":342.5},{""stimulus"":""blank"",""time"":643.0999999977648},{""stimulus"":""https://ziweizhang0304.github.io/Stats_learning_trig/img/Stim/FN_013_g.png"",""time"":681.5999999977648},{""stimulus"":""blank"",""time"":983.3999999985099},{""stimulus"":""https://ziweizhang0304.github.io/Stats_learning_trig/img/Stim/FN_001_g.png"",""time"":1022},{""stimulus"":""blank"",""time"":1322.5},{""stimulus"":""https://ziweizhang0304.github.io/Stats_learning_trig/img/Stim/FN_008_g.png"",""time"":1361.7999999970198},{""stimulus"":""blank"",""time"":1662.7999999970198},{""stimulus"":""https://ziweizhang0304.github.io/Stats_learning_trig/img/Stim/FN_022_g.png"",""time"":1702.2999999970198},{""stimulus"":""blank"",""time"":2002.7999999970198},{""stimulus"":""https://ziweizhang0304.github.io/Stats_learning_trig/img/Stim/FN_016_g.png"",""time"":2040.8999999985099},{""stimulus"":""blank"",""time"":2342.099999997765},{""stimulus"":""https://ziweizhang0304.github.io/Stats_learning_trig/img/Stim/FN_010_g.png"",""time"":2382},{""stimulus"":""blank"",""time"":2683.39999999851},{""stimulus"":""https://ziweizhang0304.github.io/Stats_learning_trig/img/Stim/FN_023_g.png"",""time"":2721.7999999970198},{""stimulus"":""blank"",""time"":3023.199999999255},{""stimulus"":""https://ziweizhang0304.github.io/Stats_learning_trig/img/Stim/FN_012_g.png"",""time"":3061.5},{""stimulus"":""blank"",""time"":3362.599999997765},{""stimulus"":""https://ziweizhang0304.github.io/Stats_learning_trig/img/Stim/FN_014_g.png"",""time"":3402.39999999851},{""stimulus"":""blank"",""time"":3703.7999999970198},{""stimulus"":""https://ziweizhang0304.github.io/Stats_learning_trig/img/Stim/FN_015_g.png"",""time"":3741.89999999851},{""stimulus"":""blank"",""time"":4043.5},{""stimulus"":""https://ziweizhang0304.github.io/Stats_learning_trig/img/Stim/FN_024_g.png"",""time"":4081.7999999970198},{""stimulus"":""blank"",""time"":4383.199999999255}]","[{""key_press"":32,""rt"":2369.900000002235,""stimulus"":""blank""}]","329.0000000037253","https://ziweizhang0304.github.io/Stats_learning_trig/img/Stim/FN_016_g.png","post_TD","23","2040.8999999985099","2369.900000002235","fast","6","2","60fd6ea5d5e5f804bb6fc4cf","","","","","",""
"","image-keyboard-response","59","216171","0.0-5.0-23.0-0.0","683.1000000014901","","","https://ziweizhang0304.github.io/Stats_learning_trig/img/Stim/FN_016_g.png","13","","","","","","","","","","","","","","","","","",""
"","animation","60","220594","0.0-5.0-23.0-1.0","","","","","","[{""stimulus"":""https://ziweizhang0304.github.io/Stats_learning_trig/img/Stim/FN_013_g.png"",""time"":342.6000000014901},{""stimulus"":""blank"",""time"":644.2000000029802},{""stimulus"":""https://ziweizhang0304.github.io/Stats_learning_trig/img/Stim/FN_023_g.png"",""time"":681.5},{""stimulus"":""blank"",""time"":981.8000000007451},{""stimulus"":""https://ziweizhang0304.github.io/Stats_learning_trig/img/Stim/FN_008_g.png"",""time"":1022.1000000014901},{""stimulus"":""blank"",""time"":1322.9000000022352},{""stimulus"":""https://ziweizhang0304.github.io/Stats_learning_trig/img/Stim/FN_014_g.png"",""time"":1361.6000000014901},{""stimulus"":""blank"",""time"":1663},{""stimulus"":""https://ziweizhang0304.github.io/Stats_learning_trig/img/Stim/FN_003_g.png"",""time"":1701.9000000022352},{""stimulus"":""blank"",""time"":2002.7000000029802},{""stimulus"":""https://ziweizhang0304.github.io/Stats_learning_trig/img/Stim/FN_024_g.png"",""time"":2041.9000000022352},{""stimulus"":""blank"",""time"":2343.300000000745},{""stimulus"":""https://ziweizhang0304.github.io/Stats_learning_trig/img/Stim/FN_022_g.png"",""time"":2381.7000000029802},{""stimulus"":""blank"",""time"":2683.400000002235},{""stimulus"":""https://ziweizhang0304.github.io/Stats_learning_trig/img/Stim/FN_016_g.png"",""time"":2721.7000000029802},{""stimulus"":""blank"",""time"":3023.10000000149},{""stimulus"":""https://ziweizhang0304.github.io/Stats_learning_trig/img/Stim/FN_010_g.png"",""time"":3061.60000000149},{""stimulus"":""blank"",""time"":3362.800000000745},{""stimulus"":""https://ziweizhang0304.github.io/Stats_learning_trig/img/Stim/FN_012_g.png"",""time"":3402},{""stimulus"":""blank"",""time"":3702.60000000149},{""stimulus"":""https://ziweizhang0304.github.io/Stats_learning_trig/img/Stim/FN_001_g.png"",""time"":3741.900000002235},{""stimulus"":""blank"",""time"":4043.900000002235},{""stimulus"":""https://ziweizhang0304.github.io/Stats_learning_trig/img/Stim/FN_015_g.png"",""time"":4082.10000000149},{""stimulus"":""blank"",""time"":4384}]","[{""key_press"":32,""rt"":3062.300000000745,""stimulus"":""https://ziweizhang0304.github.io/Stats_learning_trig/img/Stim/FN_010_g.png""}]","340.5999999977648","https://ziweizhang0304.github.io/Stats_learning_trig/img/Stim/FN_016_g.png","post_TD","24","2721.7000000029802","3062.300000000745","fast","8","2","60fd6ea5d5e5f804bb6fc4cf","e0583","","","","",""
"","survey-text","61","233970","0.0-6.0","13365","","","","","","","","","","","","","","","","","","{""Q0"":""no. just when i saw the shape i pressed the spacebar""}","","","",""
"","survey-text","62","249638","0.0-7.0","15664","","","","","","","","","","","","","","","","","","{""[object Object]"":""not really. maybe there was a pattern""}","","","",""
"","instructions","63","284519","0.0-8.0","34880.199999999255","","[{""page_index"":0,""viewing_time"":34879.79999999702}]","","","","","","","","","","","","","","","","","","","",""
"","free-sort","64","319561","0.0-9.0","35040.300000000745","","","","","","","","","post_drag","","","","fast","","","","","","[{""src"":""https://ziweizhang0304.github.io/Stats_learning_trig/img/Stim/FN_010_g.png"",""x"":475,""y"":0},{""src"":""https://ziweizhang0304.github.io/Stats_learning_trig/img/Stim/FN_022_g.png"",""x"":-225,""y"":50},{""src"":""https://ziweizhang0304.github.io/Stats_learning_trig/img/Stim/FN_016_g.png"",""x"":475,""y"":50}]","[{""src"":""https://ziweizhang0304.github.io/Stats_learning_trig/img/Stim/FN_016_g.png"",""x"":27,""y"":14},{""src"":""https://ziweizhang0304.github.io/Stats_learning_trig/img/Stim/FN_010_g.png"",""x"":86,""y"":32},{""src"":""https://ziweizhang0304.github.io/Stats_learning_trig/img/Stim/FN_022_g.png"",""x"":207,""y"":38}]","[{""src"":""https://ziweizhang0304.github.io/Stats_learning_trig/img/Stim/FN_010_g.png"",""x"":86,""y"":32},{""src"":""https://ziweizhang0304.github.io/Stats_learning_trig/img/Stim/FN_022_g.png"",""x"":207,""y"":38},{""src"":""https://ziweizhang0304.github.io/Stats_learning_trig/img/Stim/FN_016_g.png"",""x"":27,""y"":14}]",""
"","free-sort","65","332989","0.0-10.0","13424.60000000149","","","","","","","","","post_drag","","","","slow","","","","","","[{""src"":""https://ziweizhang0304.github.io/Stats_learning_trig/img/Stim/FN_006_g.png"",""x"":475,""y"":0},{""src"":""https://ziweizhang0304.github.io/Stats_learning_trig/img/Stim/FN_020_g.png"",""x"":-225,""y"":50},{""src"":""https://ziweizhang0304.github.io/Stats_learning_trig/img/Stim/FN_019_g.png"",""x"":475,""y"":50}]","[{""src"":""https://ziweizhang0304.github.io/Stats_learning_trig/img/Stim/FN_006_g.png"",""x"":7,""y"":22},{""src"":""https://ziweizhang0304.github.io/Stats_learning_trig/img/Stim/FN_020_g.png"",""x"":94,""y"":7},{""src"":""https://ziweizhang0304.github.io/Stats_learning_trig/img/Stim/FN_019_g.png"",""x"":221,""y"":40}]","[{""src"":""https://ziweizhang0304.github.io/Stats_learning_trig/img/Stim/FN_006_g.png"",""x"":7,""y"":22},{""src"":""https://ziweizhang0304.github.io/Stats_learning_trig/img/Stim/FN_020_g.png"",""x"":94,""y"":7},{""src"":""https://ziweizhang0304.github.io/Stats_learning_trig/img/Stim/FN_019_g.png"",""x"":221,""y"":40}]",""
"","survey-multi-choice","66","343124","0.0-11.0","10124.699999999255","","","","","","","","","","","","","","","","60fd6ea5d5e5f804bb6fc4cf","","{""awareness"":""No"",""attention_check"":""Press SPACEBAR to a target""}","","","","[0,1]"
