"success","trial_type","trial_index","time_elapsed","internal_node_id","rt","url","view_history","stimulus","key_press","animation_sequence","response","TD_rt","TD_target","test_part","TD_trial_number","onset","offset","attention_state","TD_target_position","TD_within_triplet_counter","participant","yoke_participant","responses","init_locations","moves","final_locations","question_order"
"true","fullscreen","0","2008","0.0-0.0","","","","","","","","","","","","","","","","","","","","","","",""
"","external-html","1","5257","0.0-1.0","3105.7999999523163","https://ziweizhang0304.github.io/Stats_learning_trig/content/consent.html","","","","","","","","","","","","","","","","","","","","",""
"","instructions","2","31131","0.0-2.0","25872.299999952316","","[{""page_index"":0,""viewing_time"":3152},{""page_index"":1,""viewing_time"":8789.600000023842},{""page_index"":2,""viewing_time"":11953},{""page_index"":3,""viewing_time"":1977.0999999046326}]","","","","","","","","","","","","","","","","","","","",""
"","image-keyboard-response","3","36232","0.0-3.0-0.0-0.0","5099.800000071526","","","https://ziweizhang0304.github.io/Stats_learning_trig/img/Stim/FN_009_g.png","13","","","","","","","","","","","","","","","","","",""
"","animation","4","40668","0.0-3.0-0.0-1.0","","","","","","[{""stimulus"":""https://ziweizhang0304.github.io/Stats_learning_trig/img/Stim/FN_017_g.png"",""time"":371.6999999284744},{""stimulus"":""blank"",""time"":680},{""stimulus"":""https://ziweizhang0304.github.io/Stats_learning_trig/img/Stim/FN_020_g.png"",""time"":681.7999999523163},{""stimulus"":""blank"",""time"":995},{""stimulus"":""https://ziweizhang0304.github.io/Stats_learning_trig/img/Stim/FN_018_g.png"",""time"":1022.1999999284744},{""stimulus"":""blank"",""time"":1324.6999999284744},{""stimulus"":""https://ziweizhang0304.github.io/Stats_learning_trig/img/Stim/FN_009_g.png"",""time"":1362.1999999284744},{""stimulus"":""blank"",""time"":1665.1999999284744},{""stimulus"":""https://ziweizhang0304.github.io/Stats_learning_trig/img/Stim/FN_004_g.png"",""time"":1703.5999999046326},{""stimulus"":""blank"",""time"":2014.8999999761581},{""stimulus"":""https://ziweizhang0304.github.io/Stats_learning_trig/img/Stim/FN_024_g.png"",""time"":2041.5999999046326},{""stimulus"":""blank"",""time"":2345.5},{""stimulus"":""https://ziweizhang0304.github.io/Stats_learning_trig/img/Stim/FN_014_g.png"",""time"":2385.6999999284744},{""stimulus"":""blank"",""time"":2704.5999999046326},{""stimulus"":""https://ziweizhang0304.github.io/Stats_learning_trig/img/Stim/FN_003_g.png"",""time"":2721.5},{""stimulus"":""blank"",""time"":3030.6999999284744},{""stimulus"":""https://ziweizhang0304.github.io/Stats_learning_trig/img/Stim/FN_007_g.png"",""time"":3061.899999976158},{""stimulus"":""blank"",""time"":3365.0999999046326},{""stimulus"":""https://ziweizhang0304.github.io/Stats_learning_trig/img/Stim/FN_012_g.png"",""time"":3404},{""stimulus"":""blank"",""time"":3705.399999976158},{""stimulus"":""https://ziweizhang0304.github.io/Stats_learning_trig/img/Stim/FN_025_g.png"",""time"":3741.399999976158},{""stimulus"":""blank"",""time"":4055.399999976158},{""stimulus"":""https://ziweizhang0304.github.io/Stats_learning_trig/img/Stim/FN_008_g.png"",""time"":4081.1999999284744},{""stimulus"":""blank"",""time"":4385.5}]","[{""key_press"":32,""rt"":1752.3999999761581,""stimulus"":""https://ziweizhang0304.github.io/Stats_learning_trig/img/Stim/FN_004_g.png""}]","390.2000000476837","https://ziweizhang0304.github.io/Stats_learning_trig/img/Stim/FN_009_g.png","post_prac","","","","","","","","","","","","",""
"","html-keyboard-response","5","44761","0.0-3.0-0.0-2.0","4089.399999976158","","","<p>Your reaction time for this trial was 390.2 ms.</p><p>Remember that you should only press the SPACEBAR when you see the shape presented at the beginning of the trial. </b> </p><p>Press enter to move on.</p>","13","","","","","","","","","","","","","","","","","",""
"","image-keyboard-response","6","47909","0.0-3.0-1.0-0.0","3146.6999999284744","","","https://ziweizhang0304.github.io/Stats_learning_trig/img/Stim/FN_009_g.png","13","","","","","","","","","","","","","","","","","",""
"","animation","7","52337","0.0-3.0-1.0-1.0","","","","","","[{""stimulus"":""https://ziweizhang0304.github.io/Stats_learning_trig/img/Stim/FN_012_g.png"",""time"":348.90000009536743},{""stimulus"":""blank"",""time"":657.5},{""stimulus"":""https://ziweizhang0304.github.io/Stats_learning_trig/img/Stim/FN_018_g.png"",""time"":680.6000000238419},{""stimulus"":""blank"",""time"":988.1000000238419},{""stimulus"":""https://ziweizhang0304.github.io/Stats_learning_trig/img/Stim/FN_014_g.png"",""time"":1026.5},{""stimulus"":""blank"",""time"":1338.4000000953674},{""stimulus"":""https://ziweizhang0304.github.io/Stats_learning_trig/img/Stim/FN_017_g.png"",""time"":1360.9000000953674},{""stimulus"":""blank"",""time"":1662.8000000715256},{""stimulus"":""https://ziweizhang0304.github.io/Stats_learning_trig/img/Stim/FN_025_g.png"",""time"":1701.3000000715256},{""stimulus"":""blank"",""time"":2007.7000000476837},{""stimulus"":""https://ziweizhang0304.github.io/Stats_learning_trig/img/Stim/FN_009_g.png"",""time"":2042.8000000715256},{""stimulus"":""blank"",""time"":2348.100000023842},{""stimulus"":""https://ziweizhang0304.github.io/Stats_learning_trig/img/Stim/FN_004_g.png"",""time"":2381.7000000476837},{""stimulus"":""blank"",""time"":2687.600000023842},{""stimulus"":""https://ziweizhang0304.github.io/Stats_learning_trig/img/Stim/FN_024_g.png"",""time"":2726.600000023842},{""stimulus"":""blank"",""time"":3028.4000000953674},{""stimulus"":""https://ziweizhang0304.github.io/Stats_learning_trig/img/Stim/FN_020_g.png"",""time"":3061.3000000715256},{""stimulus"":""blank"",""time"":3373.5},{""stimulus"":""https://ziweizhang0304.github.io/Stats_learning_trig/img/Stim/FN_003_g.png"",""time"":3401.3000000715256},{""stimulus"":""blank"",""time"":3717.7000000476837},{""stimulus"":""https://ziweizhang0304.github.io/Stats_learning_trig/img/Stim/FN_008_g.png"",""time"":3741.9000000953674},{""stimulus"":""blank"",""time"":4048.100000023842},{""stimulus"":""https://ziweizhang0304.github.io/Stats_learning_trig/img/Stim/FN_007_g.png"",""time"":4095.4000000953674},{""stimulus"":""blank"",""time"":4408.400000095367}]","[{""key_press"":32,""rt"":2381,""stimulus"":""blank""}]","338.1999999284744","https://ziweizhang0304.github.io/Stats_learning_trig/img/Stim/FN_009_g.png","post_prac","","","","","","","","","","","","",""
"","html-keyboard-response","8","55031","0.0-3.0-1.0-2.0","2690.0999999046326","","","<p>Your reaction time for this trial was 338.2 ms.</p><p>Remember that you should only press the SPACEBAR when you see the shape presented at the beginning of the trial. </b> </p><p>Press enter to move on.</p>","13","","","","","","","","","","","","","","","","","",""
"","image-keyboard-response","9","58251","0.0-3.0-2.0-0.0","3218.600000023842","","","https://ziweizhang0304.github.io/Stats_learning_trig/img/Stim/FN_004_g.png","13","","","","","","","","","","","","","","","","","",""
"","animation","10","62672","0.0-3.0-2.0-1.0","","","","","","[{""stimulus"":""https://ziweizhang0304.github.io/Stats_learning_trig/img/Stim/FN_012_g.png"",""time"":347.8000000715256},{""stimulus"":""blank"",""time"":657.7000000476837},{""stimulus"":""https://ziweizhang0304.github.io/Stats_learning_trig/img/Stim/FN_018_g.png"",""time"":681.5},{""stimulus"":""blank"",""time"":987.7000000476837},{""stimulus"":""https://ziweizhang0304.github.io/Stats_learning_trig/img/Stim/FN_014_g.png"",""time"":1022.1000000238419},{""stimulus"":""blank"",""time"":1337.8000000715256},{""stimulus"":""https://ziweizhang0304.github.io/Stats_learning_trig/img/Stim/FN_017_g.png"",""time"":1360.8999999761581},{""stimulus"":""blank"",""time"":1667.6000000238419},{""stimulus"":""https://ziweizhang0304.github.io/Stats_learning_trig/img/Stim/FN_025_g.png"",""time"":1701.6000000238419},{""stimulus"":""blank"",""time"":2013.5},{""stimulus"":""https://ziweizhang0304.github.io/Stats_learning_trig/img/Stim/FN_009_g.png"",""time"":2042.8999999761581},{""stimulus"":""blank"",""time"":2372.7000000476837},{""stimulus"":""https://ziweizhang0304.github.io/Stats_learning_trig/img/Stim/FN_004_g.png"",""time"":2382.100000023842},{""stimulus"":""blank"",""time"":2683.3000000715256},{""stimulus"":""https://ziweizhang0304.github.io/Stats_learning_trig/img/Stim/FN_024_g.png"",""time"":2737.100000023842},{""stimulus"":""blank"",""time"":3047},{""stimulus"":""https://ziweizhang0304.github.io/Stats_learning_trig/img/Stim/FN_020_g.png"",""time"":3060.899999976158},{""stimulus"":""blank"",""time"":3367.2000000476837},{""stimulus"":""https://ziweizhang0304.github.io/Stats_learning_trig/img/Stim/FN_003_g.png"",""time"":3402.5},{""stimulus"":""blank"",""time"":3707.600000023842},{""stimulus"":""https://ziweizhang0304.github.io/Stats_learning_trig/img/Stim/FN_008_g.png"",""time"":3753.8000000715256},{""stimulus"":""blank"",""time"":4066.899999976158},{""stimulus"":""https://ziweizhang0304.github.io/Stats_learning_trig/img/Stim/FN_007_g.png"",""time"":4087.8000000715256},{""stimulus"":""blank"",""time"":4407.600000023842}]","[{""key_press"":32,""rt"":1779.3999999761581,""stimulus"":""https://ziweizhang0304.github.io/Stats_learning_trig/img/Stim/FN_025_g.png""},{""key_press"":32,""rt"":2802.7999999523163,""stimulus"":""https://ziweizhang0304.github.io/Stats_learning_trig/img/Stim/FN_024_g.png""}]","420.6999999284744","https://ziweizhang0304.github.io/Stats_learning_trig/img/Stim/FN_004_g.png","post_prac","","","","","","","","","","","","",""
"","html-keyboard-response","11","65823","0.0-3.0-2.0-2.0","3150.2999999523163","","","<p>Your reaction time for this trial was 420.7 ms.</p><p>Remember that you should only press the SPACEBAR when you see the shape presented at the beginning of the trial. </b> </p><p>Press enter to move on.</p>","13","","","","","","","","","","","","","","","","","",""
"","instructions","12","67824","0.0-4.0","1999.6999999284744","","[{""page_index"":0,""viewing_time"":1999.3999999761581}]","","","","","","","","","","","","","","","","","","","",""
"","image-keyboard-response","13","70082","0.0-5.0-0.0-0.0","2257.399999976158","","","https://ziweizhang0304.github.io/Stats_learning_trig/img/Stim/FN_024_g.png","13","","","","","","","","","","","","","","","","","",""
"","animation","14","74504","0.0-5.0-0.0-1.0","","","","","","[{""stimulus"":""https://ziweizhang0304.github.io/Stats_learning_trig/img/Stim/FN_008_g.png"",""time"":366.59999990463257},{""stimulus"":""blank"",""time"":685.3999999761581},{""stimulus"":""https://ziweizhang0304.github.io/Stats_learning_trig/img/Stim/FN_014_g.png"",""time"":685.8999999761581},{""stimulus"":""blank"",""time"":997.1999999284744},{""stimulus"":""https://ziweizhang0304.github.io/Stats_learning_trig/img/Stim/FN_012_g.png"",""time"":1021},{""stimulus"":""blank"",""time"":1344.8999999761581},{""stimulus"":""https://ziweizhang0304.github.io/Stats_learning_trig/img/Stim/FN_007_g.png"",""time"":1361.3999999761581},{""stimulus"":""blank"",""time"":1666},{""stimulus"":""https://ziweizhang0304.github.io/Stats_learning_trig/img/Stim/FN_003_g.png"",""time"":1701.2999999523163},{""stimulus"":""blank"",""time"":2020.3999999761581},{""stimulus"":""https://ziweizhang0304.github.io/Stats_learning_trig/img/Stim/FN_018_g.png"",""time"":2041.8999999761581},{""stimulus"":""blank"",""time"":2355.1999999284744},{""stimulus"":""https://ziweizhang0304.github.io/Stats_learning_trig/img/Stim/FN_009_g.png"",""time"":2381.0999999046326},{""stimulus"":""blank"",""time"":2695.2999999523163},{""stimulus"":""https://ziweizhang0304.github.io/Stats_learning_trig/img/Stim/FN_004_g.png"",""time"":2720.5},{""stimulus"":""blank"",""time"":3035.0999999046326},{""stimulus"":""https://ziweizhang0304.github.io/Stats_learning_trig/img/Stim/FN_024_g.png"",""time"":3070.2999999523163},{""stimulus"":""blank"",""time"":3376},{""stimulus"":""https://ziweizhang0304.github.io/Stats_learning_trig/img/Stim/FN_020_g.png"",""time"":3401.6999999284744},{""stimulus"":""blank"",""time"":3705.0999999046326},{""stimulus"":""https://ziweizhang0304.github.io/Stats_learning_trig/img/Stim/FN_025_g.png"",""time"":3741.7999999523163},{""stimulus"":""blank"",""time"":4055.5999999046326},{""stimulus"":""https://ziweizhang0304.github.io/Stats_learning_trig/img/Stim/FN_017_g.png"",""time"":4082.0999999046326},{""stimulus"":""blank"",""time"":4388.5}]","[{""key_press"":32,""rt"":3548.7000000476837,""stimulus"":""https://ziweizhang0304.github.io/Stats_learning_trig/img/Stim/FN_020_g.png""}]","478.40000009536743","https://ziweizhang0304.github.io/Stats_learning_trig/img/Stim/FN_024_g.png","post_TD","1","3070.2999999523163","3548.7000000476837","fast","9","3","6110cc212a3ac417ba55da29","","","","","",""
"","image-keyboard-response","15","76865","0.0-5.0-1.0-0.0","2359.600000023842","","","https://ziweizhang0304.github.io/Stats_learning_trig/img/Stim/FN_010_g.png","13","","","","","","","","","","","","","","","","","",""
"","animation","16","81286","0.0-5.0-1.0-1.0","","","","","","[{""stimulus"":""https://ziweizhang0304.github.io/Stats_learning_trig/img/Stim/FN_018_g.png"",""time"":343.89999997615814},{""stimulus"":""blank"",""time"":652.8999999761581},{""stimulus"":""https://ziweizhang0304.github.io/Stats_learning_trig/img/Stim/FN_012_g.png"",""time"":687.8999999761581},{""stimulus"":""blank"",""time"":998.7000000476837},{""stimulus"":""https://ziweizhang0304.github.io/Stats_learning_trig/img/Stim/FN_020_g.png"",""time"":1022},{""stimulus"":""blank"",""time"":1323.2000000476837},{""stimulus"":""https://ziweizhang0304.github.io/Stats_learning_trig/img/Stim/FN_023_g.png"",""time"":1362.6000000238419},{""stimulus"":""blank"",""time"":1682.3000000715256},{""stimulus"":""https://ziweizhang0304.github.io/Stats_learning_trig/img/Stim/FN_021_g.png"",""time"":1702.2000000476837},{""stimulus"":""blank"",""time"":2006.7000000476837},{""stimulus"":""https://ziweizhang0304.github.io/Stats_learning_trig/img/Stim/FN_010_g.png"",""time"":2041.3000000715256},{""stimulus"":""blank"",""time"":2363.5},{""stimulus"":""https://ziweizhang0304.github.io/Stats_learning_trig/img/Stim/FN_014_g.png"",""time"":2382.2000000476837},{""stimulus"":""blank"",""time"":2693.399999976158},{""stimulus"":""https://ziweizhang0304.github.io/Stats_learning_trig/img/Stim/FN_025_g.png"",""time"":2721},{""stimulus"":""blank"",""time"":3033.100000023842},{""stimulus"":""https://ziweizhang0304.github.io/Stats_learning_trig/img/Stim/FN_017_g.png"",""time"":3065.2000000476837},{""stimulus"":""blank"",""time"":3383},{""stimulus"":""https://ziweizhang0304.github.io/Stats_learning_trig/img/Stim/FN_003_g.png"",""time"":3401.7000000476837},{""stimulus"":""blank"",""time"":3702.8000000715256},{""stimulus"":""https://ziweizhang0304.github.io/Stats_learning_trig/img/Stim/FN_008_g.png"",""time"":3741.600000023842},{""stimulus"":""blank"",""time"":4057.7000000476837},{""stimulus"":""https://ziweizhang0304.github.io/Stats_learning_trig/img/Stim/FN_007_g.png"",""time"":4081.3000000715256},{""stimulus"":""blank"",""time"":4392.600000023842}]","[{""key_press"":32,""rt"":2445.5,""stimulus"":""https://ziweizhang0304.github.io/Stats_learning_trig/img/Stim/FN_014_g.png""}]","404.1999999284744","https://ziweizhang0304.github.io/Stats_learning_trig/img/Stim/FN_010_g.png","post_TD","2","2041.3000000715256","2445.5","slow","6","3","6110cc212a3ac417ba55da29","","","","","",""
"","image-keyboard-response","17","83877","0.0-5.0-2.0-0.0","2589.600000023842","","","https://ziweizhang0304.github.io/Stats_learning_trig/img/Stim/FN_023_g.png","13","","","","","","","","","","","","","","","","","",""
"","animation","18","88299","0.0-5.0-2.0-1.0","","","","","","[{""stimulus"":""https://ziweizhang0304.github.io/Stats_learning_trig/img/Stim/FN_014_g.png"",""time"":362},{""stimulus"":""blank"",""time"":671},{""stimulus"":""https://ziweizhang0304.github.io/Stats_learning_trig/img/Stim/FN_012_g.png"",""time"":681.7000000476837},{""stimulus"":""blank"",""time"":996.7000000476837},{""stimulus"":""https://ziweizhang0304.github.io/Stats_learning_trig/img/Stim/FN_017_g.png"",""time"":1021.8999999761581},{""stimulus"":""blank"",""time"":1341.1000000238419},{""stimulus"":""https://ziweizhang0304.github.io/Stats_learning_trig/img/Stim/FN_020_g.png"",""time"":1361.6000000238419},{""stimulus"":""blank"",""time"":1680.2999999523163},{""stimulus"":""https://ziweizhang0304.github.io/Stats_learning_trig/img/Stim/FN_003_g.png"",""time"":1702.2999999523163},{""stimulus"":""blank"",""time"":2011},{""stimulus"":""https://ziweizhang0304.github.io/Stats_learning_trig/img/Stim/FN_023_g.png"",""time"":2042},{""stimulus"":""blank"",""time"":2350.399999976158},{""stimulus"":""https://ziweizhang0304.github.io/Stats_learning_trig/img/Stim/FN_021_g.png"",""time"":2381},{""stimulus"":""blank"",""time"":2700.600000023842},{""stimulus"":""https://ziweizhang0304.github.io/Stats_learning_trig/img/Stim/FN_010_g.png"",""time"":2720.7000000476837},{""stimulus"":""blank"",""time"":3031.100000023842},{""stimulus"":""https://ziweizhang0304.github.io/Stats_learning_trig/img/Stim/FN_018_g.png"",""time"":3062.2000000476837},{""stimulus"":""blank"",""time"":3381.2000000476837},{""stimulus"":""https://ziweizhang0304.github.io/Stats_learning_trig/img/Stim/FN_025_g.png"",""time"":3401.2999999523163},{""stimulus"":""blank"",""time"":3715.399999976158},{""stimulus"":""https://ziweizhang0304.github.io/Stats_learning_trig/img/Stim/FN_008_g.png"",""time"":3741.7999999523163},{""stimulus"":""blank"",""time"":4045.600000023842},{""stimulus"":""https://ziweizhang0304.github.io/Stats_learning_trig/img/Stim/FN_007_g.png"",""time"":4092.5},{""stimulus"":""blank"",""time"":4396.700000047684}]","[{""key_press"":32,""rt"":2446.7999999523163,""stimulus"":""https://ziweizhang0304.github.io/Stats_learning_trig/img/Stim/FN_021_g.png""}]","404.7999999523163","https://ziweizhang0304.github.io/Stats_learning_trig/img/Stim/FN_023_g.png","post_TD","3","2042","2446.7999999523163","slow","6","1","6110cc212a3ac417ba55da29","","","","","",""
"","image-keyboard-response","19","92603","0.0-5.0-3.0-0.0","4302.699999928474","","","https://ziweizhang0304.github.io/Stats_learning_trig/img/Stim/FN_010_g.png","13","","","","","","","","","","","","","","","","","",""
"","animation","20","97035","0.0-5.0-3.0-1.0","","","","","","[{""stimulus"":""https://ziweizhang0304.github.io/Stats_learning_trig/img/Stim/FN_020_g.png"",""time"":355.10000002384186},{""stimulus"":""blank"",""time"":674.7000000476837},{""stimulus"":""https://ziweizhang0304.github.io/Stats_learning_trig/img/Stim/FN_025_g.png"",""time"":681.7000000476837},{""stimulus"":""blank"",""time"":984.1000000238419},{""stimulus"":""https://ziweizhang0304.github.io/Stats_learning_trig/img/Stim/FN_007_g.png"",""time"":1032},{""stimulus"":""blank"",""time"":1334.1000000238419},{""stimulus"":""https://ziweizhang0304.github.io/Stats_learning_trig/img/Stim/FN_014_g.png"",""time"":1362.2000000476837},{""stimulus"":""blank"",""time"":1678.6000000238419},{""stimulus"":""https://ziweizhang0304.github.io/Stats_learning_trig/img/Stim/FN_023_g.png"",""time"":1710.3000000715256},{""stimulus"":""blank"",""time"":2014.2000000476837},{""stimulus"":""https://ziweizhang0304.github.io/Stats_learning_trig/img/Stim/FN_021_g.png"",""time"":2049.8000000715256},{""stimulus"":""blank"",""time"":2353.9000000953674},{""stimulus"":""https://ziweizhang0304.github.io/Stats_learning_trig/img/Stim/FN_010_g.png"",""time"":2381.8000000715256},{""stimulus"":""blank"",""time"":2684.7000000476837},{""stimulus"":""https://ziweizhang0304.github.io/Stats_learning_trig/img/Stim/FN_018_g.png"",""time"":2731.600000023842},{""stimulus"":""blank"",""time"":3038.7000000476837},{""stimulus"":""https://ziweizhang0304.github.io/Stats_learning_trig/img/Stim/FN_017_g.png"",""time"":3061.600000023842},{""stimulus"":""blank"",""time"":3375},{""stimulus"":""https://ziweizhang0304.github.io/Stats_learning_trig/img/Stim/FN_003_g.png"",""time"":3409.8000000715256},{""stimulus"":""blank"",""time"":3714.8000000715256},{""stimulus"":""https://ziweizhang0304.github.io/Stats_learning_trig/img/Stim/FN_012_g.png"",""time"":3740.3000000715256},{""stimulus"":""blank"",""time"":4043.9000000953674},{""stimulus"":""https://ziweizhang0304.github.io/Stats_learning_trig/img/Stim/FN_008_g.png"",""time"":4081.600000023842},{""stimulus"":""blank"",""time"":4384.100000023842}]","[{""key_press"":32,""rt"":2752,""stimulus"":""https://ziweizhang0304.github.io/Stats_learning_trig/img/Stim/FN_018_g.png""}]","370.1999999284744","https://ziweizhang0304.github.io/Stats_learning_trig/img/Stim/FN_010_g.png","post_TD","4","2381.8000000715256","2752","slow","7","3","6110cc212a3ac417ba55da29","","","","","",""
"","image-keyboard-response","21","98211","0.0-5.0-4.0-0.0","1174","","","https://ziweizhang0304.github.io/Stats_learning_trig/img/Stim/FN_023_g.png","13","","","","","","","","","","","","","","","","","",""
"","animation","22","102633","0.0-5.0-4.0-1.0","","","","","","[{""stimulus"":""https://ziweizhang0304.github.io/Stats_learning_trig/img/Stim/FN_020_g.png"",""time"":346.89999997615814},{""stimulus"":""blank"",""time"":652.3000000715256},{""stimulus"":""https://ziweizhang0304.github.io/Stats_learning_trig/img/Stim/FN_025_g.png"",""time"":681},{""stimulus"":""blank"",""time"":996.8999999761581},{""stimulus"":""https://ziweizhang0304.github.io/Stats_learning_trig/img/Stim/FN_007_g.png"",""time"":1021.7000000476837},{""stimulus"":""blank"",""time"":1322.8000000715256},{""stimulus"":""https://ziweizhang0304.github.io/Stats_learning_trig/img/Stim/FN_014_g.png"",""time"":1363.8999999761581},{""stimulus"":""blank"",""time"":1668.5},{""stimulus"":""https://ziweizhang0304.github.io/Stats_learning_trig/img/Stim/FN_023_g.png"",""time"":1701.8999999761581},{""stimulus"":""blank"",""time"":2007.2000000476837},{""stimulus"":""https://ziweizhang0304.github.io/Stats_learning_trig/img/Stim/FN_021_g.png"",""time"":2040.8000000715256},{""stimulus"":""blank"",""time"":2346.899999976158},{""stimulus"":""https://ziweizhang0304.github.io/Stats_learning_trig/img/Stim/FN_010_g.png"",""time"":2381.7000000476837},{""stimulus"":""blank"",""time"":2686.600000023842},{""stimulus"":""https://ziweizhang0304.github.io/Stats_learning_trig/img/Stim/FN_018_g.png"",""time"":2724.5},{""stimulus"":""blank"",""time"":3031.7000000476837},{""stimulus"":""https://ziweizhang0304.github.io/Stats_learning_trig/img/Stim/FN_017_g.png"",""time"":3061},{""stimulus"":""blank"",""time"":3363.399999976158},{""stimulus"":""https://ziweizhang0304.github.io/Stats_learning_trig/img/Stim/FN_003_g.png"",""time"":3401.5},{""stimulus"":""blank"",""time"":3716.7000000476837},{""stimulus"":""https://ziweizhang0304.github.io/Stats_learning_trig/img/Stim/FN_012_g.png"",""time"":3741.399999976158},{""stimulus"":""blank"",""time"":4047.3000000715256},{""stimulus"":""https://ziweizhang0304.github.io/Stats_learning_trig/img/Stim/FN_008_g.png"",""time"":4082.2000000476837},{""stimulus"":""blank"",""time"":4397.200000047684}]","[{""key_press"":32,""rt"":2210.5,""stimulus"":""https://ziweizhang0304.github.io/Stats_learning_trig/img/Stim/FN_021_g.png""}]","508.60000002384186","https://ziweizhang0304.github.io/Stats_learning_trig/img/Stim/FN_023_g.png","post_TD","5","1701.8999999761581","2210.5","slow","5","1","6110cc212a3ac417ba55da29","","","","","",""
"","image-keyboard-response","23","104611","0.0-5.0-5.0-0.0","1977.3999999761581","","","https://ziweizhang0304.github.io/Stats_learning_trig/img/Stim/FN_010_g.png","13","","","","","","","","","","","","","","","","","",""
"","animation","24","109033","0.0-5.0-5.0-1.0","","","","","","[{""stimulus"":""https://ziweizhang0304.github.io/Stats_learning_trig/img/Stim/FN_014_g.png"",""time"":347.89999997615814},{""stimulus"":""blank"",""time"":656.3000000715256},{""stimulus"":""https://ziweizhang0304.github.io/Stats_learning_trig/img/Stim/FN_012_g.png"",""time"":691.8999999761581},{""stimulus"":""blank"",""time"":993.6000000238419},{""stimulus"":""https://ziweizhang0304.github.io/Stats_learning_trig/img/Stim/FN_017_g.png"",""time"":1022.3999999761581},{""stimulus"":""blank"",""time"":1336.7000000476837},{""stimulus"":""https://ziweizhang0304.github.io/Stats_learning_trig/img/Stim/FN_020_g.png"",""time"":1367.6000000238419},{""stimulus"":""blank"",""time"":1680},{""stimulus"":""https://ziweizhang0304.github.io/Stats_learning_trig/img/Stim/FN_003_g.png"",""time"":1701.3999999761581},{""stimulus"":""blank"",""time"":2006.8999999761581},{""stimulus"":""https://ziweizhang0304.github.io/Stats_learning_trig/img/Stim/FN_023_g.png"",""time"":2041.8000000715256},{""stimulus"":""blank"",""time"":2356.8000000715256},{""stimulus"":""https://ziweizhang0304.github.io/Stats_learning_trig/img/Stim/FN_021_g.png"",""time"":2392.899999976158},{""stimulus"":""blank"",""time"":2706.399999976158},{""stimulus"":""https://ziweizhang0304.github.io/Stats_learning_trig/img/Stim/FN_010_g.png"",""time"":2726.899999976158},{""stimulus"":""blank"",""time"":3036.8000000715256},{""stimulus"":""https://ziweizhang0304.github.io/Stats_learning_trig/img/Stim/FN_018_g.png"",""time"":3061.2000000476837},{""stimulus"":""blank"",""time"":3366.5},{""stimulus"":""https://ziweizhang0304.github.io/Stats_learning_trig/img/Stim/FN_025_g.png"",""time"":3401.7000000476837},{""stimulus"":""blank"",""time"":3706.899999976158},{""stimulus"":""https://ziweizhang0304.github.io/Stats_learning_trig/img/Stim/FN_008_g.png"",""time"":3741.100000023842},{""stimulus"":""blank"",""time"":4052},{""stimulus"":""https://ziweizhang0304.github.io/Stats_learning_trig/img/Stim/FN_007_g.png"",""time"":4087.7000000476837},{""stimulus"":""blank"",""time"":4396.800000071526}]","[{""key_press"":32,""rt"":3123.2999999523163,""stimulus"":""https://ziweizhang0304.github.io/Stats_learning_trig/img/Stim/FN_018_g.png""}]","396.39999997615814","https://ziweizhang0304.github.io/Stats_learning_trig/img/Stim/FN_010_g.png","post_TD","6","2726.899999976158","3123.2999999523163","slow","8","3","6110cc212a3ac417ba55da29","","","","","",""
"","image-keyboard-response","25","110921","0.0-5.0-6.0-0.0","1886.8000000715256","","","https://ziweizhang0304.github.io/Stats_learning_trig/img/Stim/FN_009_g.png","13","","","","","","","","","","","","","","","","","",""
"","animation","26","115352","0.0-5.0-6.0-1.0","","","","","","[{""stimulus"":""https://ziweizhang0304.github.io/Stats_learning_trig/img/Stim/FN_012_g.png"",""time"":351.2000000476837},{""stimulus"":""blank"",""time"":657.4000000953674},{""stimulus"":""https://ziweizhang0304.github.io/Stats_learning_trig/img/Stim/FN_018_g.png"",""time"":681.1000000238419},{""stimulus"":""blank"",""time"":986.7000000476837},{""stimulus"":""https://ziweizhang0304.github.io/Stats_learning_trig/img/Stim/FN_014_g.png"",""time"":1021.5},{""stimulus"":""blank"",""time"":1337},{""stimulus"":""https://ziweizhang0304.github.io/Stats_learning_trig/img/Stim/FN_017_g.png"",""time"":1361.3000000715256},{""stimulus"":""blank"",""time"":1666.7000000476837},{""stimulus"":""https://ziweizhang0304.github.io/Stats_learning_trig/img/Stim/FN_025_g.png"",""time"":1713.5},{""stimulus"":""blank"",""time"":2017.4000000953674},{""stimulus"":""https://ziweizhang0304.github.io/Stats_learning_trig/img/Stim/FN_009_g.png"",""time"":2041.5},{""stimulus"":""blank"",""time"":2343.100000023842},{""stimulus"":""https://ziweizhang0304.github.io/Stats_learning_trig/img/Stim/FN_004_g.png"",""time"":2381.8000000715256},{""stimulus"":""blank"",""time"":2686.7000000476837},{""stimulus"":""https://ziweizhang0304.github.io/Stats_learning_trig/img/Stim/FN_024_g.png"",""time"":2721.7000000476837},{""stimulus"":""blank"",""time"":3036.8000000715256},{""stimulus"":""https://ziweizhang0304.github.io/Stats_learning_trig/img/Stim/FN_020_g.png"",""time"":3061.5},{""stimulus"":""blank"",""time"":3376.7000000476837},{""stimulus"":""https://ziweizhang0304.github.io/Stats_learning_trig/img/Stim/FN_003_g.png"",""time"":3407.7000000476837},{""stimulus"":""blank"",""time"":3726.9000000953674},{""stimulus"":""https://ziweizhang0304.github.io/Stats_learning_trig/img/Stim/FN_008_g.png"",""time"":3740.600000023842},{""stimulus"":""blank"",""time"":4057.3000000715256},{""stimulus"":""https://ziweizhang0304.github.io/Stats_learning_trig/img/Stim/FN_007_g.png"",""time"":4080.600000023842},{""stimulus"":""blank"",""time"":4396.300000071526}]","[{""key_press"":32,""rt"":2388.5,""stimulus"":""https://ziweizhang0304.github.io/Stats_learning_trig/img/Stim/FN_004_g.png""}]","347","https://ziweizhang0304.github.io/Stats_learning_trig/img/Stim/FN_009_g.png","post_TD","7","2041.5","2388.5","fast","6","1","6110cc212a3ac417ba55da29","","","","","",""
"","image-keyboard-response","27","116651","0.0-5.0-7.0-0.0","1297.3999999761581","","","https://ziweizhang0304.github.io/Stats_learning_trig/img/Stim/FN_009_g.png","13","","","","","","","","","","","","","","","","","",""
"","animation","28","121073","0.0-5.0-7.0-1.0","","","","","","[{""stimulus"":""https://ziweizhang0304.github.io/Stats_learning_trig/img/Stim/FN_003_g.png"",""time"":357.2999999523163},{""stimulus"":""blank"",""time"":676.5999999046326},{""stimulus"":""https://ziweizhang0304.github.io/Stats_learning_trig/img/Stim/FN_017_g.png"",""time"":681.8999999761581},{""stimulus"":""blank"",""time"":986.6999999284744},{""stimulus"":""https://ziweizhang0304.github.io/Stats_learning_trig/img/Stim/FN_020_g.png"",""time"":1021.3999999761581},{""stimulus"":""blank"",""time"":1327},{""stimulus"":""https://ziweizhang0304.github.io/Stats_learning_trig/img/Stim/FN_009_g.png"",""time"":1361.3999999761581},{""stimulus"":""blank"",""time"":1666.2999999523163},{""stimulus"":""https://ziweizhang0304.github.io/Stats_learning_trig/img/Stim/FN_004_g.png"",""time"":1702.6999999284744},{""stimulus"":""blank"",""time"":2006.8999999761581},{""stimulus"":""https://ziweizhang0304.github.io/Stats_learning_trig/img/Stim/FN_024_g.png"",""time"":2056.5},{""stimulus"":""blank"",""time"":2366.6999999284744},{""stimulus"":""https://ziweizhang0304.github.io/Stats_learning_trig/img/Stim/FN_014_g.png"",""time"":2381.2999999523163},{""stimulus"":""blank"",""time"":2696.2999999523163},{""stimulus"":""https://ziweizhang0304.github.io/Stats_learning_trig/img/Stim/FN_018_g.png"",""time"":2721},{""stimulus"":""blank"",""time"":3027.7999999523163},{""stimulus"":""https://ziweizhang0304.github.io/Stats_learning_trig/img/Stim/FN_025_g.png"",""time"":3067.0999999046326},{""stimulus"":""blank"",""time"":3377},{""stimulus"":""https://ziweizhang0304.github.io/Stats_learning_trig/img/Stim/FN_012_g.png"",""time"":3408.2999999523163},{""stimulus"":""blank"",""time"":3717},{""stimulus"":""https://ziweizhang0304.github.io/Stats_learning_trig/img/Stim/FN_008_g.png"",""time"":3741.6999999284744},{""stimulus"":""blank"",""time"":4061.0999999046326},{""stimulus"":""https://ziweizhang0304.github.io/Stats_learning_trig/img/Stim/FN_007_g.png"",""time"":4081.5999999046326},{""stimulus"":""blank"",""time"":4391.5}]","[{""key_press"":32,""rt"":1848.8000000715256,""stimulus"":""https://ziweizhang0304.github.io/Stats_learning_trig/img/Stim/FN_004_g.png""}]","487.40000009536743","https://ziweizhang0304.github.io/Stats_learning_trig/img/Stim/FN_009_g.png","post_TD","8","1361.3999999761581","1848.8000000715256","fast","4","1","6110cc212a3ac417ba55da29","","","","","",""
"","image-keyboard-response","29","122770","0.0-5.0-8.0-0.0","1695.6999999284744","","","https://ziweizhang0304.github.io/Stats_learning_trig/img/Stim/FN_021_g.png","13","","","","","","","","","","","","","","","","","",""
"","animation","30","127192","0.0-5.0-8.0-1.0","","","","","","[{""stimulus"":""https://ziweizhang0304.github.io/Stats_learning_trig/img/Stim/FN_018_g.png"",""time"":347.60000002384186},{""stimulus"":""blank"",""time"":657},{""stimulus"":""https://ziweizhang0304.github.io/Stats_learning_trig/img/Stim/FN_012_g.png"",""time"":681.2000000476837},{""stimulus"":""blank"",""time"":996.6000000238419},{""stimulus"":""https://ziweizhang0304.github.io/Stats_learning_trig/img/Stim/FN_020_g.png"",""time"":1031.8000000715256},{""stimulus"":""blank"",""time"":1338.1000000238419},{""stimulus"":""https://ziweizhang0304.github.io/Stats_learning_trig/img/Stim/FN_023_g.png"",""time"":1361.8999999761581},{""stimulus"":""blank"",""time"":1677.2000000476837},{""stimulus"":""https://ziweizhang0304.github.io/Stats_learning_trig/img/Stim/FN_021_g.png"",""time"":1701.8999999761581},{""stimulus"":""blank"",""time"":2007.5},{""stimulus"":""https://ziweizhang0304.github.io/Stats_learning_trig/img/Stim/FN_010_g.png"",""time"":2041},{""stimulus"":""blank"",""time"":2352.2000000476837},{""stimulus"":""https://ziweizhang0304.github.io/Stats_learning_trig/img/Stim/FN_014_g.png"",""time"":2380.8000000715256},{""stimulus"":""blank"",""time"":2687.399999976158},{""stimulus"":""https://ziweizhang0304.github.io/Stats_learning_trig/img/Stim/FN_025_g.png"",""time"":2737.2000000476837},{""stimulus"":""blank"",""time"":3047.7000000476837},{""stimulus"":""https://ziweizhang0304.github.io/Stats_learning_trig/img/Stim/FN_017_g.png"",""time"":3060.8000000715256},{""stimulus"":""blank"",""time"":3368.3000000715256},{""stimulus"":""https://ziweizhang0304.github.io/Stats_learning_trig/img/Stim/FN_003_g.png"",""time"":3401.5},{""stimulus"":""blank"",""time"":3702.399999976158},{""stimulus"":""https://ziweizhang0304.github.io/Stats_learning_trig/img/Stim/FN_008_g.png"",""time"":3741.3000000715256},{""stimulus"":""blank"",""time"":4047.7000000476837},{""stimulus"":""https://ziweizhang0304.github.io/Stats_learning_trig/img/Stim/FN_007_g.png"",""time"":4081.7000000476837},{""stimulus"":""blank"",""time"":4387}]","[{""key_press"":32,""rt"":2072.5,""stimulus"":""https://ziweizhang0304.github.io/Stats_learning_trig/img/Stim/FN_010_g.png""}]","370.60000002384186","https://ziweizhang0304.github.io/Stats_learning_trig/img/Stim/FN_021_g.png","post_TD","9","1701.8999999761581","2072.5","slow","5","2","6110cc212a3ac417ba55da29","","","","","",""
"","image-keyboard-response","31","144665","0.0-5.0-9.0-0.0","17471.899999976158","","","https://ziweizhang0304.github.io/Stats_learning_trig/img/Stim/FN_004_g.png","13","","","","","","","","","","","","","","","","","",""
"","animation","32","149094","0.0-5.0-9.0-1.0","","","","","","[{""stimulus"":""https://ziweizhang0304.github.io/Stats_learning_trig/img/Stim/FN_012_g.png"",""time"":347.8000000715256},{""stimulus"":""blank"",""time"":662.2000000476837},{""stimulus"":""https://ziweizhang0304.github.io/Stats_learning_trig/img/Stim/FN_018_g.png"",""time"":681},{""stimulus"":""blank"",""time"":981.8000000715256},{""stimulus"":""https://ziweizhang0304.github.io/Stats_learning_trig/img/Stim/FN_014_g.png"",""time"":1021.2000000476837},{""stimulus"":""blank"",""time"":1332.6000000238419},{""stimulus"":""https://ziweizhang0304.github.io/Stats_learning_trig/img/Stim/FN_017_g.png"",""time"":1364.4000000953674},{""stimulus"":""blank"",""time"":1672.1000000238419},{""stimulus"":""https://ziweizhang0304.github.io/Stats_learning_trig/img/Stim/FN_025_g.png"",""time"":1700.9000000953674},{""stimulus"":""blank"",""time"":2011.9000000953674},{""stimulus"":""https://ziweizhang0304.github.io/Stats_learning_trig/img/Stim/FN_009_g.png"",""time"":2043.4000000953674},{""stimulus"":""blank"",""time"":2356.5},{""stimulus"":""https://ziweizhang0304.github.io/Stats_learning_trig/img/Stim/FN_004_g.png"",""time"":2381.100000023842},{""stimulus"":""blank"",""time"":2701.600000023842},{""stimulus"":""https://ziweizhang0304.github.io/Stats_learning_trig/img/Stim/FN_024_g.png"",""time"":2721.3000000715256},{""stimulus"":""blank"",""time"":3021.7000000476837},{""stimulus"":""https://ziweizhang0304.github.io/Stats_learning_trig/img/Stim/FN_020_g.png"",""time"":3072.600000023842},{""stimulus"":""blank"",""time"":3387.9000000953674},{""stimulus"":""https://ziweizhang0304.github.io/Stats_learning_trig/img/Stim/FN_003_g.png"",""time"":3402.100000023842},{""stimulus"":""blank"",""time"":3712.3000000715256},{""stimulus"":""https://ziweizhang0304.github.io/Stats_learning_trig/img/Stim/FN_008_g.png"",""time"":3743.5},{""stimulus"":""blank"",""time"":4052.4000000953674},{""stimulus"":""https://ziweizhang0304.github.io/Stats_learning_trig/img/Stim/FN_007_g.png"",""time"":4081.9000000953674},{""stimulus"":""blank"",""time"":4396.800000071526}]","[{""key_press"":32,""rt"":2735.899999976158,""stimulus"":""https://ziweizhang0304.github.io/Stats_learning_trig/img/Stim/FN_024_g.png""}]","354.7999999523163","https://ziweizhang0304.github.io/Stats_learning_trig/img/Stim/FN_004_g.png","post_TD","10","2381.100000023842","2735.899999976158","fast","7","2","6110cc212a3ac417ba55da29","","","","","",""
"","image-keyboard-response","33","152178","0.0-5.0-10.0-0.0","3082.600000023842","","","https://ziweizhang0304.github.io/Stats_learning_trig/img/Stim/FN_021_g.png","13","","","","","","","","","","","","","","","","","",""
"","animation","34","156600","0.0-5.0-10.0-1.0","","","","","","[{""stimulus"":""https://ziweizhang0304.github.io/Stats_learning_trig/img/Stim/FN_020_g.png"",""time"":350.90000009536743},{""stimulus"":""blank"",""time"":669.6000000238419},{""stimulus"":""https://ziweizhang0304.github.io/Stats_learning_trig/img/Stim/FN_025_g.png"",""time"":681.4000000953674},{""stimulus"":""blank"",""time"":1000},{""stimulus"":""https://ziweizhang0304.github.io/Stats_learning_trig/img/Stim/FN_007_g.png"",""time"":1021.2000000476837},{""stimulus"":""blank"",""time"":1339.1000000238419},{""stimulus"":""https://ziweizhang0304.github.io/Stats_learning_trig/img/Stim/FN_014_g.png"",""time"":1374.4000000953674},{""stimulus"":""blank"",""time"":1685.9000000953674},{""stimulus"":""https://ziweizhang0304.github.io/Stats_learning_trig/img/Stim/FN_023_g.png"",""time"":1701.3000000715256},{""stimulus"":""blank"",""time"":2019},{""stimulus"":""https://ziweizhang0304.github.io/Stats_learning_trig/img/Stim/FN_021_g.png"",""time"":2041.8000000715256},{""stimulus"":""blank"",""time"":2359.4000000953674},{""stimulus"":""https://ziweizhang0304.github.io/Stats_learning_trig/img/Stim/FN_010_g.png"",""time"":2381.7000000476837},{""stimulus"":""blank"",""time"":2695.3000000715256},{""stimulus"":""https://ziweizhang0304.github.io/Stats_learning_trig/img/Stim/FN_018_g.png"",""time"":2720.600000023842},{""stimulus"":""blank"",""time"":3039.600000023842},{""stimulus"":""https://ziweizhang0304.github.io/Stats_learning_trig/img/Stim/FN_017_g.png"",""time"":3075.4000000953674},{""stimulus"":""blank"",""time"":3389.8000000715256},{""stimulus"":""https://ziweizhang0304.github.io/Stats_learning_trig/img/Stim/FN_003_g.png"",""time"":3400.8000000715256},{""stimulus"":""blank"",""time"":3709.100000023842},{""stimulus"":""https://ziweizhang0304.github.io/Stats_learning_trig/img/Stim/FN_012_g.png"",""time"":3740.9000000953674},{""stimulus"":""blank"",""time"":4059.3000000715256},{""stimulus"":""https://ziweizhang0304.github.io/Stats_learning_trig/img/Stim/FN_008_g.png"",""time"":4082.100000023842},{""stimulus"":""blank"",""time"":4399.5}]","[{""key_press"":32,""rt"":2392.100000023842,""stimulus"":""https://ziweizhang0304.github.io/Stats_learning_trig/img/Stim/FN_010_g.png""}]","350.2999999523163","https://ziweizhang0304.github.io/Stats_learning_trig/img/Stim/FN_021_g.png","post_TD","11","2041.8000000715256","2392.100000023842","slow","6","2","6110cc212a3ac417ba55da29","","","","","",""
"","image-keyboard-response","35","158652","0.0-5.0-11.0-0.0","2051.600000023842","","","https://ziweizhang0304.github.io/Stats_learning_trig/img/Stim/FN_010_g.png","13","","","","","","","","","","","","","","","","","",""
"","animation","36","163073","0.0-5.0-11.0-1.0","","","","","","[{""stimulus"":""https://ziweizhang0304.github.io/Stats_learning_trig/img/Stim/FN_017_g.png"",""time"":345.1999999284744},{""stimulus"":""blank"",""time"":655.1999999284744},{""stimulus"":""https://ziweizhang0304.github.io/Stats_learning_trig/img/Stim/FN_014_g.png"",""time"":680.8999999761581},{""stimulus"":""blank"",""time"":985.5999999046326},{""stimulus"":""https://ziweizhang0304.github.io/Stats_learning_trig/img/Stim/FN_025_g.png"",""time"":1021.1999999284744},{""stimulus"":""blank"",""time"":1325.5},{""stimulus"":""https://ziweizhang0304.github.io/Stats_learning_trig/img/Stim/FN_020_g.png"",""time"":1365.5},{""stimulus"":""blank"",""time"":1684.6999999284744},{""stimulus"":""https://ziweizhang0304.github.io/Stats_learning_trig/img/Stim/FN_007_g.png"",""time"":1700.5999999046326},{""stimulus"":""blank"",""time"":2014.7999999523163},{""stimulus"":""https://ziweizhang0304.github.io/Stats_learning_trig/img/Stim/FN_003_g.png"",""time"":2042},{""stimulus"":""blank"",""time"":2345.0999999046326},{""stimulus"":""https://ziweizhang0304.github.io/Stats_learning_trig/img/Stim/FN_023_g.png"",""time"":2381.7999999523163},{""stimulus"":""blank"",""time"":2697.7999999523163},{""stimulus"":""https://ziweizhang0304.github.io/Stats_learning_trig/img/Stim/FN_021_g.png"",""time"":2725.2999999523163},{""stimulus"":""blank"",""time"":3044.5999999046326},{""stimulus"":""https://ziweizhang0304.github.io/Stats_learning_trig/img/Stim/FN_010_g.png"",""time"":3061},{""stimulus"":""blank"",""time"":3365.399999976158},{""stimulus"":""https://ziweizhang0304.github.io/Stats_learning_trig/img/Stim/FN_018_g.png"",""time"":3400.6999999284744},{""stimulus"":""blank"",""time"":3704.7999999523163},{""stimulus"":""https://ziweizhang0304.github.io/Stats_learning_trig/img/Stim/FN_012_g.png"",""time"":3755.2999999523163},{""stimulus"":""blank"",""time"":4064.399999976158},{""stimulus"":""https://ziweizhang0304.github.io/Stats_learning_trig/img/Stim/FN_008_g.png"",""time"":4082.5999999046326},{""stimulus"":""blank"",""time"":4384.5}]","[{""key_press"":32,""rt"":3413.6999999284744,""stimulus"":""https://ziweizhang0304.github.io/Stats_learning_trig/img/Stim/FN_018_g.png""}]","352.6999999284744","https://ziweizhang0304.github.io/Stats_learning_trig/img/Stim/FN_010_g.png","post_TD","12","3061","3413.6999999284744","slow","9","3","6110cc212a3ac417ba55da29","","","","","",""
"","image-keyboard-response","37","166939","0.0-5.0-12.0-0.0","3864.8000000715256","","","https://ziweizhang0304.github.io/Stats_learning_trig/img/Stim/FN_024_g.png","13","","","","","","","","","","","","","","","","","",""
"","animation","38","171361","0.0-5.0-12.0-1.0","","","","","","[{""stimulus"":""https://ziweizhang0304.github.io/Stats_learning_trig/img/Stim/FN_025_g.png"",""time"":360.90000009536743},{""stimulus"":""blank"",""time"":678.2000000476837},{""stimulus"":""https://ziweizhang0304.github.io/Stats_learning_trig/img/Stim/FN_007_g.png"",""time"":681.3000000715256},{""stimulus"":""blank"",""time"":998.8000000715256},{""stimulus"":""https://ziweizhang0304.github.io/Stats_learning_trig/img/Stim/FN_018_g.png"",""time"":1021},{""stimulus"":""blank"",""time"":1328.5},{""stimulus"":""https://ziweizhang0304.github.io/Stats_learning_trig/img/Stim/FN_014_g.png"",""time"":1360.9000000953674},{""stimulus"":""blank"",""time"":1678.2000000476837},{""stimulus"":""https://ziweizhang0304.github.io/Stats_learning_trig/img/Stim/FN_009_g.png"",""time"":1701.3000000715256},{""stimulus"":""blank"",""time"":2007.1000000238419},{""stimulus"":""https://ziweizhang0304.github.io/Stats_learning_trig/img/Stim/FN_004_g.png"",""time"":2041.6000000238419},{""stimulus"":""blank"",""time"":2357.7000000476837},{""stimulus"":""https://ziweizhang0304.github.io/Stats_learning_trig/img/Stim/FN_024_g.png"",""time"":2381.5},{""stimulus"":""blank"",""time"":2698.2000000476837},{""stimulus"":""https://ziweizhang0304.github.io/Stats_learning_trig/img/Stim/FN_020_g.png"",""time"":2720.600000023842},{""stimulus"":""blank"",""time"":3027.7000000476837},{""stimulus"":""https://ziweizhang0304.github.io/Stats_learning_trig/img/Stim/FN_017_g.png"",""time"":3060.5},{""stimulus"":""blank"",""time"":3378.2000000476837},{""stimulus"":""https://ziweizhang0304.github.io/Stats_learning_trig/img/Stim/FN_003_g.png"",""time"":3401.4000000953674},{""stimulus"":""blank"",""time"":3717.8000000715256},{""stimulus"":""https://ziweizhang0304.github.io/Stats_learning_trig/img/Stim/FN_012_g.png"",""time"":3742.100000023842},{""stimulus"":""blank"",""time"":4048},{""stimulus"":""https://ziweizhang0304.github.io/Stats_learning_trig/img/Stim/FN_008_g.png"",""time"":4081.2000000476837},{""stimulus"":""blank"",""time"":4387.700000047684}]","[{""key_press"":32,""rt"":2715,""stimulus"":""blank""}]","333.5","https://ziweizhang0304.github.io/Stats_learning_trig/img/Stim/FN_024_g.png","post_TD","13","2381.5","2715","fast","7","3","6110cc212a3ac417ba55da29","","","","","",""
"","image-keyboard-response","39","172631","0.0-5.0-13.0-0.0","1268.8000000715256","","","https://ziweizhang0304.github.io/Stats_learning_trig/img/Stim/FN_004_g.png","13","","","","","","","","","","","","","","","","","",""
"","animation","40","177052","0.0-5.0-13.0-1.0","","","","","","[{""stimulus"":""https://ziweizhang0304.github.io/Stats_learning_trig/img/Stim/FN_025_g.png"",""time"":346.5},{""stimulus"":""blank"",""time"":651.2000000476837},{""stimulus"":""https://ziweizhang0304.github.io/Stats_learning_trig/img/Stim/FN_007_g.png"",""time"":680.8000000715256},{""stimulus"":""blank"",""time"":996.8000000715256},{""stimulus"":""https://ziweizhang0304.github.io/Stats_learning_trig/img/Stim/FN_018_g.png"",""time"":1020.7000000476837},{""stimulus"":""blank"",""time"":1325.8999999761581},{""stimulus"":""https://ziweizhang0304.github.io/Stats_learning_trig/img/Stim/FN_014_g.png"",""time"":1377.1000000238419},{""stimulus"":""blank"",""time"":1686},{""stimulus"":""https://ziweizhang0304.github.io/Stats_learning_trig/img/Stim/FN_009_g.png"",""time"":1700.8000000715256},{""stimulus"":""blank"",""time"":2016.3000000715256},{""stimulus"":""https://ziweizhang0304.github.io/Stats_learning_trig/img/Stim/FN_004_g.png"",""time"":2041.8000000715256},{""stimulus"":""blank"",""time"":2346.600000023842},{""stimulus"":""https://ziweizhang0304.github.io/Stats_learning_trig/img/Stim/FN_024_g.png"",""time"":2381.8000000715256},{""stimulus"":""blank"",""time"":2696.5},{""stimulus"":""https://ziweizhang0304.github.io/Stats_learning_trig/img/Stim/FN_020_g.png"",""time"":2721.3000000715256},{""stimulus"":""blank"",""time"":3031.7000000476837},{""stimulus"":""https://ziweizhang0304.github.io/Stats_learning_trig/img/Stim/FN_017_g.png"",""time"":3061.899999976158},{""stimulus"":""blank"",""time"":3366.100000023842},{""stimulus"":""https://ziweizhang0304.github.io/Stats_learning_trig/img/Stim/FN_003_g.png"",""time"":3403.3000000715256},{""stimulus"":""blank"",""time"":3706.8000000715256},{""stimulus"":""https://ziweizhang0304.github.io/Stats_learning_trig/img/Stim/FN_012_g.png"",""time"":3740.8000000715256},{""stimulus"":""blank"",""time"":4056.8000000715256},{""stimulus"":""https://ziweizhang0304.github.io/Stats_learning_trig/img/Stim/FN_008_g.png"",""time"":4081.3000000715256},{""stimulus"":""blank"",""time"":4396.700000047684}]","[{""key_press"":32,""rt"":2395.100000023842,""stimulus"":""https://ziweizhang0304.github.io/Stats_learning_trig/img/Stim/FN_024_g.png""}]","353.2999999523163","https://ziweizhang0304.github.io/Stats_learning_trig/img/Stim/FN_004_g.png","post_TD","14","2041.8000000715256","2395.100000023842","fast","6","2","6110cc212a3ac417ba55da29","","","","","",""
"","image-keyboard-response","41","178077","0.0-5.0-14.0-0.0","1022.5999999046326","","","https://ziweizhang0304.github.io/Stats_learning_trig/img/Stim/FN_009_g.png","13","","","","","","","","","","","","","","","","","",""
"","animation","42","182498","0.0-5.0-14.0-1.0","","","","","","[{""stimulus"":""https://ziweizhang0304.github.io/Stats_learning_trig/img/Stim/FN_008_g.png"",""time"":341.8000000715256},{""stimulus"":""blank"",""time"":651.6000000238419},{""stimulus"":""https://ziweizhang0304.github.io/Stats_learning_trig/img/Stim/FN_014_g.png"",""time"":682.3000000715256},{""stimulus"":""blank"",""time"":990.9000000953674},{""stimulus"":""https://ziweizhang0304.github.io/Stats_learning_trig/img/Stim/FN_012_g.png"",""time"":1021},{""stimulus"":""blank"",""time"":1331.3000000715256},{""stimulus"":""https://ziweizhang0304.github.io/Stats_learning_trig/img/Stim/FN_007_g.png"",""time"":1372.1000000238419},{""stimulus"":""blank"",""time"":1681.5},{""stimulus"":""https://ziweizhang0304.github.io/Stats_learning_trig/img/Stim/FN_003_g.png"",""time"":1701.5},{""stimulus"":""blank"",""time"":2020.6000000238419},{""stimulus"":""https://ziweizhang0304.github.io/Stats_learning_trig/img/Stim/FN_018_g.png"",""time"":2042.4000000953674},{""stimulus"":""blank"",""time"":2350.7000000476837},{""stimulus"":""https://ziweizhang0304.github.io/Stats_learning_trig/img/Stim/FN_009_g.png"",""time"":2380.9000000953674},{""stimulus"":""blank"",""time"":2701.5},{""stimulus"":""https://ziweizhang0304.github.io/Stats_learning_trig/img/Stim/FN_004_g.png"",""time"":2721.2000000476837},{""stimulus"":""blank"",""time"":3031.4000000953674},{""stimulus"":""https://ziweizhang0304.github.io/Stats_learning_trig/img/Stim/FN_024_g.png"",""time"":3063.4000000953674},{""stimulus"":""blank"",""time"":3371.3000000715256},{""stimulus"":""https://ziweizhang0304.github.io/Stats_learning_trig/img/Stim/FN_020_g.png"",""time"":3402},{""stimulus"":""blank"",""time"":3721.5},{""stimulus"":""https://ziweizhang0304.github.io/Stats_learning_trig/img/Stim/FN_025_g.png"",""time"":3741.600000023842},{""stimulus"":""blank"",""time"":4050.8000000715256},{""stimulus"":""https://ziweizhang0304.github.io/Stats_learning_trig/img/Stim/FN_017_g.png"",""time"":4081.5},{""stimulus"":""blank"",""time"":4396.5}]","[{""key_press"":32,""rt"":2719.399999976158,""stimulus"":""blank""}]","338.4999998807907","https://ziweizhang0304.github.io/Stats_learning_trig/img/Stim/FN_009_g.png","post_TD","15","2380.9000000953674","2719.399999976158","fast","7","1","6110cc212a3ac417ba55da29","","","","","",""
"","image-keyboard-response","43","183731","0.0-5.0-15.0-0.0","1232","","","https://ziweizhang0304.github.io/Stats_learning_trig/img/Stim/FN_009_g.png","13","","","","","","","","","","","","","","","","","",""
"","animation","44","188166","0.0-5.0-15.0-1.0","","","","","","[{""stimulus"":""https://ziweizhang0304.github.io/Stats_learning_trig/img/Stim/FN_025_g.png"",""time"":356.89999997615814},{""stimulus"":""blank"",""time"":671.1000000238419},{""stimulus"":""https://ziweizhang0304.github.io/Stats_learning_trig/img/Stim/FN_007_g.png"",""time"":681.7999999523163},{""stimulus"":""blank"",""time"":986.2999999523163},{""stimulus"":""https://ziweizhang0304.github.io/Stats_learning_trig/img/Stim/FN_018_g.png"",""time"":1021.5},{""stimulus"":""blank"",""time"":1326.1000000238419},{""stimulus"":""https://ziweizhang0304.github.io/Stats_learning_trig/img/Stim/FN_014_g.png"",""time"":1361.3999999761581},{""stimulus"":""blank"",""time"":1676.7999999523163},{""stimulus"":""https://ziweizhang0304.github.io/Stats_learning_trig/img/Stim/FN_009_g.png"",""time"":1701.7000000476837},{""stimulus"":""blank"",""time"":2016.3999999761581},{""stimulus"":""https://ziweizhang0304.github.io/Stats_learning_trig/img/Stim/FN_004_g.png"",""time"":2041.2999999523163},{""stimulus"":""blank"",""time"":2342.2000000476837},{""stimulus"":""https://ziweizhang0304.github.io/Stats_learning_trig/img/Stim/FN_024_g.png"",""time"":2388.5},{""stimulus"":""blank"",""time"":2696.899999976158},{""stimulus"":""https://ziweizhang0304.github.io/Stats_learning_trig/img/Stim/FN_020_g.png"",""time"":2721.399999976158},{""stimulus"":""blank"",""time"":3030.7999999523163},{""stimulus"":""https://ziweizhang0304.github.io/Stats_learning_trig/img/Stim/FN_017_g.png"",""time"":3061},{""stimulus"":""blank"",""time"":3366.2000000476837},{""stimulus"":""https://ziweizhang0304.github.io/Stats_learning_trig/img/Stim/FN_003_g.png"",""time"":3403.100000023842},{""stimulus"":""blank"",""time"":3707},{""stimulus"":""https://ziweizhang0304.github.io/Stats_learning_trig/img/Stim/FN_012_g.png"",""time"":3741.100000023842},{""stimulus"":""blank"",""time"":4046.600000023842},{""stimulus"":""https://ziweizhang0304.github.io/Stats_learning_trig/img/Stim/FN_008_g.png"",""time"":4080.7999999523163},{""stimulus"":""blank"",""time"":4386.700000047684}]","[{""key_press"":32,""rt"":2086.2999999523163,""stimulus"":""https://ziweizhang0304.github.io/Stats_learning_trig/img/Stim/FN_004_g.png""}]","384.59999990463257","https://ziweizhang0304.github.io/Stats_learning_trig/img/Stim/FN_009_g.png","post_TD","16","1701.7000000476837","2086.2999999523163","fast","5","1","6110cc212a3ac417ba55da29","","","","","",""
"","image-keyboard-response","45","190250","0.0-5.0-16.0-0.0","2083.4000000953674","","","https://ziweizhang0304.github.io/Stats_learning_trig/img/Stim/FN_021_g.png","13","","","","","","","","","","","","","","","","","",""
"","animation","46","194672","0.0-5.0-16.0-1.0","","","","","","[{""stimulus"":""https://ziweizhang0304.github.io/Stats_learning_trig/img/Stim/FN_017_g.png"",""time"":356.90000009536743},{""stimulus"":""blank"",""time"":661.6000000238419},{""stimulus"":""https://ziweizhang0304.github.io/Stats_learning_trig/img/Stim/FN_014_g.png"",""time"":680.8000000715256},{""stimulus"":""blank"",""time"":987.6000000238419},{""stimulus"":""https://ziweizhang0304.github.io/Stats_learning_trig/img/Stim/FN_025_g.png"",""time"":1021.2000000476837},{""stimulus"":""blank"",""time"":1327.5},{""stimulus"":""https://ziweizhang0304.github.io/Stats_learning_trig/img/Stim/FN_020_g.png"",""time"":1361.8000000715256},{""stimulus"":""blank"",""time"":1667.2000000476837},{""stimulus"":""https://ziweizhang0304.github.io/Stats_learning_trig/img/Stim/FN_007_g.png"",""time"":1702.2000000476837},{""stimulus"":""blank"",""time"":2007.4000000953674},{""stimulus"":""https://ziweizhang0304.github.io/Stats_learning_trig/img/Stim/FN_003_g.png"",""time"":2058},{""stimulus"":""blank"",""time"":2377},{""stimulus"":""https://ziweizhang0304.github.io/Stats_learning_trig/img/Stim/FN_023_g.png"",""time"":2382.2000000476837},{""stimulus"":""blank"",""time"":2687.3000000715256},{""stimulus"":""https://ziweizhang0304.github.io/Stats_learning_trig/img/Stim/FN_021_g.png"",""time"":2720.8000000715256},{""stimulus"":""blank"",""time"":3021.8000000715256},{""stimulus"":""https://ziweizhang0304.github.io/Stats_learning_trig/img/Stim/FN_010_g.png"",""time"":3068.100000023842},{""stimulus"":""blank"",""time"":3386.5},{""stimulus"":""https://ziweizhang0304.github.io/Stats_learning_trig/img/Stim/FN_018_g.png"",""time"":3401.3000000715256},{""stimulus"":""blank"",""time"":3706.5},{""stimulus"":""https://ziweizhang0304.github.io/Stats_learning_trig/img/Stim/FN_012_g.png"",""time"":3741},{""stimulus"":""blank"",""time"":4046.7000000476837},{""stimulus"":""https://ziweizhang0304.github.io/Stats_learning_trig/img/Stim/FN_008_g.png"",""time"":4083.600000023842},{""stimulus"":""blank"",""time"":4397}]","[{""key_press"":32,""rt"":3038.100000023842,""stimulus"":""blank""}]","317.2999999523163","https://ziweizhang0304.github.io/Stats_learning_trig/img/Stim/FN_021_g.png","post_TD","17","2720.8000000715256","3038.100000023842","slow","8","2","6110cc212a3ac417ba55da29","","","","","",""
"","image-keyboard-response","47","195710","0.0-5.0-17.0-0.0","1036.8999999761581","","","https://ziweizhang0304.github.io/Stats_learning_trig/img/Stim/FN_004_g.png","13","","","","","","","","","","","","","","","","","",""
"","animation","48","200132","0.0-5.0-17.0-1.0","","","","","","[{""stimulus"":""https://ziweizhang0304.github.io/Stats_learning_trig/img/Stim/FN_003_g.png"",""time"":357.89999997615814},{""stimulus"":""blank"",""time"":667.3000000715256},{""stimulus"":""https://ziweizhang0304.github.io/Stats_learning_trig/img/Stim/FN_017_g.png"",""time"":681},{""stimulus"":""blank"",""time"":987.7000000476837},{""stimulus"":""https://ziweizhang0304.github.io/Stats_learning_trig/img/Stim/FN_020_g.png"",""time"":1024.3000000715256},{""stimulus"":""blank"",""time"":1347.3000000715256},{""stimulus"":""https://ziweizhang0304.github.io/Stats_learning_trig/img/Stim/FN_009_g.png"",""time"":1361.5},{""stimulus"":""blank"",""time"":1667.1000000238419},{""stimulus"":""https://ziweizhang0304.github.io/Stats_learning_trig/img/Stim/FN_004_g.png"",""time"":1700.7000000476837},{""stimulus"":""blank"",""time"":2007.6000000238419},{""stimulus"":""https://ziweizhang0304.github.io/Stats_learning_trig/img/Stim/FN_024_g.png"",""time"":2040.8000000715256},{""stimulus"":""blank"",""time"":2352.100000023842},{""stimulus"":""https://ziweizhang0304.github.io/Stats_learning_trig/img/Stim/FN_014_g.png"",""time"":2381.3000000715256},{""stimulus"":""blank"",""time"":2687.7000000476837},{""stimulus"":""https://ziweizhang0304.github.io/Stats_learning_trig/img/Stim/FN_018_g.png"",""time"":2724.2000000476837},{""stimulus"":""blank"",""time"":3027.899999976158},{""stimulus"":""https://ziweizhang0304.github.io/Stats_learning_trig/img/Stim/FN_025_g.png"",""time"":3061.399999976158},{""stimulus"":""blank"",""time"":3367.399999976158},{""stimulus"":""https://ziweizhang0304.github.io/Stats_learning_trig/img/Stim/FN_012_g.png"",""time"":3418.100000023842},{""stimulus"":""blank"",""time"":3737.7000000476837},{""stimulus"":""https://ziweizhang0304.github.io/Stats_learning_trig/img/Stim/FN_008_g.png"",""time"":3742},{""stimulus"":""blank"",""time"":4057.2000000476837},{""stimulus"":""https://ziweizhang0304.github.io/Stats_learning_trig/img/Stim/FN_007_g.png"",""time"":4080.8000000715256},{""stimulus"":""blank"",""time"":4403.700000047684}]","[{""key_press"":32,""rt"":2124.399999976158,""stimulus"":""https://ziweizhang0304.github.io/Stats_learning_trig/img/Stim/FN_024_g.png""}]","423.6999999284744","https://ziweizhang0304.github.io/Stats_learning_trig/img/Stim/FN_004_g.png","post_TD","18","1700.7000000476837","2124.399999976158","fast","5","2","6110cc212a3ac417ba55da29","","","","","",""
"","image-keyboard-response","49","201467","0.0-5.0-18.0-0.0","1333","","","https://ziweizhang0304.github.io/Stats_learning_trig/img/Stim/FN_023_g.png","13","","","","","","","","","","","","","","","","","",""
"","animation","50","205898","0.0-5.0-18.0-1.0","","","","","","[{""stimulus"":""https://ziweizhang0304.github.io/Stats_learning_trig/img/Stim/FN_018_g.png"",""time"":351.2999999523163},{""stimulus"":""blank"",""time"":655.1999999284744},{""stimulus"":""https://ziweizhang0304.github.io/Stats_learning_trig/img/Stim/FN_012_g.png"",""time"":681.6999999284744},{""stimulus"":""blank"",""time"":995.3999999761581},{""stimulus"":""https://ziweizhang0304.github.io/Stats_learning_trig/img/Stim/FN_020_g.png"",""time"":1031.1999999284744},{""stimulus"":""blank"",""time"":1341.1000000238419},{""stimulus"":""https://ziweizhang0304.github.io/Stats_learning_trig/img/Stim/FN_023_g.png"",""time"":1361.5},{""stimulus"":""blank"",""time"":1671},{""stimulus"":""https://ziweizhang0304.github.io/Stats_learning_trig/img/Stim/FN_021_g.png"",""time"":1700.8999999761581},{""stimulus"":""blank"",""time"":2006.8999999761581},{""stimulus"":""https://ziweizhang0304.github.io/Stats_learning_trig/img/Stim/FN_010_g.png"",""time"":2041.3999999761581},{""stimulus"":""blank"",""time"":2360.2999999523163},{""stimulus"":""https://ziweizhang0304.github.io/Stats_learning_trig/img/Stim/FN_014_g.png"",""time"":2381.7999999523163},{""stimulus"":""blank"",""time"":2700.7999999523163},{""stimulus"":""https://ziweizhang0304.github.io/Stats_learning_trig/img/Stim/FN_025_g.png"",""time"":2720.7999999523163},{""stimulus"":""blank"",""time"":3030.2999999523163},{""stimulus"":""https://ziweizhang0304.github.io/Stats_learning_trig/img/Stim/FN_017_g.png"",""time"":3067.5},{""stimulus"":""blank"",""time"":3370.5},{""stimulus"":""https://ziweizhang0304.github.io/Stats_learning_trig/img/Stim/FN_003_g.png"",""time"":3400.5},{""stimulus"":""blank"",""time"":3708.899999976158},{""stimulus"":""https://ziweizhang0304.github.io/Stats_learning_trig/img/Stim/FN_008_g.png"",""time"":3761.1999999284744},{""stimulus"":""blank"",""time"":4071.100000023842},{""stimulus"":""https://ziweizhang0304.github.io/Stats_learning_trig/img/Stim/FN_007_g.png"",""time"":4081.6999999284744},{""stimulus"":""blank"",""time"":4395.699999928474}]","[{""key_press"":32,""rt"":1750.9000000953674,""stimulus"":""https://ziweizhang0304.github.io/Stats_learning_trig/img/Stim/FN_021_g.png""}]","389.40000009536743","https://ziweizhang0304.github.io/Stats_learning_trig/img/Stim/FN_023_g.png","post_TD","19","1361.5","1750.9000000953674","slow","4","1","6110cc212a3ac417ba55da29","","","","","",""
"","image-keyboard-response","51","206371","0.0-5.0-19.0-0.0","471.3000000715256","","","https://ziweizhang0304.github.io/Stats_learning_trig/img/Stim/FN_004_g.png","13","","","","","","","","","","","","","","","","","",""
"","animation","52","210792","0.0-5.0-19.0-1.0","","","","","","[{""stimulus"":""https://ziweizhang0304.github.io/Stats_learning_trig/img/Stim/FN_008_g.png"",""time"":346.39999997615814},{""stimulus"":""blank"",""time"":665.6999999284744},{""stimulus"":""https://ziweizhang0304.github.io/Stats_learning_trig/img/Stim/FN_014_g.png"",""time"":680.6000000238419},{""stimulus"":""blank"",""time"":986.2999999523163},{""stimulus"":""https://ziweizhang0304.github.io/Stats_learning_trig/img/Stim/FN_012_g.png"",""time"":1021.2999999523163},{""stimulus"":""blank"",""time"":1331.5},{""stimulus"":""https://ziweizhang0304.github.io/Stats_learning_trig/img/Stim/FN_007_g.png"",""time"":1361.6000000238419},{""stimulus"":""blank"",""time"":1676.5},{""stimulus"":""https://ziweizhang0304.github.io/Stats_learning_trig/img/Stim/FN_003_g.png"",""time"":1701.3999999761581},{""stimulus"":""blank"",""time"":2006.6000000238419},{""stimulus"":""https://ziweizhang0304.github.io/Stats_learning_trig/img/Stim/FN_018_g.png"",""time"":2041.2999999523163},{""stimulus"":""blank"",""time"":2351},{""stimulus"":""https://ziweizhang0304.github.io/Stats_learning_trig/img/Stim/FN_009_g.png"",""time"":2381.600000023842},{""stimulus"":""blank"",""time"":2686},{""stimulus"":""https://ziweizhang0304.github.io/Stats_learning_trig/img/Stim/FN_004_g.png"",""time"":2736.5},{""stimulus"":""blank"",""time"":3056.5},{""stimulus"":""https://ziweizhang0304.github.io/Stats_learning_trig/img/Stim/FN_024_g.png"",""time"":3061.100000023842},{""stimulus"":""blank"",""time"":3376.5},{""stimulus"":""https://ziweizhang0304.github.io/Stats_learning_trig/img/Stim/FN_020_g.png"",""time"":3401.1999999284744},{""stimulus"":""blank"",""time"":3716.399999976158},{""stimulus"":""https://ziweizhang0304.github.io/Stats_learning_trig/img/Stim/FN_025_g.png"",""time"":3741.100000023842},{""stimulus"":""blank"",""time"":4056.5},{""stimulus"":""https://ziweizhang0304.github.io/Stats_learning_trig/img/Stim/FN_017_g.png"",""time"":4081.2999999523163},{""stimulus"":""blank"",""time"":4396.199999928474}]","[{""key_press"":32,""rt"":2913.7999999523163,""stimulus"":""https://ziweizhang0304.github.io/Stats_learning_trig/img/Stim/FN_004_g.png""}]","177.29999995231628","https://ziweizhang0304.github.io/Stats_learning_trig/img/Stim/FN_004_g.png","post_TD","20","2736.5","2913.7999999523163","fast","8","2","6110cc212a3ac417ba55da29","","","","","",""
"","image-keyboard-response","53","211560","0.0-5.0-20.0-0.0","766.3999999761581","","","https://ziweizhang0304.github.io/Stats_learning_trig/img/Stim/FN_023_g.png","13","","","","","","","","","","","","","","","","","",""
"","animation","54","215982","0.0-5.0-20.0-1.0","","","","","","[{""stimulus"":""https://ziweizhang0304.github.io/Stats_learning_trig/img/Stim/FN_017_g.png"",""time"":357.3000000715256},{""stimulus"":""blank"",""time"":667.8000000715256},{""stimulus"":""https://ziweizhang0304.github.io/Stats_learning_trig/img/Stim/FN_014_g.png"",""time"":681.1000000238419},{""stimulus"":""blank"",""time"":998},{""stimulus"":""https://ziweizhang0304.github.io/Stats_learning_trig/img/Stim/FN_025_g.png"",""time"":1021.4000000953674},{""stimulus"":""blank"",""time"":1337.9000000953674},{""stimulus"":""https://ziweizhang0304.github.io/Stats_learning_trig/img/Stim/FN_020_g.png"",""time"":1368.8000000715256},{""stimulus"":""blank"",""time"":1672.3000000715256},{""stimulus"":""https://ziweizhang0304.github.io/Stats_learning_trig/img/Stim/FN_007_g.png"",""time"":1700.5},{""stimulus"":""blank"",""time"":2007.7000000476837},{""stimulus"":""https://ziweizhang0304.github.io/Stats_learning_trig/img/Stim/FN_003_g.png"",""time"":2042.8000000715256},{""stimulus"":""blank"",""time"":2343.100000023842},{""stimulus"":""https://ziweizhang0304.github.io/Stats_learning_trig/img/Stim/FN_023_g.png"",""time"":2381},{""stimulus"":""blank"",""time"":2687.7000000476837},{""stimulus"":""https://ziweizhang0304.github.io/Stats_learning_trig/img/Stim/FN_021_g.png"",""time"":2721.9000000953674},{""stimulus"":""blank"",""time"":3037.9000000953674},{""stimulus"":""https://ziweizhang0304.github.io/Stats_learning_trig/img/Stim/FN_010_g.png"",""time"":3069.100000023842},{""stimulus"":""blank"",""time"":3387.8000000715256},{""stimulus"":""https://ziweizhang0304.github.io/Stats_learning_trig/img/Stim/FN_018_g.png"",""time"":3400.7000000476837},{""stimulus"":""blank"",""time"":3718},{""stimulus"":""https://ziweizhang0304.github.io/Stats_learning_trig/img/Stim/FN_012_g.png"",""time"":3741.600000023842},{""stimulus"":""blank"",""time"":4049.3000000715256},{""stimulus"":""https://ziweizhang0304.github.io/Stats_learning_trig/img/Stim/FN_008_g.png"",""time"":4081.2000000476837},{""stimulus"":""blank"",""time"":4397.400000095367}]","[{""key_press"":32,""rt"":2725.2000000476837,""stimulus"":""https://ziweizhang0304.github.io/Stats_learning_trig/img/Stim/FN_021_g.png""}]","344.2000000476837","https://ziweizhang0304.github.io/Stats_learning_trig/img/Stim/FN_023_g.png","post_TD","21","2381","2725.2000000476837","slow","7","1","6110cc212a3ac417ba55da29","","","","","",""
"","image-keyboard-response","55","216792","0.0-5.0-21.0-0.0","808.5","","","https://ziweizhang0304.github.io/Stats_learning_trig/img/Stim/FN_024_g.png","13","","","","","","","","","","","","","","","","","",""
"","animation","56","221218","0.0-5.0-21.0-1.0","","","","","","[{""stimulus"":""https://ziweizhang0304.github.io/Stats_learning_trig/img/Stim/FN_003_g.png"",""time"":353.59999990463257},{""stimulus"":""blank"",""time"":667.5},{""stimulus"":""https://ziweizhang0304.github.io/Stats_learning_trig/img/Stim/FN_017_g.png"",""time"":681.6999999284744},{""stimulus"":""blank"",""time"":982.0999999046326},{""stimulus"":""https://ziweizhang0304.github.io/Stats_learning_trig/img/Stim/FN_020_g.png"",""time"":1022.2999999523163},{""stimulus"":""blank"",""time"":1322.7999999523163},{""stimulus"":""https://ziweizhang0304.github.io/Stats_learning_trig/img/Stim/FN_009_g.png"",""time"":1370.3999999761581},{""stimulus"":""blank"",""time"":1683},{""stimulus"":""https://ziweizhang0304.github.io/Stats_learning_trig/img/Stim/FN_004_g.png"",""time"":1701.1999999284744},{""stimulus"":""blank"",""time"":2002.7999999523163},{""stimulus"":""https://ziweizhang0304.github.io/Stats_learning_trig/img/Stim/FN_024_g.png"",""time"":2053.2999999523163},{""stimulus"":""blank"",""time"":2373.1999999284744},{""stimulus"":""https://ziweizhang0304.github.io/Stats_learning_trig/img/Stim/FN_014_g.png"",""time"":2381.2999999523163},{""stimulus"":""blank"",""time"":2692.899999976158},{""stimulus"":""https://ziweizhang0304.github.io/Stats_learning_trig/img/Stim/FN_018_g.png"",""time"":2721.899999976158},{""stimulus"":""blank"",""time"":3022.2999999523163},{""stimulus"":""https://ziweizhang0304.github.io/Stats_learning_trig/img/Stim/FN_025_g.png"",""time"":3070.1999999284744},{""stimulus"":""blank"",""time"":3372},{""stimulus"":""https://ziweizhang0304.github.io/Stats_learning_trig/img/Stim/FN_012_g.png"",""time"":3401.5999999046326},{""stimulus"":""blank"",""time"":3702.6999999284744},{""stimulus"":""https://ziweizhang0304.github.io/Stats_learning_trig/img/Stim/FN_008_g.png"",""time"":3753.5},{""stimulus"":""blank"",""time"":4062.7999999523163},{""stimulus"":""https://ziweizhang0304.github.io/Stats_learning_trig/img/Stim/FN_007_g.png"",""time"":4081.2999999523163},{""stimulus"":""blank"",""time"":4382.699999928474}]","[{""key_press"":32,""rt"":2390.8000000715256,""stimulus"":""https://ziweizhang0304.github.io/Stats_learning_trig/img/Stim/FN_014_g.png""}]","337.5000001192093","https://ziweizhang0304.github.io/Stats_learning_trig/img/Stim/FN_024_g.png","post_TD","22","2053.2999999523163","2390.8000000715256","fast","6","3","6110cc212a3ac417ba55da29","","","","","",""
"","image-keyboard-response","57","221562","0.0-5.0-22.0-0.0","343.2000000476837","","","https://ziweizhang0304.github.io/Stats_learning_trig/img/Stim/FN_024_g.png","13","","","","","","","","","","","","","","","","","",""
"","animation","58","225984","0.0-5.0-22.0-1.0","","","","","","[{""stimulus"":""https://ziweizhang0304.github.io/Stats_learning_trig/img/Stim/FN_012_g.png"",""time"":355},{""stimulus"":""blank"",""time"":675},{""stimulus"":""https://ziweizhang0304.github.io/Stats_learning_trig/img/Stim/FN_018_g.png"",""time"":681},{""stimulus"":""blank"",""time"":995.3999999761581},{""stimulus"":""https://ziweizhang0304.github.io/Stats_learning_trig/img/Stim/FN_014_g.png"",""time"":1021.5},{""stimulus"":""blank"",""time"":1335.2000000476837},{""stimulus"":""https://ziweizhang0304.github.io/Stats_learning_trig/img/Stim/FN_017_g.png"",""time"":1366.5},{""stimulus"":""blank"",""time"":1685.3000000715256},{""stimulus"":""https://ziweizhang0304.github.io/Stats_learning_trig/img/Stim/FN_025_g.png"",""time"":1701.8999999761581},{""stimulus"":""blank"",""time"":2015.1000000238419},{""stimulus"":""https://ziweizhang0304.github.io/Stats_learning_trig/img/Stim/FN_009_g.png"",""time"":2041.3999999761581},{""stimulus"":""blank"",""time"":2354.899999976158},{""stimulus"":""https://ziweizhang0304.github.io/Stats_learning_trig/img/Stim/FN_004_g.png"",""time"":2381.600000023842},{""stimulus"":""blank"",""time"":2689.600000023842},{""stimulus"":""https://ziweizhang0304.github.io/Stats_learning_trig/img/Stim/FN_024_g.png"",""time"":2721.399999976158},{""stimulus"":""blank"",""time"":3035.3000000715256},{""stimulus"":""https://ziweizhang0304.github.io/Stats_learning_trig/img/Stim/FN_020_g.png"",""time"":3070.100000023842},{""stimulus"":""blank"",""time"":3385.100000023842},{""stimulus"":""https://ziweizhang0304.github.io/Stats_learning_trig/img/Stim/FN_003_g.png"",""time"":3401.399999976158},{""stimulus"":""blank"",""time"":3705},{""stimulus"":""https://ziweizhang0304.github.io/Stats_learning_trig/img/Stim/FN_008_g.png"",""time"":3741.399999976158},{""stimulus"":""blank"",""time"":4044.899999976158},{""stimulus"":""https://ziweizhang0304.github.io/Stats_learning_trig/img/Stim/FN_007_g.png"",""time"":4080.7000000476837},{""stimulus"":""blank"",""time"":4395.200000047684}]","[{""key_press"":32,""rt"":3037.899999976158,""stimulus"":""blank""}]","316.5","https://ziweizhang0304.github.io/Stats_learning_trig/img/Stim/FN_024_g.png","post_TD","23","2721.399999976158","3037.899999976158","fast","8","3","6110cc212a3ac417ba55da29","","","","","",""
"","image-keyboard-response","59","226380","0.0-5.0-23.0-0.0","394.09999990463257","","","https://ziweizhang0304.github.io/Stats_learning_trig/img/Stim/FN_021_g.png","13","","","","","","","","","","","","","","","","","",""
"","animation","60","230801","0.0-5.0-23.0-1.0","","","","","","[{""stimulus"":""https://ziweizhang0304.github.io/Stats_learning_trig/img/Stim/FN_014_g.png"",""time"":358.7000000476837},{""stimulus"":""blank"",""time"":677.7000000476837},{""stimulus"":""https://ziweizhang0304.github.io/Stats_learning_trig/img/Stim/FN_012_g.png"",""time"":680.8999999761581},{""stimulus"":""blank"",""time"":998.2000000476837},{""stimulus"":""https://ziweizhang0304.github.io/Stats_learning_trig/img/Stim/FN_017_g.png"",""time"":1021},{""stimulus"":""blank"",""time"":1328.3999999761581},{""stimulus"":""https://ziweizhang0304.github.io/Stats_learning_trig/img/Stim/FN_020_g.png"",""time"":1361},{""stimulus"":""blank"",""time"":1678.2000000476837},{""stimulus"":""https://ziweizhang0304.github.io/Stats_learning_trig/img/Stim/FN_003_g.png"",""time"":1701.7000000476837},{""stimulus"":""blank"",""time"":2007.3999999761581},{""stimulus"":""https://ziweizhang0304.github.io/Stats_learning_trig/img/Stim/FN_023_g.png"",""time"":2055},{""stimulus"":""blank"",""time"":2367.5},{""stimulus"":""https://ziweizhang0304.github.io/Stats_learning_trig/img/Stim/FN_021_g.png"",""time"":2380.600000023842},{""stimulus"":""blank"",""time"":2689},{""stimulus"":""https://ziweizhang0304.github.io/Stats_learning_trig/img/Stim/FN_010_g.png"",""time"":2720.7000000476837},{""stimulus"":""blank"",""time"":3037.899999976158},{""stimulus"":""https://ziweizhang0304.github.io/Stats_learning_trig/img/Stim/FN_018_g.png"",""time"":3061.399999976158},{""stimulus"":""blank"",""time"":3368.2000000476837},{""stimulus"":""https://ziweizhang0304.github.io/Stats_learning_trig/img/Stim/FN_025_g.png"",""time"":3401.2000000476837},{""stimulus"":""blank"",""time"":3717.7000000476837},{""stimulus"":""https://ziweizhang0304.github.io/Stats_learning_trig/img/Stim/FN_008_g.png"",""time"":3748.7000000476837},{""stimulus"":""blank"",""time"":4067.2999999523163},{""stimulus"":""https://ziweizhang0304.github.io/Stats_learning_trig/img/Stim/FN_007_g.png"",""time"":4081.2000000476837},{""stimulus"":""blank"",""time"":4397.799999952316}]","[{""key_press"":32,""rt"":2789.899999976158,""stimulus"":""https://ziweizhang0304.github.io/Stats_learning_trig/img/Stim/FN_010_g.png""}]","409.2999999523163","https://ziweizhang0304.github.io/Stats_learning_trig/img/Stim/FN_021_g.png","post_TD","24","2380.600000023842","2789.899999976158","slow","7","2","6110cc212a3ac417ba55da29","a3938","","","","",""
"","survey-text","61","268371","0.0-6.0","37564.300000071526","","","","","","","","","","","","","","","","","","{""Q0"":""My strategy was to pay close attention and press the spacebar as quickly as I could. I started to notice a pattern in the order the shapes were appearing in.""}","","","",""
"","survey-text","62","282452","0.0-7.0","14077.299999952316","","","","","","","","","","","","","","","","","","{""[object Object]"":""The shapes were in the same order.""}","","","",""
"","instructions","63","294303","0.0-8.0","11849.399999976158","","[{""page_index"":0,""viewing_time"":11849.100000023842}]","","","","","","","","","","","","","","","","","","","",""
"","free-sort","64","339101","0.0-9.0","44797.10000002384","","","","","","","","","post_drag","","","","fast","","","","","","[{""src"":""https://ziweizhang0304.github.io/Stats_learning_trig/img/Stim/FN_009_g.png"",""x"":475,""y"":0},{""src"":""https://ziweizhang0304.github.io/Stats_learning_trig/img/Stim/FN_004_g.png"",""x"":-225,""y"":50},{""src"":""https://ziweizhang0304.github.io/Stats_learning_trig/img/Stim/FN_024_g.png"",""x"":475,""y"":50}]","[{""src"":""https://ziweizhang0304.github.io/Stats_learning_trig/img/Stim/FN_004_g.png"",""x"":59,""y"":18},{""src"":""https://ziweizhang0304.github.io/Stats_learning_trig/img/Stim/FN_004_g.png"",""x"":176,""y"":-5},{""src"":""https://ziweizhang0304.github.io/Stats_learning_trig/img/Stim/FN_009_g.png"",""x"":29,""y"":22},{""src"":""https://ziweizhang0304.github.io/Stats_learning_trig/img/Stim/FN_004_g.png"",""x"":116,""y"":19},{""src"":""https://ziweizhang0304.github.io/Stats_learning_trig/img/Stim/FN_004_g.png"",""x"":214,""y"":19},{""src"":""https://ziweizhang0304.github.io/Stats_learning_trig/img/Stim/FN_009_g.png"",""x"":132,""y"":17},{""src"":""https://ziweizhang0304.github.io/Stats_learning_trig/img/Stim/FN_024_g.png"",""x"":39,""y"":18},{""src"":""https://ziweizhang0304.github.io/Stats_learning_trig/img/Stim/FN_024_g.png"",""x"":373,""y"":16},{""src"":""https://ziweizhang0304.github.io/Stats_learning_trig/img/Stim/FN_009_g.png"",""x"":30,""y"":17},{""src"":""https://ziweizhang0304.github.io/Stats_learning_trig/img/Stim/FN_004_g.png"",""x"":123,""y"":16},{""src"":""https://ziweizhang0304.github.io/Stats_learning_trig/img/Stim/FN_024_g.png"",""x"":221,""y"":24}]","[{""src"":""https://ziweizhang0304.github.io/Stats_learning_trig/img/Stim/FN_009_g.png"",""x"":30,""y"":17},{""src"":""https://ziweizhang0304.github.io/Stats_learning_trig/img/Stim/FN_004_g.png"",""x"":123,""y"":16},{""src"":""https://ziweizhang0304.github.io/Stats_learning_trig/img/Stim/FN_024_g.png"",""x"":221,""y"":24}]",""
"","free-sort","65","348478","0.0-10.0","9375.5","","","","","","","","","post_drag","","","","slow","","","","","","[{""src"":""https://ziweizhang0304.github.io/Stats_learning_trig/img/Stim/FN_021_g.png"",""x"":475,""y"":0},{""src"":""https://ziweizhang0304.github.io/Stats_learning_trig/img/Stim/FN_010_g.png"",""x"":-225,""y"":50},{""src"":""https://ziweizhang0304.github.io/Stats_learning_trig/img/Stim/FN_023_g.png"",""x"":475,""y"":50}]","[{""src"":""https://ziweizhang0304.github.io/Stats_learning_trig/img/Stim/FN_023_g.png"",""x"":129,""y"":22},{""src"":""https://ziweizhang0304.github.io/Stats_learning_trig/img/Stim/FN_021_g.png"",""x"":34,""y"":26},{""src"":""https://ziweizhang0304.github.io/Stats_learning_trig/img/Stim/FN_010_g.png"",""x"":221,""y"":24}]","[{""src"":""https://ziweizhang0304.github.io/Stats_learning_trig/img/Stim/FN_021_g.png"",""x"":34,""y"":26},{""src"":""https://ziweizhang0304.github.io/Stats_learning_trig/img/Stim/FN_010_g.png"",""x"":221,""y"":24},{""src"":""https://ziweizhang0304.github.io/Stats_learning_trig/img/Stim/FN_023_g.png"",""x"":129,""y"":22}]",""
"","survey-multi-choice","66","360933","0.0-11.0","12451","","","","","","","","","","","","","","","","6110cc212a3ac417ba55da29","","{""awareness"":""Yes"",""attention_check"":""Press SPACEBAR to a target""}","","","","[0,1]"
