"success","trial_type","trial_index","time_elapsed","internal_node_id","rt","url","view_history","stimulus","key_press","animation_sequence","response","TD_rt","TD_target","test_part","TD_trial_number","onset","offset","attention_state","TD_target_position","TD_within_triplet_counter","participant","yoke_participant","responses","init_locations","moves","final_locations","question_order"
"true","fullscreen","0","153897","0.0-0.0","","","","","","","","","","","","","","","","","","","","","","",""
"","external-html","1","158633","0.0-1.0","4594.29999999702","https://ziweizhang0304.github.io/Stats_learning_trig/content/consent.html","","","","","","","","","","","","","","","","","","","","",""
"","instructions","2","166233","0.0-2.0","7599.5","","[{""page_index"":0,""viewing_time"":1043.5},{""page_index"":1,""viewing_time"":1837},{""page_index"":2,""viewing_time"":3757.7000000029802},{""page_index"":3,""viewing_time"":960.8999999910593}]","","","","","","","","","","","","","","","","","","","",""
"","image-keyboard-response","3","170518","0.0-3.0-0.0-0.0","4283.5","","","https://ziweizhang0304.github.io/Stats_learning_trig/img/Stim/FN_025_g.png","13","","","","","","","","","","","","","","","","","",""
"","animation","4","174938","0.0-3.0-0.0-1.0","","","","","","[{""stimulus"":""https://ziweizhang0304.github.io/Stats_learning_trig/img/Stim/FN_017_g.png"",""time"":348.20000000298023},{""stimulus"":""blank"",""time"":657.9000000059605},{""stimulus"":""https://ziweizhang0304.github.io/Stats_learning_trig/img/Stim/FN_008_g.png"",""time"":680.2999999970198},{""stimulus"":""blank"",""time"":981.7000000029802},{""stimulus"":""https://ziweizhang0304.github.io/Stats_learning_trig/img/Stim/FN_026_g.png"",""time"":1028.6000000089407},{""stimulus"":""blank"",""time"":1338.7999999970198},{""stimulus"":""https://ziweizhang0304.github.io/Stats_learning_trig/img/Stim/FN_013_g.png"",""time"":1360.2999999970198},{""stimulus"":""blank"",""time"":1665.7999999970198},{""stimulus"":""https://ziweizhang0304.github.io/Stats_learning_trig/img/Stim/FN_023_g.png"",""time"":1700.4000000059605},{""stimulus"":""blank"",""time"":2010.5},{""stimulus"":""https://ziweizhang0304.github.io/Stats_learning_trig/img/Stim/FN_025_g.png"",""time"":2049.9000000059605},{""stimulus"":""blank"",""time"":2351.7999999970198},{""stimulus"":""https://ziweizhang0304.github.io/Stats_learning_trig/img/Stim/FN_014_g.png"",""time"":2380.4000000059605},{""stimulus"":""blank"",""time"":2693.6000000089407},{""stimulus"":""https://ziweizhang0304.github.io/Stats_learning_trig/img/Stim/FN_022_g.png"",""time"":2721.2000000029802},{""stimulus"":""blank"",""time"":3021.5},{""stimulus"":""https://ziweizhang0304.github.io/Stats_learning_trig/img/Stim/FN_019_g.png"",""time"":3060.4000000059605},{""stimulus"":""blank"",""time"":3365.4000000059605},{""stimulus"":""https://ziweizhang0304.github.io/Stats_learning_trig/img/Stim/FN_020_g.png"",""time"":3400.4000000059605},{""stimulus"":""blank"",""time"":3708.4000000059605},{""stimulus"":""https://ziweizhang0304.github.io/Stats_learning_trig/img/Stim/FN_018_g.png"",""time"":3741.2000000029802},{""stimulus"":""blank"",""time"":4050.9000000059605},{""stimulus"":""https://ziweizhang0304.github.io/Stats_learning_trig/img/Stim/FN_003_g.png"",""time"":4081},{""stimulus"":""blank"",""time"":4396.29999999702}]","[{""key_press"":32,""rt"":2541.0999999940395,""stimulus"":""https://ziweizhang0304.github.io/Stats_learning_trig/img/Stim/FN_014_g.png""}]","491.19999998807907","https://ziweizhang0304.github.io/Stats_learning_trig/img/Stim/FN_025_g.png","post_prac","","","","","","","","","","","","",""
"","html-keyboard-response","5","179147","0.0-3.0-0.0-2.0","4206.600000008941","","","<p>Your reaction time for this trial was 491.2 ms.</p><p>Remember that you should only press the SPACEBAR when you see the shape presented at the beginning of the trial. </b> </p><p>Press enter to move on.</p>","13","","","","","","","","","","","","","","","","","",""
"","image-keyboard-response","6","181205","0.0-3.0-1.0-0.0","2058.0999999940395","","","https://ziweizhang0304.github.io/Stats_learning_trig/img/Stim/FN_013_g.png","13","","","","","","","","","","","","","","","","","",""
"","animation","7","185626","0.0-3.0-1.0-1.0","","","","","","[{""stimulus"":""https://ziweizhang0304.github.io/Stats_learning_trig/img/Stim/FN_026_g.png"",""time"":350.69999998807907},{""stimulus"":""blank"",""time"":660.8999999910593},{""stimulus"":""https://ziweizhang0304.github.io/Stats_learning_trig/img/Stim/FN_017_g.png"",""time"":681},{""stimulus"":""blank"",""time"":987.5},{""stimulus"":""https://ziweizhang0304.github.io/Stats_learning_trig/img/Stim/FN_020_g.png"",""time"":1020.5999999940395},{""stimulus"":""blank"",""time"":1331.5},{""stimulus"":""https://ziweizhang0304.github.io/Stats_learning_trig/img/Stim/FN_008_g.png"",""time"":1361},{""stimulus"":""blank"",""time"":1672.2999999970198},{""stimulus"":""https://ziweizhang0304.github.io/Stats_learning_trig/img/Stim/FN_013_g.png"",""time"":1701.5},{""stimulus"":""blank"",""time"":2016.3999999910593},{""stimulus"":""https://ziweizhang0304.github.io/Stats_learning_trig/img/Stim/FN_025_g.png"",""time"":2041.5},{""stimulus"":""blank"",""time"":2344.8999999910593},{""stimulus"":""https://ziweizhang0304.github.io/Stats_learning_trig/img/Stim/FN_003_g.png"",""time"":2385.699999988079},{""stimulus"":""blank"",""time"":2687},{""stimulus"":""https://ziweizhang0304.github.io/Stats_learning_trig/img/Stim/FN_019_g.png"",""time"":2721.5},{""stimulus"":""blank"",""time"":3026.2999999970198},{""stimulus"":""https://ziweizhang0304.github.io/Stats_learning_trig/img/Stim/FN_014_g.png"",""time"":3061},{""stimulus"":""blank"",""time"":3370.3999999910593},{""stimulus"":""https://ziweizhang0304.github.io/Stats_learning_trig/img/Stim/FN_022_g.png"",""time"":3400.5999999940395},{""stimulus"":""blank"",""time"":3713.2999999970198},{""stimulus"":""https://ziweizhang0304.github.io/Stats_learning_trig/img/Stim/FN_018_g.png"",""time"":3740.5},{""stimulus"":""blank"",""time"":4055.2999999970198},{""stimulus"":""https://ziweizhang0304.github.io/Stats_learning_trig/img/Stim/FN_023_g.png"",""time"":4080.5},{""stimulus"":""blank"",""time"":4382.0999999940395}]","[{""key_press"":32,""rt"":1165.5,""stimulus"":""https://ziweizhang0304.github.io/Stats_learning_trig/img/Stim/FN_020_g.png""},{""key_press"":32,""rt"":2293.7000000029802,""stimulus"":""https://ziweizhang0304.github.io/Stats_learning_trig/img/Stim/FN_025_g.png""},{""key_press"":32,""rt"":4367.5,""stimulus"":""https://ziweizhang0304.github.io/Stats_learning_trig/img/Stim/FN_023_g.png""}]","592.2000000029802","https://ziweizhang0304.github.io/Stats_learning_trig/img/Stim/FN_013_g.png","post_prac","","","","","","","","","","","","",""
"","html-keyboard-response","8","188075","0.0-3.0-1.0-2.0","2448.5999999940395","","","<p>Your reaction time for this trial was 592.2 ms.</p><p>Remember that you should only press the SPACEBAR when you see the shape presented at the beginning of the trial. </b> </p><p>Press enter to move on.</p>","13","","","","","","","","","","","","","","","","","",""
"","image-keyboard-response","9","190500","0.0-3.0-2.0-0.0","2423.7999999970198","","","https://ziweizhang0304.github.io/Stats_learning_trig/img/Stim/FN_008_g.png","13","","","","","","","","","","","","","","","","","",""
"","animation","10","194920","0.0-3.0-2.0-1.0","","","","","","[{""stimulus"":""https://ziweizhang0304.github.io/Stats_learning_trig/img/Stim/FN_018_g.png"",""time"":348.20000000298023},{""stimulus"":""blank"",""time"":658.8999999910593},{""stimulus"":""https://ziweizhang0304.github.io/Stats_learning_trig/img/Stim/FN_017_g.png"",""time"":680.8999999910593},{""stimulus"":""blank"",""time"":985.3999999910593},{""stimulus"":""https://ziweizhang0304.github.io/Stats_learning_trig/img/Stim/FN_019_g.png"",""time"":1031.8999999910593},{""stimulus"":""blank"",""time"":1344.2000000029802},{""stimulus"":""https://ziweizhang0304.github.io/Stats_learning_trig/img/Stim/FN_003_g.png"",""time"":1360.8999999910593},{""stimulus"":""blank"",""time"":1670.2999999970198},{""stimulus"":""https://ziweizhang0304.github.io/Stats_learning_trig/img/Stim/FN_022_g.png"",""time"":1701.5999999940395},{""stimulus"":""blank"",""time"":2014.2999999970198},{""stimulus"":""https://ziweizhang0304.github.io/Stats_learning_trig/img/Stim/FN_008_g.png"",""time"":2046.0999999940395},{""stimulus"":""blank"",""time"":2356.2999999970198},{""stimulus"":""https://ziweizhang0304.github.io/Stats_learning_trig/img/Stim/FN_013_g.png"",""time"":2381.5},{""stimulus"":""blank"",""time"":2696.5},{""stimulus"":""https://ziweizhang0304.github.io/Stats_learning_trig/img/Stim/FN_025_g.png"",""time"":2720.8999999910593},{""stimulus"":""blank"",""time"":3023.2000000029802},{""stimulus"":""https://ziweizhang0304.github.io/Stats_learning_trig/img/Stim/FN_020_g.png"",""time"":3060.8999999910593},{""stimulus"":""blank"",""time"":3363.7000000029802},{""stimulus"":""https://ziweizhang0304.github.io/Stats_learning_trig/img/Stim/FN_014_g.png"",""time"":3400.7999999970198},{""stimulus"":""blank"",""time"":3704.5999999940395},{""stimulus"":""https://ziweizhang0304.github.io/Stats_learning_trig/img/Stim/FN_026_g.png"",""time"":3751},{""stimulus"":""blank"",""time"":4061.3999999910593},{""stimulus"":""https://ziweizhang0304.github.io/Stats_learning_trig/img/Stim/FN_023_g.png"",""time"":4080.5},{""stimulus"":""blank"",""time"":4389.0999999940395}]","[{""key_press"":32,""rt"":2427.0999999940395,""stimulus"":""https://ziweizhang0304.github.io/Stats_learning_trig/img/Stim/FN_013_g.png""}]","381","https://ziweizhang0304.github.io/Stats_learning_trig/img/Stim/FN_008_g.png","post_prac","","","","","","","","","","","","",""
"","html-keyboard-response","11","197221","0.0-3.0-2.0-2.0","2300.1000000089407","","","<p>Your reaction time for this trial was 381 ms.</p><p>Remember that you should only press the SPACEBAR when you see the shape presented at the beginning of the trial. </b> </p><p>Press enter to move on.</p>","13","","","","","","","","","","","","","","","","","",""
"","instructions","12","199153","0.0-4.0","1931.5","","[{""page_index"":0,""viewing_time"":1931.3999999910593}]","","","","","","","","","","","","","","","","","","","",""
"","image-keyboard-response","13","201589","0.0-5.0-0.0-0.0","2435.0999999940395","","","https://ziweizhang0304.github.io/Stats_learning_trig/img/Stim/FN_025_g.png","13","","","","","","","","","","","","","","","","","",""
"","animation","14","206009","0.0-5.0-0.0-1.0","","","","","","[{""stimulus"":""https://ziweizhang0304.github.io/Stats_learning_trig/img/Stim/FN_018_g.png"",""time"":344.20000000298023},{""stimulus"":""blank"",""time"":653.2999999970198},{""stimulus"":""https://ziweizhang0304.github.io/Stats_learning_trig/img/Stim/FN_017_g.png"",""time"":685},{""stimulus"":""blank"",""time"":997.2999999970198},{""stimulus"":""https://ziweizhang0304.github.io/Stats_learning_trig/img/Stim/FN_019_g.png"",""time"":1020.6000000089407},{""stimulus"":""blank"",""time"":1324.7999999970198},{""stimulus"":""https://ziweizhang0304.github.io/Stats_learning_trig/img/Stim/FN_003_g.png"",""time"":1360.7999999970198},{""stimulus"":""blank"",""time"":1666.2000000029802},{""stimulus"":""https://ziweizhang0304.github.io/Stats_learning_trig/img/Stim/FN_022_g.png"",""time"":1700.7999999970198},{""stimulus"":""blank"",""time"":2010.2999999970198},{""stimulus"":""https://ziweizhang0304.github.io/Stats_learning_trig/img/Stim/FN_008_g.png"",""time"":2041.4000000059605},{""stimulus"":""blank"",""time"":2352.2000000029802},{""stimulus"":""https://ziweizhang0304.github.io/Stats_learning_trig/img/Stim/FN_013_g.png"",""time"":2383.9000000059605},{""stimulus"":""blank"",""time"":2692.9000000059605},{""stimulus"":""https://ziweizhang0304.github.io/Stats_learning_trig/img/Stim/FN_025_g.png"",""time"":2720.7000000029802},{""stimulus"":""blank"",""time"":3036.7000000029802},{""stimulus"":""https://ziweizhang0304.github.io/Stats_learning_trig/img/Stim/FN_020_g.png"",""time"":3062.2000000029802},{""stimulus"":""blank"",""time"":3363.6000000089407},{""stimulus"":""https://ziweizhang0304.github.io/Stats_learning_trig/img/Stim/FN_014_g.png"",""time"":3401},{""stimulus"":""blank"",""time"":3705.6000000089407},{""stimulus"":""https://ziweizhang0304.github.io/Stats_learning_trig/img/Stim/FN_026_g.png"",""time"":3752.9000000059605},{""stimulus"":""blank"",""time"":4063.6000000089407},{""stimulus"":""https://ziweizhang0304.github.io/Stats_learning_trig/img/Stim/FN_023_g.png"",""time"":4080.7000000029802},{""stimulus"":""blank"",""time"":4390.600000008941}]","[{""key_press"":32,""rt"":3075,""stimulus"":""https://ziweizhang0304.github.io/Stats_learning_trig/img/Stim/FN_020_g.png""}]","354.29999999701977","https://ziweizhang0304.github.io/Stats_learning_trig/img/Stim/FN_025_g.png","post_TD","1","2720.7000000029802","3075","slow","8","3","5e4b793f03c92a08a6d28e3f","","","","","",""
"","image-keyboard-response","15","207279","0.0-5.0-1.0-0.0","1269.0999999940395","","","https://ziweizhang0304.github.io/Stats_learning_trig/img/Stim/FN_007_g.png","13","","","","","","","","","","","","","","","","","",""
"","animation","16","211700","0.0-5.0-1.0-1.0","","","","","","[{""stimulus"":""https://ziweizhang0304.github.io/Stats_learning_trig/img/Stim/FN_014_g.png"",""time"":347.79999999701977},{""stimulus"":""blank"",""time"":659.7000000029802},{""stimulus"":""https://ziweizhang0304.github.io/Stats_learning_trig/img/Stim/FN_020_g.png"",""time"":680.5},{""stimulus"":""blank"",""time"":987.5999999940395},{""stimulus"":""https://ziweizhang0304.github.io/Stats_learning_trig/img/Stim/FN_023_g.png"",""time"":1022.2999999970198},{""stimulus"":""blank"",""time"":1332.5},{""stimulus"":""https://ziweizhang0304.github.io/Stats_learning_trig/img/Stim/FN_019_g.png"",""time"":1360.7000000029802},{""stimulus"":""blank"",""time"":1675},{""stimulus"":""https://ziweizhang0304.github.io/Stats_learning_trig/img/Stim/FN_017_g.png"",""time"":1700.7999999970198},{""stimulus"":""blank"",""time"":2004.7000000029802},{""stimulus"":""https://ziweizhang0304.github.io/Stats_learning_trig/img/Stim/FN_007_g.png"",""time"":2051.7999999970198},{""stimulus"":""blank"",""time"":2365.5999999940395},{""stimulus"":""https://ziweizhang0304.github.io/Stats_learning_trig/img/Stim/FN_009_g.png"",""time"":2380.7999999970198},{""stimulus"":""blank"",""time"":2689.5999999940395},{""stimulus"":""https://ziweizhang0304.github.io/Stats_learning_trig/img/Stim/FN_015_g.png"",""time"":2721.2000000029802},{""stimulus"":""blank"",""time"":3030.0999999940395},{""stimulus"":""https://ziweizhang0304.github.io/Stats_learning_trig/img/Stim/FN_003_g.png"",""time"":3061.7000000029802},{""stimulus"":""blank"",""time"":3371.5},{""stimulus"":""https://ziweizhang0304.github.io/Stats_learning_trig/img/Stim/FN_022_g.png"",""time"":3402.8999999910593},{""stimulus"":""blank"",""time"":3717.5},{""stimulus"":""https://ziweizhang0304.github.io/Stats_learning_trig/img/Stim/FN_018_g.png"",""time"":3749.2000000029802},{""stimulus"":""blank"",""time"":4059.7999999970198},{""stimulus"":""https://ziweizhang0304.github.io/Stats_learning_trig/img/Stim/FN_026_g.png"",""time"":4080.5},{""stimulus"":""blank"",""time"":4386.5999999940395}]","[{""key_press"":32,""rt"":2405.6000000089407,""stimulus"":""https://ziweizhang0304.github.io/Stats_learning_trig/img/Stim/FN_009_g.png""}]","353.80000001192093","https://ziweizhang0304.github.io/Stats_learning_trig/img/Stim/FN_007_g.png","post_TD","2","2051.7999999970198","2405.6000000089407","fast","6","1","5e4b793f03c92a08a6d28e3f","","","","","",""
"","image-keyboard-response","17","212670","0.0-5.0-2.0-0.0","968.6999999880791","","","https://ziweizhang0304.github.io/Stats_learning_trig/img/Stim/FN_009_g.png","13","","","","","","","","","","","","","","","","","",""
"","animation","18","217090","0.0-5.0-2.0-1.0","","","","","","[{""stimulus"":""https://ziweizhang0304.github.io/Stats_learning_trig/img/Stim/FN_023_g.png"",""time"":353.5},{""stimulus"":""blank"",""time"":663.2999999970198},{""stimulus"":""https://ziweizhang0304.github.io/Stats_learning_trig/img/Stim/FN_017_g.png"",""time"":680.7999999970198},{""stimulus"":""blank"",""time"":990.2999999970198},{""stimulus"":""https://ziweizhang0304.github.io/Stats_learning_trig/img/Stim/FN_003_g.png"",""time"":1020.7000000029802},{""stimulus"":""blank"",""time"":1334},{""stimulus"":""https://ziweizhang0304.github.io/Stats_learning_trig/img/Stim/FN_026_g.png"",""time"":1360.7999999970198},{""stimulus"":""blank"",""time"":1674.0999999940395},{""stimulus"":""https://ziweizhang0304.github.io/Stats_learning_trig/img/Stim/FN_007_g.png"",""time"":1705.7999999970198},{""stimulus"":""blank"",""time"":2015.0999999940395},{""stimulus"":""https://ziweizhang0304.github.io/Stats_learning_trig/img/Stim/FN_009_g.png"",""time"":2040.2999999970198},{""stimulus"":""blank"",""time"":2341.5999999940395},{""stimulus"":""https://ziweizhang0304.github.io/Stats_learning_trig/img/Stim/FN_015_g.png"",""time"":2381.0999999940395},{""stimulus"":""blank"",""time"":2684},{""stimulus"":""https://ziweizhang0304.github.io/Stats_learning_trig/img/Stim/FN_020_g.png"",""time"":2720.7000000029802},{""stimulus"":""blank"",""time"":3027.7000000029802},{""stimulus"":""https://ziweizhang0304.github.io/Stats_learning_trig/img/Stim/FN_019_g.png"",""time"":3074.2999999970198},{""stimulus"":""blank"",""time"":3384.5},{""stimulus"":""https://ziweizhang0304.github.io/Stats_learning_trig/img/Stim/FN_014_g.png"",""time"":3400.5999999940395},{""stimulus"":""blank"",""time"":3711.2000000029802},{""stimulus"":""https://ziweizhang0304.github.io/Stats_learning_trig/img/Stim/FN_022_g.png"",""time"":3741.2999999970198},{""stimulus"":""blank"",""time"":4050.0999999940395},{""stimulus"":""https://ziweizhang0304.github.io/Stats_learning_trig/img/Stim/FN_018_g.png"",""time"":4080.7999999970198},{""stimulus"":""blank"",""time"":4392.5999999940395}]","[{""key_press"":32,""rt"":2406.2999999970198,""stimulus"":""https://ziweizhang0304.github.io/Stats_learning_trig/img/Stim/FN_015_g.png""}]","366","https://ziweizhang0304.github.io/Stats_learning_trig/img/Stim/FN_009_g.png","post_TD","3","2040.2999999970198","2406.2999999970198","fast","6","2","5e4b793f03c92a08a6d28e3f","","","","","",""
"","image-keyboard-response","19","219499","0.0-5.0-3.0-0.0","2408.1000000089407","","","https://ziweizhang0304.github.io/Stats_learning_trig/img/Stim/FN_013_g.png","13","","","","","","","","","","","","","","","","","",""
"","animation","20","223924","0.0-5.0-3.0-1.0","","","","","","[{""stimulus"":""https://ziweizhang0304.github.io/Stats_learning_trig/img/Stim/FN_018_g.png"",""time"":346},{""stimulus"":""blank"",""time"":658.5999999940395},{""stimulus"":""https://ziweizhang0304.github.io/Stats_learning_trig/img/Stim/FN_017_g.png"",""time"":680.7999999970198},{""stimulus"":""blank"",""time"":987.0999999940395},{""stimulus"":""https://ziweizhang0304.github.io/Stats_learning_trig/img/Stim/FN_019_g.png"",""time"":1032.5999999940395},{""stimulus"":""blank"",""time"":1344.5},{""stimulus"":""https://ziweizhang0304.github.io/Stats_learning_trig/img/Stim/FN_003_g.png"",""time"":1362.2000000029802},{""stimulus"":""blank"",""time"":1672.0999999940395},{""stimulus"":""https://ziweizhang0304.github.io/Stats_learning_trig/img/Stim/FN_022_g.png"",""time"":1701.0999999940395},{""stimulus"":""blank"",""time"":2014.7999999970198},{""stimulus"":""https://ziweizhang0304.github.io/Stats_learning_trig/img/Stim/FN_008_g.png"",""time"":2041.0999999940395},{""stimulus"":""blank"",""time"":2342.7000000029802},{""stimulus"":""https://ziweizhang0304.github.io/Stats_learning_trig/img/Stim/FN_013_g.png"",""time"":2389.5},{""stimulus"":""blank"",""time"":2698.0999999940395},{""stimulus"":""https://ziweizhang0304.github.io/Stats_learning_trig/img/Stim/FN_025_g.png"",""time"":2720.2999999970198},{""stimulus"":""blank"",""time"":3021.0999999940395},{""stimulus"":""https://ziweizhang0304.github.io/Stats_learning_trig/img/Stim/FN_020_g.png"",""time"":3067.2999999970198},{""stimulus"":""blank"",""time"":3378.0999999940395},{""stimulus"":""https://ziweizhang0304.github.io/Stats_learning_trig/img/Stim/FN_014_g.png"",""time"":3401.2000000029802},{""stimulus"":""blank"",""time"":3705.5999999940395},{""stimulus"":""https://ziweizhang0304.github.io/Stats_learning_trig/img/Stim/FN_026_g.png"",""time"":3740.8999999910593},{""stimulus"":""blank"",""time"":4050},{""stimulus"":""https://ziweizhang0304.github.io/Stats_learning_trig/img/Stim/FN_023_g.png"",""time"":4080.7999999970198},{""stimulus"":""blank"",""time"":4392.5999999940395}]","[{""key_press"":32,""rt"":2782.4000000059605,""stimulus"":""https://ziweizhang0304.github.io/Stats_learning_trig/img/Stim/FN_025_g.png""}]","392.90000000596046","https://ziweizhang0304.github.io/Stats_learning_trig/img/Stim/FN_013_g.png","post_TD","4","2389.5","2782.4000000059605","slow","7","2","5e4b793f03c92a08a6d28e3f","","","","","",""
"","image-keyboard-response","21","225503","0.0-5.0-4.0-0.0","1577.7999999970198","","","https://ziweizhang0304.github.io/Stats_learning_trig/img/Stim/FN_008_g.png","13","","","","","","","","","","","","","","","","","",""
"","animation","22","229924","0.0-5.0-4.0-1.0","","","","","","[{""stimulus"":""https://ziweizhang0304.github.io/Stats_learning_trig/img/Stim/FN_014_g.png"",""time"":348.90000000596046},{""stimulus"":""blank"",""time"":662},{""stimulus"":""https://ziweizhang0304.github.io/Stats_learning_trig/img/Stim/FN_003_g.png"",""time"":680.6000000089407},{""stimulus"":""blank"",""time"":990},{""stimulus"":""https://ziweizhang0304.github.io/Stats_learning_trig/img/Stim/FN_026_g.png"",""time"":1020.5},{""stimulus"":""blank"",""time"":1334.6000000089407},{""stimulus"":""https://ziweizhang0304.github.io/Stats_learning_trig/img/Stim/FN_019_g.png"",""time"":1360.6000000089407},{""stimulus"":""blank"",""time"":1676.6000000089407},{""stimulus"":""https://ziweizhang0304.github.io/Stats_learning_trig/img/Stim/FN_008_g.png"",""time"":1707},{""stimulus"":""blank"",""time"":2019.4000000059605},{""stimulus"":""https://ziweizhang0304.github.io/Stats_learning_trig/img/Stim/FN_013_g.png"",""time"":2041.2000000029802},{""stimulus"":""blank"",""time"":2350.5},{""stimulus"":""https://ziweizhang0304.github.io/Stats_learning_trig/img/Stim/FN_025_g.png"",""time"":2381},{""stimulus"":""blank"",""time"":2691.5},{""stimulus"":""https://ziweizhang0304.github.io/Stats_learning_trig/img/Stim/FN_020_g.png"",""time"":2720.7000000029802},{""stimulus"":""blank"",""time"":3030.800000011921},{""stimulus"":""https://ziweizhang0304.github.io/Stats_learning_trig/img/Stim/FN_022_g.png"",""time"":3060.4000000059605},{""stimulus"":""blank"",""time"":3373.4000000059605},{""stimulus"":""https://ziweizhang0304.github.io/Stats_learning_trig/img/Stim/FN_018_g.png"",""time"":3405.2000000029802},{""stimulus"":""blank"",""time"":3715.6000000089407},{""stimulus"":""https://ziweizhang0304.github.io/Stats_learning_trig/img/Stim/FN_017_g.png"",""time"":3741.800000011921},{""stimulus"":""blank"",""time"":4057},{""stimulus"":""https://ziweizhang0304.github.io/Stats_learning_trig/img/Stim/FN_023_g.png"",""time"":4080.6000000089407},{""stimulus"":""blank"",""time"":4385.800000011921}]","[{""key_press"":32,""rt"":2121.1000000089407,""stimulus"":""https://ziweizhang0304.github.io/Stats_learning_trig/img/Stim/FN_013_g.png""}]","414.1000000089407","https://ziweizhang0304.github.io/Stats_learning_trig/img/Stim/FN_008_g.png","post_TD","5","1707","2121.1000000089407","slow","5","1","5e4b793f03c92a08a6d28e3f","","","","","",""
"","image-keyboard-response","23","230547","0.0-5.0-5.0-0.0","622.6000000089407","","","https://ziweizhang0304.github.io/Stats_learning_trig/img/Stim/FN_008_g.png","13","","","","","","","","","","","","","","","","","",""
"","animation","24","234968","0.0-5.0-5.0-1.0","","","","","","[{""stimulus"":""https://ziweizhang0304.github.io/Stats_learning_trig/img/Stim/FN_026_g.png"",""time"":354.29999999701977},{""stimulus"":""blank"",""time"":665.7999999970198},{""stimulus"":""https://ziweizhang0304.github.io/Stats_learning_trig/img/Stim/FN_017_g.png"",""time"":681},{""stimulus"":""blank"",""time"":993.2000000029802},{""stimulus"":""https://ziweizhang0304.github.io/Stats_learning_trig/img/Stim/FN_020_g.png"",""time"":1020.5},{""stimulus"":""blank"",""time"":1336},{""stimulus"":""https://ziweizhang0304.github.io/Stats_learning_trig/img/Stim/FN_008_g.png"",""time"":1360.9000000059605},{""stimulus"":""blank"",""time"":1677},{""stimulus"":""https://ziweizhang0304.github.io/Stats_learning_trig/img/Stim/FN_013_g.png"",""time"":1701.5999999940395},{""stimulus"":""blank"",""time"":2004.2000000029802},{""stimulus"":""https://ziweizhang0304.github.io/Stats_learning_trig/img/Stim/FN_025_g.png"",""time"":2041.5},{""stimulus"":""blank"",""time"":2346.7999999970198},{""stimulus"":""https://ziweizhang0304.github.io/Stats_learning_trig/img/Stim/FN_003_g.png"",""time"":2394.7000000029802},{""stimulus"":""blank"",""time"":2704.7999999970198},{""stimulus"":""https://ziweizhang0304.github.io/Stats_learning_trig/img/Stim/FN_019_g.png"",""time"":2720.5999999940395},{""stimulus"":""blank"",""time"":3032.7000000029802},{""stimulus"":""https://ziweizhang0304.github.io/Stats_learning_trig/img/Stim/FN_014_g.png"",""time"":3060.4000000059605},{""stimulus"":""blank"",""time"":3363.4000000059605},{""stimulus"":""https://ziweizhang0304.github.io/Stats_learning_trig/img/Stim/FN_022_g.png"",""time"":3401.4000000059605},{""stimulus"":""blank"",""time"":3705.7999999970198},{""stimulus"":""https://ziweizhang0304.github.io/Stats_learning_trig/img/Stim/FN_018_g.png"",""time"":3741.5},{""stimulus"":""blank"",""time"":4047.2000000029802},{""stimulus"":""https://ziweizhang0304.github.io/Stats_learning_trig/img/Stim/FN_023_g.png"",""time"":4080.4000000059605},{""stimulus"":""blank"",""time"":4390.9000000059605}]","[{""key_press"":32,""rt"":1737.7000000029802,""stimulus"":""https://ziweizhang0304.github.io/Stats_learning_trig/img/Stim/FN_013_g.png""}]","376.79999999701977","https://ziweizhang0304.github.io/Stats_learning_trig/img/Stim/FN_008_g.png","post_TD","6","1360.9000000059605","1737.7000000029802","slow","4","1","5e4b793f03c92a08a6d28e3f","","","","","",""
"","image-keyboard-response","25","235702","0.0-5.0-6.0-0.0","733.9000000059605","","","https://ziweizhang0304.github.io/Stats_learning_trig/img/Stim/FN_007_g.png","13","","","","","","","","","","","","","","","","","",""
"","animation","26","240123","0.0-5.0-6.0-1.0","","","","","","[{""stimulus"":""https://ziweizhang0304.github.io/Stats_learning_trig/img/Stim/FN_023_g.png"",""time"":345.29999999701977},{""stimulus"":""blank"",""time"":655.2999999970198},{""stimulus"":""https://ziweizhang0304.github.io/Stats_learning_trig/img/Stim/FN_017_g.png"",""time"":681.7999999970198},{""stimulus"":""blank"",""time"":994.7999999970198},{""stimulus"":""https://ziweizhang0304.github.io/Stats_learning_trig/img/Stim/FN_003_g.png"",""time"":1020.5},{""stimulus"":""blank"",""time"":1334.5999999940395},{""stimulus"":""https://ziweizhang0304.github.io/Stats_learning_trig/img/Stim/FN_026_g.png"",""time"":1360.5},{""stimulus"":""blank"",""time"":1671.199999988079},{""stimulus"":""https://ziweizhang0304.github.io/Stats_learning_trig/img/Stim/FN_007_g.png"",""time"":1700.8999999910593},{""stimulus"":""blank"",""time"":2016.699999988079},{""stimulus"":""https://ziweizhang0304.github.io/Stats_learning_trig/img/Stim/FN_009_g.png"",""time"":2041.3999999910593},{""stimulus"":""blank"",""time"":2344.3999999910593},{""stimulus"":""https://ziweizhang0304.github.io/Stats_learning_trig/img/Stim/FN_015_g.png"",""time"":2390.3999999910593},{""stimulus"":""blank"",""time"":2700.2999999970198},{""stimulus"":""https://ziweizhang0304.github.io/Stats_learning_trig/img/Stim/FN_020_g.png"",""time"":2720.7999999970198},{""stimulus"":""blank"",""time"":3025.199999988079},{""stimulus"":""https://ziweizhang0304.github.io/Stats_learning_trig/img/Stim/FN_019_g.png"",""time"":3061},{""stimulus"":""blank"",""time"":3367.699999988079},{""stimulus"":""https://ziweizhang0304.github.io/Stats_learning_trig/img/Stim/FN_014_g.png"",""time"":3401.5},{""stimulus"":""blank"",""time"":3710.699999988079},{""stimulus"":""https://ziweizhang0304.github.io/Stats_learning_trig/img/Stim/FN_022_g.png"",""time"":3741.3999999910593},{""stimulus"":""blank"",""time"":4055.7999999970198},{""stimulus"":""https://ziweizhang0304.github.io/Stats_learning_trig/img/Stim/FN_018_g.png"",""time"":4080.2999999970198},{""stimulus"":""blank"",""time"":4382.29999999702}]","[{""key_press"":32,""rt"":2056.0999999940395,""stimulus"":""https://ziweizhang0304.github.io/Stats_learning_trig/img/Stim/FN_009_g.png""}]","355.20000000298023","https://ziweizhang0304.github.io/Stats_learning_trig/img/Stim/FN_007_g.png","post_TD","7","1700.8999999910593","2056.0999999940395","fast","5","1","5e4b793f03c92a08a6d28e3f","","","","","",""
"","image-keyboard-response","27","240533","0.0-5.0-7.0-0.0","408.8999999910593","","","https://ziweizhang0304.github.io/Stats_learning_trig/img/Stim/FN_015_g.png","13","","","","","","","","","","","","","","","","","",""
"","animation","28","244954","0.0-5.0-7.0-1.0","","","","","","[{""stimulus"":""https://ziweizhang0304.github.io/Stats_learning_trig/img/Stim/FN_014_g.png"",""time"":341.90000000596046},{""stimulus"":""blank"",""time"":652.4000000059605},{""stimulus"":""https://ziweizhang0304.github.io/Stats_learning_trig/img/Stim/FN_020_g.png"",""time"":680.5},{""stimulus"":""blank"",""time"":995},{""stimulus"":""https://ziweizhang0304.github.io/Stats_learning_trig/img/Stim/FN_023_g.png"",""time"":1026.2999999970198},{""stimulus"":""blank"",""time"":1337.2000000029802},{""stimulus"":""https://ziweizhang0304.github.io/Stats_learning_trig/img/Stim/FN_019_g.png"",""time"":1361.2000000029802},{""stimulus"":""blank"",""time"":1665.2999999970198},{""stimulus"":""https://ziweizhang0304.github.io/Stats_learning_trig/img/Stim/FN_017_g.png"",""time"":1701},{""stimulus"":""blank"",""time"":2005.9000000059605},{""stimulus"":""https://ziweizhang0304.github.io/Stats_learning_trig/img/Stim/FN_007_g.png"",""time"":2040.2999999970198},{""stimulus"":""blank"",""time"":2347.5},{""stimulus"":""https://ziweizhang0304.github.io/Stats_learning_trig/img/Stim/FN_009_g.png"",""time"":2394.7999999970198},{""stimulus"":""blank"",""time"":2705.5999999940395},{""stimulus"":""https://ziweizhang0304.github.io/Stats_learning_trig/img/Stim/FN_015_g.png"",""time"":2721.2000000029802},{""stimulus"":""blank"",""time"":3030.7000000029802},{""stimulus"":""https://ziweizhang0304.github.io/Stats_learning_trig/img/Stim/FN_003_g.png"",""time"":3060.7000000029802},{""stimulus"":""blank"",""time"":3370.5},{""stimulus"":""https://ziweizhang0304.github.io/Stats_learning_trig/img/Stim/FN_022_g.png"",""time"":3400.9000000059605},{""stimulus"":""blank"",""time"":3715.2000000029802},{""stimulus"":""https://ziweizhang0304.github.io/Stats_learning_trig/img/Stim/FN_018_g.png"",""time"":3745.7999999970198},{""stimulus"":""blank"",""time"":4054.7000000029802},{""stimulus"":""https://ziweizhang0304.github.io/Stats_learning_trig/img/Stim/FN_026_g.png"",""time"":4080.7000000029802},{""stimulus"":""blank"",""time"":4396.4000000059605}]","[{""key_press"":32,""rt"":3122.5,""stimulus"":""https://ziweizhang0304.github.io/Stats_learning_trig/img/Stim/FN_003_g.png""}]","401.29999999701977","https://ziweizhang0304.github.io/Stats_learning_trig/img/Stim/FN_015_g.png","post_TD","8","2721.2000000029802","3122.5","fast","8","3","5e4b793f03c92a08a6d28e3f","","","","","",""
"","image-keyboard-response","29","245676","0.0-5.0-8.0-0.0","721.3999999910593","","","https://ziweizhang0304.github.io/Stats_learning_trig/img/Stim/FN_013_g.png","13","","","","","","","","","","","","","","","","","",""
"","animation","30","250098","0.0-5.0-8.0-1.0","","","","","","[{""stimulus"":""https://ziweizhang0304.github.io/Stats_learning_trig/img/Stim/FN_017_g.png"",""time"":356},{""stimulus"":""blank"",""time"":667.2999999970198},{""stimulus"":""https://ziweizhang0304.github.io/Stats_learning_trig/img/Stim/FN_019_g.png"",""time"":680.9000000059605},{""stimulus"":""blank"",""time"":995.5999999940395},{""stimulus"":""https://ziweizhang0304.github.io/Stats_learning_trig/img/Stim/FN_003_g.png"",""time"":1021.4000000059605},{""stimulus"":""blank"",""time"":1334.7000000029802},{""stimulus"":""https://ziweizhang0304.github.io/Stats_learning_trig/img/Stim/FN_020_g.png"",""time"":1360.4000000059605},{""stimulus"":""blank"",""time"":1662.2999999970198},{""stimulus"":""https://ziweizhang0304.github.io/Stats_learning_trig/img/Stim/FN_018_g.png"",""time"":1701.2999999970198},{""stimulus"":""blank"",""time"":2003.7999999970198},{""stimulus"":""https://ziweizhang0304.github.io/Stats_learning_trig/img/Stim/FN_022_g.png"",""time"":2040.4000000059605},{""stimulus"":""blank"",""time"":2346.5},{""stimulus"":""https://ziweizhang0304.github.io/Stats_learning_trig/img/Stim/FN_008_g.png"",""time"":2380.5},{""stimulus"":""blank"",""time"":2687.7999999970198},{""stimulus"":""https://ziweizhang0304.github.io/Stats_learning_trig/img/Stim/FN_013_g.png"",""time"":2720.4000000059605},{""stimulus"":""blank"",""time"":3027.7000000029802},{""stimulus"":""https://ziweizhang0304.github.io/Stats_learning_trig/img/Stim/FN_025_g.png"",""time"":3060.2999999970198},{""stimulus"":""blank"",""time"":3371.2000000029802},{""stimulus"":""https://ziweizhang0304.github.io/Stats_learning_trig/img/Stim/FN_014_g.png"",""time"":3400.7999999970198},{""stimulus"":""blank"",""time"":3714.4000000059605},{""stimulus"":""https://ziweizhang0304.github.io/Stats_learning_trig/img/Stim/FN_026_g.png"",""time"":3741.0999999940395},{""stimulus"":""blank"",""time"":4042.2000000029802},{""stimulus"":""https://ziweizhang0304.github.io/Stats_learning_trig/img/Stim/FN_023_g.png"",""time"":4080.4000000059605},{""stimulus"":""blank"",""time"":4383.79999999702}]","[{""key_press"":32,""rt"":3183,""stimulus"":""https://ziweizhang0304.github.io/Stats_learning_trig/img/Stim/FN_025_g.png""}]","462.59999999403954","https://ziweizhang0304.github.io/Stats_learning_trig/img/Stim/FN_013_g.png","post_TD","9","2720.4000000059605","3183","slow","8","2","5e4b793f03c92a08a6d28e3f","","","","","",""
"","image-keyboard-response","31","250786","0.0-5.0-9.0-0.0","687.5","","","https://ziweizhang0304.github.io/Stats_learning_trig/img/Stim/FN_015_g.png","13","","","","","","","","","","","","","","","","","",""
"","animation","32","255207","0.0-5.0-9.0-1.0","","","","","","[{""stimulus"":""https://ziweizhang0304.github.io/Stats_learning_trig/img/Stim/FN_023_g.png"",""time"":350.70000000298023},{""stimulus"":""blank"",""time"":661.7999999970198},{""stimulus"":""https://ziweizhang0304.github.io/Stats_learning_trig/img/Stim/FN_017_g.png"",""time"":680.9000000059605},{""stimulus"":""blank"",""time"":990.2999999970198},{""stimulus"":""https://ziweizhang0304.github.io/Stats_learning_trig/img/Stim/FN_003_g.png"",""time"":1020.9000000059605},{""stimulus"":""blank"",""time"":1331.4000000059605},{""stimulus"":""https://ziweizhang0304.github.io/Stats_learning_trig/img/Stim/FN_026_g.png"",""time"":1361.2000000029802},{""stimulus"":""blank"",""time"":1676.2000000029802},{""stimulus"":""https://ziweizhang0304.github.io/Stats_learning_trig/img/Stim/FN_007_g.png"",""time"":1701},{""stimulus"":""blank"",""time"":2002.2999999970198},{""stimulus"":""https://ziweizhang0304.github.io/Stats_learning_trig/img/Stim/FN_009_g.png"",""time"":2041.2999999970198},{""stimulus"":""blank"",""time"":2357.2000000029802},{""stimulus"":""https://ziweizhang0304.github.io/Stats_learning_trig/img/Stim/FN_015_g.png"",""time"":2380.7999999970198},{""stimulus"":""blank"",""time"":2683.4000000059605},{""stimulus"":""https://ziweizhang0304.github.io/Stats_learning_trig/img/Stim/FN_020_g.png"",""time"":2731.6000000089407},{""stimulus"":""blank"",""time"":3043.2999999970198},{""stimulus"":""https://ziweizhang0304.github.io/Stats_learning_trig/img/Stim/FN_019_g.png"",""time"":3060.7999999970198},{""stimulus"":""blank"",""time"":3370.2000000029802},{""stimulus"":""https://ziweizhang0304.github.io/Stats_learning_trig/img/Stim/FN_014_g.png"",""time"":3400.4000000059605},{""stimulus"":""blank"",""time"":3712.9000000059605},{""stimulus"":""https://ziweizhang0304.github.io/Stats_learning_trig/img/Stim/FN_022_g.png"",""time"":3741.7000000029802},{""stimulus"":""blank"",""time"":4054.9000000059605},{""stimulus"":""https://ziweizhang0304.github.io/Stats_learning_trig/img/Stim/FN_018_g.png"",""time"":4080.7999999970198},{""stimulus"":""blank"",""time"":4384.100000008941}]","[{""key_press"":32,""rt"":2786.5999999940395,""stimulus"":""https://ziweizhang0304.github.io/Stats_learning_trig/img/Stim/FN_020_g.png""}]","405.79999999701977","https://ziweizhang0304.github.io/Stats_learning_trig/img/Stim/FN_015_g.png","post_TD","10","2380.7999999970198","2786.5999999940395","fast","7","3","5e4b793f03c92a08a6d28e3f","","","","","",""
"","image-keyboard-response","33","255941","0.0-5.0-10.0-0.0","733.5","","","https://ziweizhang0304.github.io/Stats_learning_trig/img/Stim/FN_015_g.png","13","","","","","","","","","","","","","","","","","",""
"","animation","34","260362","0.0-5.0-10.0-1.0","","","","","","[{""stimulus"":""https://ziweizhang0304.github.io/Stats_learning_trig/img/Stim/FN_017_g.png"",""time"":351.8999999910593},{""stimulus"":""blank"",""time"":662.5},{""stimulus"":""https://ziweizhang0304.github.io/Stats_learning_trig/img/Stim/FN_014_g.png"",""time"":682.1999999880791},{""stimulus"":""blank"",""time"":990.5},{""stimulus"":""https://ziweizhang0304.github.io/Stats_learning_trig/img/Stim/FN_026_g.png"",""time"":1026},{""stimulus"":""blank"",""time"":1333},{""stimulus"":""https://ziweizhang0304.github.io/Stats_learning_trig/img/Stim/FN_019_g.png"",""time"":1360.7999999970198},{""stimulus"":""blank"",""time"":1672},{""stimulus"":""https://ziweizhang0304.github.io/Stats_learning_trig/img/Stim/FN_018_g.png"",""time"":1700.699999988079},{""stimulus"":""blank"",""time"":2014},{""stimulus"":""https://ziweizhang0304.github.io/Stats_learning_trig/img/Stim/FN_020_g.png"",""time"":2042.0999999940395},{""stimulus"":""blank"",""time"":2356.5},{""stimulus"":""https://ziweizhang0304.github.io/Stats_learning_trig/img/Stim/FN_007_g.png"",""time"":2388},{""stimulus"":""blank"",""time"":2700.7999999970198},{""stimulus"":""https://ziweizhang0304.github.io/Stats_learning_trig/img/Stim/FN_009_g.png"",""time"":2720.8999999910593},{""stimulus"":""blank"",""time"":3029.3999999910593},{""stimulus"":""https://ziweizhang0304.github.io/Stats_learning_trig/img/Stim/FN_015_g.png"",""time"":3061.0999999940395},{""stimulus"":""blank"",""time"":3372.5},{""stimulus"":""https://ziweizhang0304.github.io/Stats_learning_trig/img/Stim/FN_003_g.png"",""time"":3400.699999988079},{""stimulus"":""blank"",""time"":3701.3999999910593},{""stimulus"":""https://ziweizhang0304.github.io/Stats_learning_trig/img/Stim/FN_022_g.png"",""time"":3750},{""stimulus"":""blank"",""time"":4058.5999999940395},{""stimulus"":""https://ziweizhang0304.github.io/Stats_learning_trig/img/Stim/FN_023_g.png"",""time"":4089.699999988079},{""stimulus"":""blank"",""time"":4402.79999999702}]","[{""key_press"":32,""rt"":3375.8999999910593,""stimulus"":""blank""}]","314.79999999701977","https://ziweizhang0304.github.io/Stats_learning_trig/img/Stim/FN_015_g.png","post_TD","11","3061.0999999940395","3375.8999999910593","fast","9","3","5e4b793f03c92a08a6d28e3f","","","","","",""
"","image-keyboard-response","35","260978","0.0-5.0-11.0-0.0","615.2000000029802","","","https://ziweizhang0304.github.io/Stats_learning_trig/img/Stim/FN_025_g.png","13","","","","","","","","","","","","","","","","","",""
"","animation","36","265399","0.0-5.0-11.0-1.0","","","","","","[{""stimulus"":""https://ziweizhang0304.github.io/Stats_learning_trig/img/Stim/FN_017_g.png"",""time"":347.29999999701977},{""stimulus"":""blank"",""time"":657.8999999910593},{""stimulus"":""https://ziweizhang0304.github.io/Stats_learning_trig/img/Stim/FN_019_g.png"",""time"":682},{""stimulus"":""blank"",""time"":997.8999999910593},{""stimulus"":""https://ziweizhang0304.github.io/Stats_learning_trig/img/Stim/FN_003_g.png"",""time"":1021.3999999910593},{""stimulus"":""blank"",""time"":1324.199999988079},{""stimulus"":""https://ziweizhang0304.github.io/Stats_learning_trig/img/Stim/FN_020_g.png"",""time"":1360.7999999970198},{""stimulus"":""blank"",""time"":1669.699999988079},{""stimulus"":""https://ziweizhang0304.github.io/Stats_learning_trig/img/Stim/FN_018_g.png"",""time"":1702.199999988079},{""stimulus"":""blank"",""time"":2012.699999988079},{""stimulus"":""https://ziweizhang0304.github.io/Stats_learning_trig/img/Stim/FN_022_g.png"",""time"":2040.2999999970198},{""stimulus"":""blank"",""time"":2354.2999999970198},{""stimulus"":""https://ziweizhang0304.github.io/Stats_learning_trig/img/Stim/FN_008_g.png"",""time"":2380.8999999910593},{""stimulus"":""blank"",""time"":2696.5999999940395},{""stimulus"":""https://ziweizhang0304.github.io/Stats_learning_trig/img/Stim/FN_013_g.png"",""time"":2721.2999999970198},{""stimulus"":""blank"",""time"":3035.5999999940395},{""stimulus"":""https://ziweizhang0304.github.io/Stats_learning_trig/img/Stim/FN_025_g.png"",""time"":3060.7999999970198},{""stimulus"":""blank"",""time"":3363.199999988079},{""stimulus"":""https://ziweizhang0304.github.io/Stats_learning_trig/img/Stim/FN_014_g.png"",""time"":3400.8999999910593},{""stimulus"":""blank"",""time"":3705.8999999910593},{""stimulus"":""https://ziweizhang0304.github.io/Stats_learning_trig/img/Stim/FN_026_g.png"",""time"":3740.5999999940395},{""stimulus"":""blank"",""time"":4050.5999999940395},{""stimulus"":""https://ziweizhang0304.github.io/Stats_learning_trig/img/Stim/FN_023_g.png"",""time"":4081.3999999910593},{""stimulus"":""blank"",""time"":4394.5999999940395}]","[{""key_press"":32,""rt"":3371.5,""stimulus"":""blank""}]","310.70000000298023","https://ziweizhang0304.github.io/Stats_learning_trig/img/Stim/FN_025_g.png","post_TD","12","3060.7999999970198","3371.5","slow","9","3","5e4b793f03c92a08a6d28e3f","","","","","",""
"","image-keyboard-response","37","265989","0.0-5.0-12.0-0.0","588.5","","","https://ziweizhang0304.github.io/Stats_learning_trig/img/Stim/FN_015_g.png","13","","","","","","","","","","","","","","","","","",""
"","animation","38","270410","0.0-5.0-12.0-1.0","","","","","","[{""stimulus"":""https://ziweizhang0304.github.io/Stats_learning_trig/img/Stim/FN_023_g.png"",""time"":350.79999999701977},{""stimulus"":""blank"",""time"":661.2000000029802},{""stimulus"":""https://ziweizhang0304.github.io/Stats_learning_trig/img/Stim/FN_019_g.png"",""time"":680.9000000059605},{""stimulus"":""blank"",""time"":988.4000000059605},{""stimulus"":""https://ziweizhang0304.github.io/Stats_learning_trig/img/Stim/FN_018_g.png"",""time"":1021},{""stimulus"":""blank"",""time"":1331.7000000029802},{""stimulus"":""https://ziweizhang0304.github.io/Stats_learning_trig/img/Stim/FN_007_g.png"",""time"":1361.2000000029802},{""stimulus"":""blank"",""time"":1674.2000000029802},{""stimulus"":""https://ziweizhang0304.github.io/Stats_learning_trig/img/Stim/FN_009_g.png"",""time"":1704.9000000059605},{""stimulus"":""blank"",""time"":2013.2000000029802},{""stimulus"":""https://ziweizhang0304.github.io/Stats_learning_trig/img/Stim/FN_015_g.png"",""time"":2041.7999999970198},{""stimulus"":""blank"",""time"":2355.4000000059605},{""stimulus"":""https://ziweizhang0304.github.io/Stats_learning_trig/img/Stim/FN_003_g.png"",""time"":2380.4000000059605},{""stimulus"":""blank"",""time"":2681.2000000029802},{""stimulus"":""https://ziweizhang0304.github.io/Stats_learning_trig/img/Stim/FN_020_g.png"",""time"":2721.2000000029802},{""stimulus"":""blank"",""time"":3022.1000000089407},{""stimulus"":""https://ziweizhang0304.github.io/Stats_learning_trig/img/Stim/FN_014_g.png"",""time"":3060.4000000059605},{""stimulus"":""blank"",""time"":3365.5},{""stimulus"":""https://ziweizhang0304.github.io/Stats_learning_trig/img/Stim/FN_022_g.png"",""time"":3400.9000000059605},{""stimulus"":""blank"",""time"":3711.7999999970198},{""stimulus"":""https://ziweizhang0304.github.io/Stats_learning_trig/img/Stim/FN_017_g.png"",""time"":3740.6000000089407},{""stimulus"":""blank"",""time"":4053.7000000029802},{""stimulus"":""https://ziweizhang0304.github.io/Stats_learning_trig/img/Stim/FN_026_g.png"",""time"":4081},{""stimulus"":""blank"",""time"":4381.29999999702}]","[{""key_press"":32,""rt"":2403.5,""stimulus"":""https://ziweizhang0304.github.io/Stats_learning_trig/img/Stim/FN_003_g.png""}]","361.70000000298023","https://ziweizhang0304.github.io/Stats_learning_trig/img/Stim/FN_015_g.png","post_TD","13","2041.7999999970198","2403.5","fast","6","3","5e4b793f03c92a08a6d28e3f","","","","","",""
"","image-keyboard-response","39","270965","0.0-5.0-13.0-0.0","553","","","https://ziweizhang0304.github.io/Stats_learning_trig/img/Stim/FN_009_g.png","13","","","","","","","","","","","","","","","","","",""
"","animation","40","275399","0.0-5.0-13.0-1.0","","","","","","[{""stimulus"":""https://ziweizhang0304.github.io/Stats_learning_trig/img/Stim/FN_017_g.png"",""time"":342.59999999403954},{""stimulus"":""blank"",""time"":655},{""stimulus"":""https://ziweizhang0304.github.io/Stats_learning_trig/img/Stim/FN_014_g.png"",""time"":681.4000000059605},{""stimulus"":""blank"",""time"":997.5},{""stimulus"":""https://ziweizhang0304.github.io/Stats_learning_trig/img/Stim/FN_026_g.png"",""time"":1020.7000000029802},{""stimulus"":""blank"",""time"":1326.4000000059605},{""stimulus"":""https://ziweizhang0304.github.io/Stats_learning_trig/img/Stim/FN_019_g.png"",""time"":1360.9000000059605},{""stimulus"":""blank"",""time"":1666.7999999970198},{""stimulus"":""https://ziweizhang0304.github.io/Stats_learning_trig/img/Stim/FN_018_g.png"",""time"":1700.9000000059605},{""stimulus"":""blank"",""time"":2008.2000000029802},{""stimulus"":""https://ziweizhang0304.github.io/Stats_learning_trig/img/Stim/FN_020_g.png"",""time"":2055.5},{""stimulus"":""blank"",""time"":2363.5999999940395},{""stimulus"":""https://ziweizhang0304.github.io/Stats_learning_trig/img/Stim/FN_007_g.png"",""time"":2381.2999999970198},{""stimulus"":""blank"",""time"":2689.7999999970198},{""stimulus"":""https://ziweizhang0304.github.io/Stats_learning_trig/img/Stim/FN_009_g.png"",""time"":2720.7000000029802},{""stimulus"":""blank"",""time"":3033.7000000029802},{""stimulus"":""https://ziweizhang0304.github.io/Stats_learning_trig/img/Stim/FN_015_g.png"",""time"":3065.5999999940395},{""stimulus"":""blank"",""time"":3376.2999999970198},{""stimulus"":""https://ziweizhang0304.github.io/Stats_learning_trig/img/Stim/FN_003_g.png"",""time"":3401.4000000059605},{""stimulus"":""blank"",""time"":3716.2000000029802},{""stimulus"":""https://ziweizhang0304.github.io/Stats_learning_trig/img/Stim/FN_022_g.png"",""time"":3740.9000000059605},{""stimulus"":""blank"",""time"":4045.2000000029802},{""stimulus"":""https://ziweizhang0304.github.io/Stats_learning_trig/img/Stim/FN_023_g.png"",""time"":4081.2999999970198},{""stimulus"":""blank"",""time"":4387.0999999940395}]","[{""key_press"":32,""rt"":3066.1000000089407,""stimulus"":""https://ziweizhang0304.github.io/Stats_learning_trig/img/Stim/FN_015_g.png""}]","345.40000000596046","https://ziweizhang0304.github.io/Stats_learning_trig/img/Stim/FN_009_g.png","post_TD","14","2720.7000000029802","3066.1000000089407","fast","8","2","5e4b793f03c92a08a6d28e3f","","","","","",""
"","image-keyboard-response","41","275716","0.0-5.0-14.0-0.0","316.20000000298023","","","https://ziweizhang0304.github.io/Stats_learning_trig/img/Stim/FN_007_g.png","13","","","","","","","","","","","","","","","","","",""
"","animation","42","280137","0.0-5.0-14.0-1.0","","","","","","[{""stimulus"":""https://ziweizhang0304.github.io/Stats_learning_trig/img/Stim/FN_017_g.png"",""time"":353.20000000298023},{""stimulus"":""blank"",""time"":665.5},{""stimulus"":""https://ziweizhang0304.github.io/Stats_learning_trig/img/Stim/FN_014_g.png"",""time"":681},{""stimulus"":""blank"",""time"":991},{""stimulus"":""https://ziweizhang0304.github.io/Stats_learning_trig/img/Stim/FN_026_g.png"",""time"":1022.8999999910593},{""stimulus"":""blank"",""time"":1336.2999999970198},{""stimulus"":""https://ziweizhang0304.github.io/Stats_learning_trig/img/Stim/FN_019_g.png"",""time"":1360.5},{""stimulus"":""blank"",""time"":1663.8999999910593},{""stimulus"":""https://ziweizhang0304.github.io/Stats_learning_trig/img/Stim/FN_018_g.png"",""time"":1710.2000000029802},{""stimulus"":""blank"",""time"":2019.3999999910593},{""stimulus"":""https://ziweizhang0304.github.io/Stats_learning_trig/img/Stim/FN_020_g.png"",""time"":2040.7000000029802},{""stimulus"":""blank"",""time"":2346.8999999910593},{""stimulus"":""https://ziweizhang0304.github.io/Stats_learning_trig/img/Stim/FN_007_g.png"",""time"":2380.7000000029802},{""stimulus"":""blank"",""time"":2690.3999999910593},{""stimulus"":""https://ziweizhang0304.github.io/Stats_learning_trig/img/Stim/FN_009_g.png"",""time"":2721.7000000029802},{""stimulus"":""blank"",""time"":3033.2000000029802},{""stimulus"":""https://ziweizhang0304.github.io/Stats_learning_trig/img/Stim/FN_015_g.png"",""time"":3063.7000000029802},{""stimulus"":""blank"",""time"":3376.8999999910593},{""stimulus"":""https://ziweizhang0304.github.io/Stats_learning_trig/img/Stim/FN_003_g.png"",""time"":3400.5999999940395},{""stimulus"":""blank"",""time"":3704.7000000029802},{""stimulus"":""https://ziweizhang0304.github.io/Stats_learning_trig/img/Stim/FN_022_g.png"",""time"":3741.5},{""stimulus"":""blank"",""time"":4048.2999999970198},{""stimulus"":""https://ziweizhang0304.github.io/Stats_learning_trig/img/Stim/FN_023_g.png"",""time"":4080.7000000029802},{""stimulus"":""blank"",""time"":4391.899999991059}]","[{""key_press"":32,""rt"":2757.5,""stimulus"":""https://ziweizhang0304.github.io/Stats_learning_trig/img/Stim/FN_009_g.png""}]","376.79999999701977","https://ziweizhang0304.github.io/Stats_learning_trig/img/Stim/FN_007_g.png","post_TD","15","2380.7000000029802","2757.5","fast","7","1","5e4b793f03c92a08a6d28e3f","","","","","",""
"","image-keyboard-response","43","280769","0.0-5.0-15.0-0.0","630.3999999910593","","","https://ziweizhang0304.github.io/Stats_learning_trig/img/Stim/FN_025_g.png","13","","","","","","","","","","","","","","","","","",""
"","animation","44","285190","0.0-5.0-15.0-1.0","","","","","","[{""stimulus"":""https://ziweizhang0304.github.io/Stats_learning_trig/img/Stim/FN_026_g.png"",""time"":354.20000000298023},{""stimulus"":""blank"",""time"":664.6000000089407},{""stimulus"":""https://ziweizhang0304.github.io/Stats_learning_trig/img/Stim/FN_017_g.png"",""time"":680.4000000059605},{""stimulus"":""blank"",""time"":995.4000000059605},{""stimulus"":""https://ziweizhang0304.github.io/Stats_learning_trig/img/Stim/FN_020_g.png"",""time"":1021.6000000089407},{""stimulus"":""blank"",""time"":1336},{""stimulus"":""https://ziweizhang0304.github.io/Stats_learning_trig/img/Stim/FN_008_g.png"",""time"":1360.4000000059605},{""stimulus"":""blank"",""time"":1662.800000011921},{""stimulus"":""https://ziweizhang0304.github.io/Stats_learning_trig/img/Stim/FN_013_g.png"",""time"":1710.1000000089407},{""stimulus"":""blank"",""time"":2020.800000011921},{""stimulus"":""https://ziweizhang0304.github.io/Stats_learning_trig/img/Stim/FN_025_g.png"",""time"":2040.9000000059605},{""stimulus"":""blank"",""time"":2349.7000000029802},{""stimulus"":""https://ziweizhang0304.github.io/Stats_learning_trig/img/Stim/FN_003_g.png"",""time"":2381},{""stimulus"":""blank"",""time"":2695.300000011921},{""stimulus"":""https://ziweizhang0304.github.io/Stats_learning_trig/img/Stim/FN_019_g.png"",""time"":2721.6000000089407},{""stimulus"":""blank"",""time"":3022},{""stimulus"":""https://ziweizhang0304.github.io/Stats_learning_trig/img/Stim/FN_014_g.png"",""time"":3069.300000011921},{""stimulus"":""blank"",""time"":3381.300000011921},{""stimulus"":""https://ziweizhang0304.github.io/Stats_learning_trig/img/Stim/FN_022_g.png"",""time"":3400.800000011921},{""stimulus"":""blank"",""time"":3706.300000011921},{""stimulus"":""https://ziweizhang0304.github.io/Stats_learning_trig/img/Stim/FN_018_g.png"",""time"":3752.800000011921},{""stimulus"":""blank"",""time"":4065.9000000059605},{""stimulus"":""https://ziweizhang0304.github.io/Stats_learning_trig/img/Stim/FN_023_g.png"",""time"":4080.9000000059605},{""stimulus"":""blank"",""time"":4390.600000008941}]","[{""key_press"":32,""rt"":2442.7000000029802,""stimulus"":""https://ziweizhang0304.github.io/Stats_learning_trig/img/Stim/FN_003_g.png""}]","401.79999999701977","https://ziweizhang0304.github.io/Stats_learning_trig/img/Stim/FN_025_g.png","post_TD","16","2040.9000000059605","2442.7000000029802","slow","6","3","5e4b793f03c92a08a6d28e3f","","","","","",""
"","image-keyboard-response","45","285598","0.0-5.0-16.0-0.0","407.09999999403954","","","https://ziweizhang0304.github.io/Stats_learning_trig/img/Stim/FN_009_g.png","13","","","","","","","","","","","","","","","","","",""
"","animation","46","290021","0.0-5.0-16.0-1.0","","","","","","[{""stimulus"":""https://ziweizhang0304.github.io/Stats_learning_trig/img/Stim/FN_014_g.png"",""time"":340.70000000298023},{""stimulus"":""blank"",""time"":654.8999999910593},{""stimulus"":""https://ziweizhang0304.github.io/Stats_learning_trig/img/Stim/FN_020_g.png"",""time"":682.2000000029802},{""stimulus"":""blank"",""time"":997.8999999910593},{""stimulus"":""https://ziweizhang0304.github.io/Stats_learning_trig/img/Stim/FN_023_g.png"",""time"":1029.7000000029802},{""stimulus"":""blank"",""time"":1341.7999999970198},{""stimulus"":""https://ziweizhang0304.github.io/Stats_learning_trig/img/Stim/FN_019_g.png"",""time"":1361.0999999940395},{""stimulus"":""blank"",""time"":1668.5},{""stimulus"":""https://ziweizhang0304.github.io/Stats_learning_trig/img/Stim/FN_017_g.png"",""time"":1701.2999999970198},{""stimulus"":""blank"",""time"":2011.7000000029802},{""stimulus"":""https://ziweizhang0304.github.io/Stats_learning_trig/img/Stim/FN_007_g.png"",""time"":2040.5999999940395},{""stimulus"":""blank"",""time"":2353.3999999910593},{""stimulus"":""https://ziweizhang0304.github.io/Stats_learning_trig/img/Stim/FN_009_g.png"",""time"":2381.2000000029802},{""stimulus"":""blank"",""time"":2695.7999999970198},{""stimulus"":""https://ziweizhang0304.github.io/Stats_learning_trig/img/Stim/FN_015_g.png"",""time"":2726},{""stimulus"":""blank"",""time"":3040.2999999970198},{""stimulus"":""https://ziweizhang0304.github.io/Stats_learning_trig/img/Stim/FN_003_g.png"",""time"":3061.0999999940395},{""stimulus"":""blank"",""time"":3368.3999999910593},{""stimulus"":""https://ziweizhang0304.github.io/Stats_learning_trig/img/Stim/FN_022_g.png"",""time"":3400.7000000029802},{""stimulus"":""blank"",""time"":3707},{""stimulus"":""https://ziweizhang0304.github.io/Stats_learning_trig/img/Stim/FN_018_g.png"",""time"":3740.7000000029802},{""stimulus"":""blank"",""time"":4050.8999999910593},{""stimulus"":""https://ziweizhang0304.github.io/Stats_learning_trig/img/Stim/FN_026_g.png"",""time"":4081.5999999940395},{""stimulus"":""blank"",""time"":4391.5}]","[{""key_press"":32,""rt"":2736.5,""stimulus"":""https://ziweizhang0304.github.io/Stats_learning_trig/img/Stim/FN_015_g.png""}]","355.29999999701977","https://ziweizhang0304.github.io/Stats_learning_trig/img/Stim/FN_009_g.png","post_TD","17","2381.2000000029802","2736.5","fast","7","2","5e4b793f03c92a08a6d28e3f","","","","","",""
"","image-keyboard-response","47","290598","0.0-5.0-17.0-0.0","575.7999999970198","","","https://ziweizhang0304.github.io/Stats_learning_trig/img/Stim/FN_008_g.png","13","","","","","","","","","","","","","","","","","",""
"","animation","48","295020","0.0-5.0-17.0-1.0","","","","","","[{""stimulus"":""https://ziweizhang0304.github.io/Stats_learning_trig/img/Stim/FN_017_g.png"",""time"":343.29999999701977},{""stimulus"":""blank"",""time"":653.3999999910593},{""stimulus"":""https://ziweizhang0304.github.io/Stats_learning_trig/img/Stim/FN_019_g.png"",""time"":680.3999999910593},{""stimulus"":""blank"",""time"":980.8999999910593},{""stimulus"":""https://ziweizhang0304.github.io/Stats_learning_trig/img/Stim/FN_003_g.png"",""time"":1021.0999999940395},{""stimulus"":""blank"",""time"":1336.7999999970198},{""stimulus"":""https://ziweizhang0304.github.io/Stats_learning_trig/img/Stim/FN_020_g.png"",""time"":1361},{""stimulus"":""blank"",""time"":1662.8999999910593},{""stimulus"":""https://ziweizhang0304.github.io/Stats_learning_trig/img/Stim/FN_018_g.png"",""time"":1700.7000000029802},{""stimulus"":""blank"",""time"":2004.3999999910593},{""stimulus"":""https://ziweizhang0304.github.io/Stats_learning_trig/img/Stim/FN_022_g.png"",""time"":2040.8999999910593},{""stimulus"":""blank"",""time"":2347.3999999910593},{""stimulus"":""https://ziweizhang0304.github.io/Stats_learning_trig/img/Stim/FN_008_g.png"",""time"":2381.2999999970198},{""stimulus"":""blank"",""time"":2688.8999999910593},{""stimulus"":""https://ziweizhang0304.github.io/Stats_learning_trig/img/Stim/FN_013_g.png"",""time"":2720.7999999970198},{""stimulus"":""blank"",""time"":3031.0999999940395},{""stimulus"":""https://ziweizhang0304.github.io/Stats_learning_trig/img/Stim/FN_025_g.png"",""time"":3060.8999999910593},{""stimulus"":""blank"",""time"":3370.2999999970198},{""stimulus"":""https://ziweizhang0304.github.io/Stats_learning_trig/img/Stim/FN_014_g.png"",""time"":3401.0999999940395},{""stimulus"":""blank"",""time"":3712.3999999910593},{""stimulus"":""https://ziweizhang0304.github.io/Stats_learning_trig/img/Stim/FN_026_g.png"",""time"":3740.5},{""stimulus"":""blank"",""time"":4055.7000000029802},{""stimulus"":""https://ziweizhang0304.github.io/Stats_learning_trig/img/Stim/FN_023_g.png"",""time"":4081.2999999970198},{""stimulus"":""blank"",""time"":4383.70000000298}]","[{""key_press"":32,""rt"":2732.7999999970198,""stimulus"":""https://ziweizhang0304.github.io/Stats_learning_trig/img/Stim/FN_013_g.png""}]","351.5","https://ziweizhang0304.github.io/Stats_learning_trig/img/Stim/FN_008_g.png","post_TD","18","2381.2999999970198","2732.7999999970198","slow","7","1","5e4b793f03c92a08a6d28e3f","","","","","",""
"","image-keyboard-response","49","295539","0.0-5.0-18.0-0.0","517.5","","","https://ziweizhang0304.github.io/Stats_learning_trig/img/Stim/FN_008_g.png","13","","","","","","","","","","","","","","","","","",""
"","animation","50","299959","0.0-5.0-18.0-1.0","","","","","","[{""stimulus"":""https://ziweizhang0304.github.io/Stats_learning_trig/img/Stim/FN_018_g.png"",""time"":345.20000000298023},{""stimulus"":""blank"",""time"":657.6000000089407},{""stimulus"":""https://ziweizhang0304.github.io/Stats_learning_trig/img/Stim/FN_017_g.png"",""time"":688.4000000059605},{""stimulus"":""blank"",""time"":997.8000000119209},{""stimulus"":""https://ziweizhang0304.github.io/Stats_learning_trig/img/Stim/FN_019_g.png"",""time"":1020.3000000119209},{""stimulus"":""blank"",""time"":1323.2000000029802},{""stimulus"":""https://ziweizhang0304.github.io/Stats_learning_trig/img/Stim/FN_003_g.png"",""time"":1361},{""stimulus"":""blank"",""time"":1664.800000011921},{""stimulus"":""https://ziweizhang0304.github.io/Stats_learning_trig/img/Stim/FN_022_g.png"",""time"":1700.9000000059605},{""stimulus"":""blank"",""time"":2005},{""stimulus"":""https://ziweizhang0304.github.io/Stats_learning_trig/img/Stim/FN_008_g.png"",""time"":2051.5},{""stimulus"":""blank"",""time"":2364.7000000029802},{""stimulus"":""https://ziweizhang0304.github.io/Stats_learning_trig/img/Stim/FN_013_g.png"",""time"":2380.800000011921},{""stimulus"":""blank"",""time"":2692.2000000029802},{""stimulus"":""https://ziweizhang0304.github.io/Stats_learning_trig/img/Stim/FN_025_g.png"",""time"":2720.800000011921},{""stimulus"":""blank"",""time"":3032.7000000029802},{""stimulus"":""https://ziweizhang0304.github.io/Stats_learning_trig/img/Stim/FN_020_g.png"",""time"":3060.6000000089407},{""stimulus"":""blank"",""time"":3374.4000000059605},{""stimulus"":""https://ziweizhang0304.github.io/Stats_learning_trig/img/Stim/FN_014_g.png"",""time"":3400.7000000029802},{""stimulus"":""blank"",""time"":3703.5},{""stimulus"":""https://ziweizhang0304.github.io/Stats_learning_trig/img/Stim/FN_026_g.png"",""time"":3749.4000000059605},{""stimulus"":""blank"",""time"":4058.800000011921},{""stimulus"":""https://ziweizhang0304.github.io/Stats_learning_trig/img/Stim/FN_023_g.png"",""time"":4090.6000000089407},{""stimulus"":""blank"",""time"":4402}]","[{""key_press"":32,""rt"":2438.3999999910593,""stimulus"":""https://ziweizhang0304.github.io/Stats_learning_trig/img/Stim/FN_013_g.png""}]","386.8999999910593","https://ziweizhang0304.github.io/Stats_learning_trig/img/Stim/FN_008_g.png","post_TD","19","2051.5","2438.3999999910593","slow","6","1","5e4b793f03c92a08a6d28e3f","","","","","",""
"","image-keyboard-response","51","300549","0.0-5.0-19.0-0.0","588.5999999940395","","","https://ziweizhang0304.github.io/Stats_learning_trig/img/Stim/FN_009_g.png","13","","","","","","","","","","","","","","","","","",""
"","animation","52","304969","0.0-5.0-19.0-1.0","","","","","","[{""stimulus"":""https://ziweizhang0304.github.io/Stats_learning_trig/img/Stim/FN_023_g.png"",""time"":354.59999999403954},{""stimulus"":""blank"",""time"":664.5},{""stimulus"":""https://ziweizhang0304.github.io/Stats_learning_trig/img/Stim/FN_019_g.png"",""time"":681.4000000059605},{""stimulus"":""blank"",""time"":991.5999999940395},{""stimulus"":""https://ziweizhang0304.github.io/Stats_learning_trig/img/Stim/FN_018_g.png"",""time"":1023.2000000029802},{""stimulus"":""blank"",""time"":1335.4000000059605},{""stimulus"":""https://ziweizhang0304.github.io/Stats_learning_trig/img/Stim/FN_007_g.png"",""time"":1361},{""stimulus"":""blank"",""time"":1662.7000000029802},{""stimulus"":""https://ziweizhang0304.github.io/Stats_learning_trig/img/Stim/FN_009_g.png"",""time"":1700.5999999940395},{""stimulus"":""blank"",""time"":2005.7999999970198},{""stimulus"":""https://ziweizhang0304.github.io/Stats_learning_trig/img/Stim/FN_015_g.png"",""time"":2041.4000000059605},{""stimulus"":""blank"",""time"":2343.5999999940395},{""stimulus"":""https://ziweizhang0304.github.io/Stats_learning_trig/img/Stim/FN_003_g.png"",""time"":2389.7999999970198},{""stimulus"":""blank"",""time"":2702},{""stimulus"":""https://ziweizhang0304.github.io/Stats_learning_trig/img/Stim/FN_020_g.png"",""time"":2721.7000000029802},{""stimulus"":""blank"",""time"":3029.7000000029802},{""stimulus"":""https://ziweizhang0304.github.io/Stats_learning_trig/img/Stim/FN_014_g.png"",""time"":3060.5},{""stimulus"":""blank"",""time"":3373},{""stimulus"":""https://ziweizhang0304.github.io/Stats_learning_trig/img/Stim/FN_022_g.png"",""time"":3400.5999999940395},{""stimulus"":""blank"",""time"":3714.7000000029802},{""stimulus"":""https://ziweizhang0304.github.io/Stats_learning_trig/img/Stim/FN_017_g.png"",""time"":3740.5999999940395},{""stimulus"":""blank"",""time"":4043.5999999940395},{""stimulus"":""https://ziweizhang0304.github.io/Stats_learning_trig/img/Stim/FN_026_g.png"",""time"":4090.7999999970198},{""stimulus"":""blank"",""time"":4401.29999999702}]","[{""key_press"":32,""rt"":2052.5,""stimulus"":""https://ziweizhang0304.github.io/Stats_learning_trig/img/Stim/FN_015_g.png""}]","351.90000000596046","https://ziweizhang0304.github.io/Stats_learning_trig/img/Stim/FN_009_g.png","post_TD","20","1700.5999999940395","2052.5","fast","5","2","5e4b793f03c92a08a6d28e3f","","","","","",""
"","image-keyboard-response","53","306108","0.0-5.0-20.0-0.0","1137.7000000029802","","","https://ziweizhang0304.github.io/Stats_learning_trig/img/Stim/FN_007_g.png","13","","","","","","","","","","","","","","","","","",""
"","animation","54","310541","0.0-5.0-20.0-1.0","","","","","","[{""stimulus"":""https://ziweizhang0304.github.io/Stats_learning_trig/img/Stim/FN_023_g.png"",""time"":348.8999999910593},{""stimulus"":""blank"",""time"":662.5},{""stimulus"":""https://ziweizhang0304.github.io/Stats_learning_trig/img/Stim/FN_019_g.png"",""time"":681.5999999940395},{""stimulus"":""blank"",""time"":990.0999999940395},{""stimulus"":""https://ziweizhang0304.github.io/Stats_learning_trig/img/Stim/FN_018_g.png"",""time"":1021.6999999880791},{""stimulus"":""blank"",""time"":1333.199999988079},{""stimulus"":""https://ziweizhang0304.github.io/Stats_learning_trig/img/Stim/FN_007_g.png"",""time"":1364.0999999940395},{""stimulus"":""blank"",""time"":1675.0999999940395},{""stimulus"":""https://ziweizhang0304.github.io/Stats_learning_trig/img/Stim/FN_009_g.png"",""time"":1700.8999999910593},{""stimulus"":""blank"",""time"":2003.3999999910593},{""stimulus"":""https://ziweizhang0304.github.io/Stats_learning_trig/img/Stim/FN_015_g.png"",""time"":2040.699999988079},{""stimulus"":""blank"",""time"":2345.5},{""stimulus"":""https://ziweizhang0304.github.io/Stats_learning_trig/img/Stim/FN_003_g.png"",""time"":2380.8999999910593},{""stimulus"":""blank"",""time"":2687.5999999940395},{""stimulus"":""https://ziweizhang0304.github.io/Stats_learning_trig/img/Stim/FN_020_g.png"",""time"":2720.5999999940395},{""stimulus"":""blank"",""time"":3031.199999988079},{""stimulus"":""https://ziweizhang0304.github.io/Stats_learning_trig/img/Stim/FN_014_g.png"",""time"":3060.5999999940395},{""stimulus"":""blank"",""time"":3373},{""stimulus"":""https://ziweizhang0304.github.io/Stats_learning_trig/img/Stim/FN_022_g.png"",""time"":3404},{""stimulus"":""blank"",""time"":3715.5999999940395},{""stimulus"":""https://ziweizhang0304.github.io/Stats_learning_trig/img/Stim/FN_017_g.png"",""time"":3741.199999988079},{""stimulus"":""blank"",""time"":4045.5999999940395},{""stimulus"":""https://ziweizhang0304.github.io/Stats_learning_trig/img/Stim/FN_026_g.png"",""time"":4080.699999988079},{""stimulus"":""blank"",""time"":4385.699999988079}]","[{""key_press"":32,""rt"":173.09999999403954,""stimulus"":""""},{""key_press"":32,""rt"":1741.199999988079,""stimulus"":""https://ziweizhang0304.github.io/Stats_learning_trig/img/Stim/FN_009_g.png""}]","377.09999999403954","https://ziweizhang0304.github.io/Stats_learning_trig/img/Stim/FN_007_g.png","post_TD","21","1364.0999999940395","1741.199999988079","fast","4","1","5e4b793f03c92a08a6d28e3f","","","","","",""
"","image-keyboard-response","55","311081","0.0-5.0-21.0-0.0","538.5","","","https://ziweizhang0304.github.io/Stats_learning_trig/img/Stim/FN_013_g.png","13","","","","","","","","","","","","","","","","","",""
"","animation","56","315501","0.0-5.0-21.0-1.0","","","","","","[{""stimulus"":""https://ziweizhang0304.github.io/Stats_learning_trig/img/Stim/FN_014_g.png"",""time"":352.70000000298023},{""stimulus"":""blank"",""time"":662.4000000059605},{""stimulus"":""https://ziweizhang0304.github.io/Stats_learning_trig/img/Stim/FN_003_g.png"",""time"":681.0999999940395},{""stimulus"":""blank"",""time"":988.9000000059605},{""stimulus"":""https://ziweizhang0304.github.io/Stats_learning_trig/img/Stim/FN_026_g.png"",""time"":1034.4000000059605},{""stimulus"":""blank"",""time"":1347.2999999970198},{""stimulus"":""https://ziweizhang0304.github.io/Stats_learning_trig/img/Stim/FN_019_g.png"",""time"":1361.0999999940395},{""stimulus"":""blank"",""time"":1674.2999999970198},{""stimulus"":""https://ziweizhang0304.github.io/Stats_learning_trig/img/Stim/FN_008_g.png"",""time"":1700.5},{""stimulus"":""blank"",""time"":2001.2000000029802},{""stimulus"":""https://ziweizhang0304.github.io/Stats_learning_trig/img/Stim/FN_013_g.png"",""time"":2047.9000000059605},{""stimulus"":""blank"",""time"":2360.2000000029802},{""stimulus"":""https://ziweizhang0304.github.io/Stats_learning_trig/img/Stim/FN_025_g.png"",""time"":2380.2999999970198},{""stimulus"":""blank"",""time"":2688.2000000029802},{""stimulus"":""https://ziweizhang0304.github.io/Stats_learning_trig/img/Stim/FN_020_g.png"",""time"":2734.2999999970198},{""stimulus"":""blank"",""time"":3047.2000000029802},{""stimulus"":""https://ziweizhang0304.github.io/Stats_learning_trig/img/Stim/FN_022_g.png"",""time"":3060.5},{""stimulus"":""blank"",""time"":3373.2000000029802},{""stimulus"":""https://ziweizhang0304.github.io/Stats_learning_trig/img/Stim/FN_018_g.png"",""time"":3400.2999999970198},{""stimulus"":""blank"",""time"":3701.2999999970198},{""stimulus"":""https://ziweizhang0304.github.io/Stats_learning_trig/img/Stim/FN_017_g.png"",""time"":3747.0999999940395},{""stimulus"":""blank"",""time"":4056.0999999940395},{""stimulus"":""https://ziweizhang0304.github.io/Stats_learning_trig/img/Stim/FN_023_g.png"",""time"":4080.4000000059605},{""stimulus"":""blank"",""time"":4380.70000000298}]","[{""key_press"":32,""rt"":2423.7000000029802,""stimulus"":""https://ziweizhang0304.github.io/Stats_learning_trig/img/Stim/FN_025_g.png""}]","375.79999999701977","https://ziweizhang0304.github.io/Stats_learning_trig/img/Stim/FN_013_g.png","post_TD","22","2047.9000000059605","2423.7000000029802","slow","6","2","5e4b793f03c92a08a6d28e3f","","","","","",""
"","image-keyboard-response","57","316896","0.0-5.0-22.0-0.0","1393.5","","","https://ziweizhang0304.github.io/Stats_learning_trig/img/Stim/FN_013_g.png","13","","","","","","","","","","","","","","","","","",""
"","animation","58","321317","0.0-5.0-22.0-1.0","","","","","","[{""stimulus"":""https://ziweizhang0304.github.io/Stats_learning_trig/img/Stim/FN_026_g.png"",""time"":351.70000000298023},{""stimulus"":""blank"",""time"":661.5},{""stimulus"":""https://ziweizhang0304.github.io/Stats_learning_trig/img/Stim/FN_017_g.png"",""time"":682.0999999940395},{""stimulus"":""blank"",""time"":990.3999999910593},{""stimulus"":""https://ziweizhang0304.github.io/Stats_learning_trig/img/Stim/FN_020_g.png"",""time"":1020.3999999910593},{""stimulus"":""blank"",""time"":1334.2000000029802},{""stimulus"":""https://ziweizhang0304.github.io/Stats_learning_trig/img/Stim/FN_008_g.png"",""time"":1360.8999999910593},{""stimulus"":""blank"",""time"":1661.0999999940395},{""stimulus"":""https://ziweizhang0304.github.io/Stats_learning_trig/img/Stim/FN_013_g.png"",""time"":1701},{""stimulus"":""blank"",""time"":2003.5},{""stimulus"":""https://ziweizhang0304.github.io/Stats_learning_trig/img/Stim/FN_025_g.png"",""time"":2040.7000000029802},{""stimulus"":""blank"",""time"":2343.8999999910593},{""stimulus"":""https://ziweizhang0304.github.io/Stats_learning_trig/img/Stim/FN_003_g.png"",""time"":2391.3999999910593},{""stimulus"":""blank"",""time"":2701.5},{""stimulus"":""https://ziweizhang0304.github.io/Stats_learning_trig/img/Stim/FN_019_g.png"",""time"":2732.2999999970198},{""stimulus"":""blank"",""time"":3042.7000000029802},{""stimulus"":""https://ziweizhang0304.github.io/Stats_learning_trig/img/Stim/FN_014_g.png"",""time"":3061.2999999970198},{""stimulus"":""blank"",""time"":3371.2000000029802},{""stimulus"":""https://ziweizhang0304.github.io/Stats_learning_trig/img/Stim/FN_022_g.png"",""time"":3401.5999999940395},{""stimulus"":""blank"",""time"":3712.3999999910593},{""stimulus"":""https://ziweizhang0304.github.io/Stats_learning_trig/img/Stim/FN_018_g.png"",""time"":3741},{""stimulus"":""blank"",""time"":4054.2000000029802},{""stimulus"":""https://ziweizhang0304.github.io/Stats_learning_trig/img/Stim/FN_023_g.png"",""time"":4080.7999999970198},{""stimulus"":""blank"",""time"":4382.79999999702}]","[{""key_press"":32,""rt"":2104.2000000029802,""stimulus"":""https://ziweizhang0304.github.io/Stats_learning_trig/img/Stim/FN_025_g.png""}]","403.20000000298023","https://ziweizhang0304.github.io/Stats_learning_trig/img/Stim/FN_013_g.png","post_TD","23","1701","2104.2000000029802","slow","5","2","5e4b793f03c92a08a6d28e3f","","","","","",""
"","image-keyboard-response","59","322184","0.0-5.0-23.0-0.0","866.4000000059605","","","https://ziweizhang0304.github.io/Stats_learning_trig/img/Stim/FN_025_g.png","13","","","","","","","","","","","","","","","","","",""
"","animation","60","326605","0.0-5.0-23.0-1.0","","","","","","[{""stimulus"":""https://ziweizhang0304.github.io/Stats_learning_trig/img/Stim/FN_014_g.png"",""time"":341.29999999701977},{""stimulus"":""blank"",""time"":652.8999999910593},{""stimulus"":""https://ziweizhang0304.github.io/Stats_learning_trig/img/Stim/FN_003_g.png"",""time"":680.7999999970198},{""stimulus"":""blank"",""time"":996},{""stimulus"":""https://ziweizhang0304.github.io/Stats_learning_trig/img/Stim/FN_026_g.png"",""time"":1020.5999999940395},{""stimulus"":""blank"",""time"":1324.199999988079},{""stimulus"":""https://ziweizhang0304.github.io/Stats_learning_trig/img/Stim/FN_019_g.png"",""time"":1370.5},{""stimulus"":""blank"",""time"":1679.3999999910593},{""stimulus"":""https://ziweizhang0304.github.io/Stats_learning_trig/img/Stim/FN_008_g.png"",""time"":1711.199999988079},{""stimulus"":""blank"",""time"":2020},{""stimulus"":""https://ziweizhang0304.github.io/Stats_learning_trig/img/Stim/FN_013_g.png"",""time"":2040.5},{""stimulus"":""blank"",""time"":2346.5},{""stimulus"":""https://ziweizhang0304.github.io/Stats_learning_trig/img/Stim/FN_025_g.png"",""time"":2380.7999999970198},{""stimulus"":""blank"",""time"":2681.7999999970198},{""stimulus"":""https://ziweizhang0304.github.io/Stats_learning_trig/img/Stim/FN_020_g.png"",""time"":2721.5},{""stimulus"":""blank"",""time"":3031.7999999970198},{""stimulus"":""https://ziweizhang0304.github.io/Stats_learning_trig/img/Stim/FN_022_g.png"",""time"":3060.5},{""stimulus"":""blank"",""time"":3374.7999999970198},{""stimulus"":""https://ziweizhang0304.github.io/Stats_learning_trig/img/Stim/FN_018_g.png"",""time"":3400.3999999910593},{""stimulus"":""blank"",""time"":3702},{""stimulus"":""https://ziweizhang0304.github.io/Stats_learning_trig/img/Stim/FN_017_g.png"",""time"":3740.3999999910593},{""stimulus"":""blank"",""time"":4043.5999999940395},{""stimulus"":""https://ziweizhang0304.github.io/Stats_learning_trig/img/Stim/FN_023_g.png"",""time"":4081.3999999910593},{""stimulus"":""blank"",""time"":4387.79999999702}]","[{""key_press"":32,""rt"":2681.5999999940395,""stimulus"":""https://ziweizhang0304.github.io/Stats_learning_trig/img/Stim/FN_025_g.png""}]","300.79999999701977","https://ziweizhang0304.github.io/Stats_learning_trig/img/Stim/FN_025_g.png","post_TD","24","2380.7999999970198","2681.5999999940395","slow","7","3","5e4b793f03c92a08a6d28e3f","6b67d","","","","",""
"","survey-text","61","337050","0.0-6.0","10441.29999999702","","","","","","","","","","","","","","","","","","{""Q0"":""Just remembering the shape""}","","","",""
"","survey-text","62","352034","0.0-7.0","14982.29999999702","","","","","","","","","","","","","","","","","","{""[object Object]"":""no i did not notice any patterns""}","","","",""
"","instructions","63","354490","0.0-8.0","2455.5","","[{""page_index"":0,""viewing_time"":2455.2000000029802}]","","","","","","","","","","","","","","","","","","","",""
"","free-sort","64","366941","0.0-9.0","12449.70000000298","","","","","","","","","post_drag","","","","fast","","","","","","[{""src"":""https://ziweizhang0304.github.io/Stats_learning_trig/img/Stim/FN_015_g.png"",""x"":475,""y"":0},{""src"":""https://ziweizhang0304.github.io/Stats_learning_trig/img/Stim/FN_009_g.png"",""x"":-225,""y"":50},{""src"":""https://ziweizhang0304.github.io/Stats_learning_trig/img/Stim/FN_007_g.png"",""x"":475,""y"":50}]","[{""src"":""https://ziweizhang0304.github.io/Stats_learning_trig/img/Stim/FN_015_g.png"",""x"":475,""y"":0},{""src"":""https://ziweizhang0304.github.io/Stats_learning_trig/img/Stim/FN_015_g.png"",""x"":144,""y"":24},{""src"":""https://ziweizhang0304.github.io/Stats_learning_trig/img/Stim/FN_015_g.png"",""x"":144,""y"":24},{""src"":""https://ziweizhang0304.github.io/Stats_learning_trig/img/Stim/FN_007_g.png"",""x"":190,""y"":31},{""src"":""https://ziweizhang0304.github.io/Stats_learning_trig/img/Stim/FN_007_g.png"",""x"":190,""y"":31},{""src"":""https://ziweizhang0304.github.io/Stats_learning_trig/img/Stim/FN_009_g.png"",""x"":-225,""y"":50},{""src"":""https://ziweizhang0304.github.io/Stats_learning_trig/img/Stim/FN_009_g.png"",""x"":77,""y"":21},{""src"":""https://ziweizhang0304.github.io/Stats_learning_trig/img/Stim/FN_009_g.png"",""x"":77,""y"":21}]","[{""src"":""https://ziweizhang0304.github.io/Stats_learning_trig/img/Stim/FN_015_g.png"",""x"":144,""y"":24},{""src"":""https://ziweizhang0304.github.io/Stats_learning_trig/img/Stim/FN_009_g.png"",""x"":77,""y"":21},{""src"":""https://ziweizhang0304.github.io/Stats_learning_trig/img/Stim/FN_007_g.png"",""x"":190,""y"":31}]",""
"","free-sort","65","372986","0.0-10.0","6045.100000008941","","","","","","","","","post_drag","","","","slow","","","","","","[{""src"":""https://ziweizhang0304.github.io/Stats_learning_trig/img/Stim/FN_025_g.png"",""x"":475,""y"":0},{""src"":""https://ziweizhang0304.github.io/Stats_learning_trig/img/Stim/FN_008_g.png"",""x"":-225,""y"":50},{""src"":""https://ziweizhang0304.github.io/Stats_learning_trig/img/Stim/FN_013_g.png"",""x"":475,""y"":50}]","[{""src"":""https://ziweizhang0304.github.io/Stats_learning_trig/img/Stim/FN_025_g.png"",""x"":400,""y"":0},{""src"":""https://ziweizhang0304.github.io/Stats_learning_trig/img/Stim/FN_025_g.png"",""x"":66,""y"":33},{""src"":""https://ziweizhang0304.github.io/Stats_learning_trig/img/Stim/FN_013_g.png"",""x"":142,""y"":24},{""src"":""https://ziweizhang0304.github.io/Stats_learning_trig/img/Stim/FN_008_g.png"",""x"":190,""y"":26}]","[{""src"":""https://ziweizhang0304.github.io/Stats_learning_trig/img/Stim/FN_025_g.png"",""x"":66,""y"":33},{""src"":""https://ziweizhang0304.github.io/Stats_learning_trig/img/Stim/FN_008_g.png"",""x"":190,""y"":26},{""src"":""https://ziweizhang0304.github.io/Stats_learning_trig/img/Stim/FN_013_g.png"",""x"":142,""y"":24}]",""
"","survey-multi-choice","66","380929","0.0-11.0","7941.199999988079","","","","","","","","","","","","","","","","5e4b793f03c92a08a6d28e3f","","{""awareness"":""No"",""attention_check"":""Press SPACEBAR to a target""}","","","","[0,1]"
