"success","trial_type","trial_index","time_elapsed","internal_node_id","rt","url","view_history","stimulus","key_press","animation_sequence","response","TD_rt","TD_target","test_part","TD_trial_number","onset","offset","attention_state","TD_target_position","TD_within_triplet_counter","participant","yoke_participant","responses","init_locations","moves","final_locations","question_order"
"true","fullscreen","0","2444","0.0-0.0","","","","","","","","","","","","","","","","","","","","","","",""
"","external-html","1","28580","0.0-1.0","25967.700000000186","https://ziweizhang0304.github.io/Stats_learning_trig/content/consent.html","","","","","","","","","","","","","","","","","","","","",""
"","instructions","2","47680","0.0-2.0","19096.599999999627","","[{""page_index"":0,""viewing_time"":1264.2000000001863},{""page_index"":1,""viewing_time"":10542.099999999627},{""page_index"":2,""viewing_time"":5847.4000000003725},{""page_index"":3,""viewing_time"":1442.199999999255}]","","","","","","","","","","","","","","","","","","","",""
"","image-keyboard-response","3","51125","0.0-3.0-0.0-0.0","3444.0999999996275","","","https://ziweizhang0304.github.io/Stats_learning_trig/img/Stim/FN_008_g.png","13","","","","","","","","","","","","","","","","","",""
"","animation","4","55547","0.0-3.0-0.0-1.0","","","","","","[{""stimulus"":""https://ziweizhang0304.github.io/Stats_learning_trig/img/Stim/FN_014_g.png"",""time"":349.40000000037253},{""stimulus"":""blank"",""time"":651.6000000005588},{""stimulus"":""https://ziweizhang0304.github.io/Stats_learning_trig/img/Stim/FN_008_g.png"",""time"":680.9000000003725},{""stimulus"":""blank"",""time"":986.3000000007451},{""stimulus"":""https://ziweizhang0304.github.io/Stats_learning_trig/img/Stim/FN_007_g.png"",""time"":1021.4000000003725},{""stimulus"":""blank"",""time"":1325.5},{""stimulus"":""https://ziweizhang0304.github.io/Stats_learning_trig/img/Stim/FN_013_g.png"",""time"":1362},{""stimulus"":""blank"",""time"":1663.5},{""stimulus"":""https://ziweizhang0304.github.io/Stats_learning_trig/img/Stim/FN_011_g.png"",""time"":1705.800000000745},{""stimulus"":""blank"",""time"":2011.1000000005588},{""stimulus"":""https://ziweizhang0304.github.io/Stats_learning_trig/img/Stim/FN_010_g.png"",""time"":2041},{""stimulus"":""blank"",""time"":2342.2000000001863},{""stimulus"":""https://ziweizhang0304.github.io/Stats_learning_trig/img/Stim/FN_021_g.png"",""time"":2386.100000000559},{""stimulus"":""blank"",""time"":2686.300000000745},{""stimulus"":""https://ziweizhang0304.github.io/Stats_learning_trig/img/Stim/FN_026_g.png"",""time"":2721.600000000559},{""stimulus"":""blank"",""time"":3024.4000000003725},{""stimulus"":""https://ziweizhang0304.github.io/Stats_learning_trig/img/Stim/FN_018_g.png"",""time"":3061.4000000003725},{""stimulus"":""blank"",""time"":3362.100000000559},{""stimulus"":""https://ziweizhang0304.github.io/Stats_learning_trig/img/Stim/FN_017_g.png"",""time"":3405.600000000559},{""stimulus"":""blank"",""time"":3710.9000000003725},{""stimulus"":""https://ziweizhang0304.github.io/Stats_learning_trig/img/Stim/FN_023_g.png"",""time"":3741.600000000559},{""stimulus"":""blank"",""time"":4042.300000000745},{""stimulus"":""https://ziweizhang0304.github.io/Stats_learning_trig/img/Stim/FN_005_g.png"",""time"":4084.100000000559},{""stimulus"":""blank"",""time"":4386.200000000186}]","[{""key_press"":32,""rt"":1148.7999999998137,""stimulus"":""https://ziweizhang0304.github.io/Stats_learning_trig/img/Stim/FN_007_g.png""}]","467.8999999994412","https://ziweizhang0304.github.io/Stats_learning_trig/img/Stim/FN_008_g.png","post_prac","","","","","","","","","","","","",""
"","html-keyboard-response","5","59705","0.0-3.0-0.0-2.0","4154.600000000559","","","<p>Your reaction time for this trial was 467.9 ms.</p><p>Remember that you should only press the SPACEBAR when you see the shape presented at the beginning of the trial. </b> </p><p>Press enter to move on.</p>","13","","","","","","","","","","","","","","","","","",""
"","image-keyboard-response","6","63832","0.0-3.0-1.0-0.0","4126.5","","","https://ziweizhang0304.github.io/Stats_learning_trig/img/Stim/FN_013_g.png","13","","","","","","","","","","","","","","","","","",""
"","animation","7","68257","0.0-3.0-1.0-1.0","","","","","","[{""stimulus"":""https://ziweizhang0304.github.io/Stats_learning_trig/img/Stim/FN_005_g.png"",""time"":341.90000000037253},{""stimulus"":""blank"",""time"":643.9000000003725},{""stimulus"":""https://ziweizhang0304.github.io/Stats_learning_trig/img/Stim/FN_018_g.png"",""time"":682.1000000005588},{""stimulus"":""blank"",""time"":983.1000000005588},{""stimulus"":""https://ziweizhang0304.github.io/Stats_learning_trig/img/Stim/FN_026_g.png"",""time"":1025.1000000005588},{""stimulus"":""blank"",""time"":1326.6000000005588},{""stimulus"":""https://ziweizhang0304.github.io/Stats_learning_trig/img/Stim/FN_011_g.png"",""time"":1361.6000000005588},{""stimulus"":""blank"",""time"":1664},{""stimulus"":""https://ziweizhang0304.github.io/Stats_learning_trig/img/Stim/FN_013_g.png"",""time"":1705.1000000005588},{""stimulus"":""blank"",""time"":2005.7000000001863},{""stimulus"":""https://ziweizhang0304.github.io/Stats_learning_trig/img/Stim/FN_008_g.png"",""time"":2042.800000000745},{""stimulus"":""blank"",""time"":2345.100000000559},{""stimulus"":""https://ziweizhang0304.github.io/Stats_learning_trig/img/Stim/FN_007_g.png"",""time"":2381.100000000559},{""stimulus"":""blank"",""time"":2682},{""stimulus"":""https://ziweizhang0304.github.io/Stats_learning_trig/img/Stim/FN_021_g.png"",""time"":2721.2000000001863},{""stimulus"":""blank"",""time"":3026.5},{""stimulus"":""https://ziweizhang0304.github.io/Stats_learning_trig/img/Stim/FN_017_g.png"",""time"":3061.9000000003725},{""stimulus"":""blank"",""time"":3364.4000000003725},{""stimulus"":""https://ziweizhang0304.github.io/Stats_learning_trig/img/Stim/FN_010_g.png"",""time"":3404.100000000559},{""stimulus"":""blank"",""time"":3704.600000000559},{""stimulus"":""https://ziweizhang0304.github.io/Stats_learning_trig/img/Stim/FN_023_g.png"",""time"":3742.9000000003725},{""stimulus"":""blank"",""time"":4043.9000000003725},{""stimulus"":""https://ziweizhang0304.github.io/Stats_learning_trig/img/Stim/FN_014_g.png"",""time"":4081.300000000745},{""stimulus"":""blank"",""time"":4383.5}]","[{""key_press"":32,""rt"":1095,""stimulus"":""https://ziweizhang0304.github.io/Stats_learning_trig/img/Stim/FN_026_g.png""},{""key_press"":32,""rt"":2137.7000000001863,""stimulus"":""https://ziweizhang0304.github.io/Stats_learning_trig/img/Stim/FN_008_g.png""}]","432.59999999962747","https://ziweizhang0304.github.io/Stats_learning_trig/img/Stim/FN_013_g.png","post_prac","","","","","","","","","","","","",""
"","html-keyboard-response","8","71425","0.0-3.0-1.0-2.0","3166.2999999998137","","","<p>Your reaction time for this trial was 432.6 ms.</p><p>Remember that you should only press the SPACEBAR when you see the shape presented at the beginning of the trial. </b> </p><p>Press enter to move on.</p>","13","","","","","","","","","","","","","","","","","",""
"","image-keyboard-response","9","76422","0.0-3.0-2.0-0.0","4994.9000000003725","","","https://ziweizhang0304.github.io/Stats_learning_trig/img/Stim/FN_013_g.png","13","","","","","","","","","","","","","","","","","",""
"","animation","10","80843","0.0-3.0-2.0-1.0","","","","","","[{""stimulus"":""https://ziweizhang0304.github.io/Stats_learning_trig/img/Stim/FN_005_g.png"",""time"":341},{""stimulus"":""blank"",""time"":643.0999999996275},{""stimulus"":""https://ziweizhang0304.github.io/Stats_learning_trig/img/Stim/FN_026_g.png"",""time"":685.0999999996275},{""stimulus"":""blank"",""time"":986.2999999998137},{""stimulus"":""https://ziweizhang0304.github.io/Stats_learning_trig/img/Stim/FN_021_g.png"",""time"":1022.8999999994412},{""stimulus"":""blank"",""time"":1325.2999999998137},{""stimulus"":""https://ziweizhang0304.github.io/Stats_learning_trig/img/Stim/FN_013_g.png"",""time"":1364.8999999994412},{""stimulus"":""blank"",""time"":1665.3999999994412},{""stimulus"":""https://ziweizhang0304.github.io/Stats_learning_trig/img/Stim/FN_008_g.png"",""time"":1703.5},{""stimulus"":""blank"",""time"":2005.699999999255},{""stimulus"":""https://ziweizhang0304.github.io/Stats_learning_trig/img/Stim/FN_007_g.png"",""time"":2040.7999999998137},{""stimulus"":""blank"",""time"":2344.899999999441},{""stimulus"":""https://ziweizhang0304.github.io/Stats_learning_trig/img/Stim/FN_017_g.png"",""time"":2381.7999999998137},{""stimulus"":""blank"",""time"":2686.699999999255},{""stimulus"":""https://ziweizhang0304.github.io/Stats_learning_trig/img/Stim/FN_010_g.png"",""time"":2722.5999999996275},{""stimulus"":""blank"",""time"":3023},{""stimulus"":""https://ziweizhang0304.github.io/Stats_learning_trig/img/Stim/FN_011_g.png"",""time"":3065.0999999996275},{""stimulus"":""blank"",""time"":3365.2999999998137},{""stimulus"":""https://ziweizhang0304.github.io/Stats_learning_trig/img/Stim/FN_023_g.png"",""time"":3404.5},{""stimulus"":""blank"",""time"":3708.5999999996275},{""stimulus"":""https://ziweizhang0304.github.io/Stats_learning_trig/img/Stim/FN_014_g.png"",""time"":3745.899999999441},{""stimulus"":""blank"",""time"":4046.199999999255},{""stimulus"":""https://ziweizhang0304.github.io/Stats_learning_trig/img/Stim/FN_018_g.png"",""time"":4084.699999999255},{""stimulus"":""blank"",""time"":4389.899999999441}]","[{""key_press"":32,""rt"":1803.6000000005588,""stimulus"":""https://ziweizhang0304.github.io/Stats_learning_trig/img/Stim/FN_008_g.png""}]","438.7000000011176","https://ziweizhang0304.github.io/Stats_learning_trig/img/Stim/FN_013_g.png","post_prac","","","","","","","","","","","","",""
"","html-keyboard-response","11","83893","0.0-3.0-2.0-2.0","3048.399999999441","","","<p>Your reaction time for this trial was 438.7 ms.</p><p>Remember that you should only press the SPACEBAR when you see the shape presented at the beginning of the trial. </b> </p><p>Press enter to move on.</p>","13","","","","","","","","","","","","","","","","","",""
"","instructions","12","153073","0.0-4.0","69179.10000000056","","[{""page_index"":0,""viewing_time"":69178.99999999907}]","","","","","","","","","","","","","","","","","","","",""
"","image-keyboard-response","13","158018","0.0-5.0-0.0-0.0","4944.4000000003725","","","https://ziweizhang0304.github.io/Stats_learning_trig/img/Stim/FN_008_g.png","13","","","","","","","","","","","","","","","","","",""
"","animation","14","162440","0.0-5.0-0.0-1.0","","","","","","[{""stimulus"":""https://ziweizhang0304.github.io/Stats_learning_trig/img/Stim/FN_005_g.png"",""time"":346},{""stimulus"":""blank"",""time"":649.7000000011176},{""stimulus"":""https://ziweizhang0304.github.io/Stats_learning_trig/img/Stim/FN_018_g.png"",""time"":683.7000000011176},{""stimulus"":""blank"",""time"":988.2000000011176},{""stimulus"":""https://ziweizhang0304.github.io/Stats_learning_trig/img/Stim/FN_010_g.png"",""time"":1021.8000000007451},{""stimulus"":""blank"",""time"":1322.800000000745},{""stimulus"":""https://ziweizhang0304.github.io/Stats_learning_trig/img/Stim/FN_021_g.png"",""time"":1364.1000000014901},{""stimulus"":""blank"",""time"":1666.5},{""stimulus"":""https://ziweizhang0304.github.io/Stats_learning_trig/img/Stim/FN_014_g.png"",""time"":1700.800000000745},{""stimulus"":""blank"",""time"":2001.6000000014901},{""stimulus"":""https://ziweizhang0304.github.io/Stats_learning_trig/img/Stim/FN_013_g.png"",""time"":2045.9000000003725},{""stimulus"":""blank"",""time"":2349.7000000011176},{""stimulus"":""https://ziweizhang0304.github.io/Stats_learning_trig/img/Stim/FN_008_g.png"",""time"":2383.7000000011176},{""stimulus"":""blank"",""time"":2688.10000000149},{""stimulus"":""https://ziweizhang0304.github.io/Stats_learning_trig/img/Stim/FN_007_g.png"",""time"":2721.800000000745},{""stimulus"":""blank"",""time"":3023.800000000745},{""stimulus"":""https://ziweizhang0304.github.io/Stats_learning_trig/img/Stim/FN_017_g.png"",""time"":3064.800000000745},{""stimulus"":""blank"",""time"":3366.60000000149},{""stimulus"":""https://ziweizhang0304.github.io/Stats_learning_trig/img/Stim/FN_011_g.png"",""time"":3400.800000000745},{""stimulus"":""blank"",""time"":3704.10000000149},{""stimulus"":""https://ziweizhang0304.github.io/Stats_learning_trig/img/Stim/FN_026_g.png"",""time"":3745.9000000003725},{""stimulus"":""blank"",""time"":4049.7000000011176},{""stimulus"":""https://ziweizhang0304.github.io/Stats_learning_trig/img/Stim/FN_023_g.png"",""time"":4084},{""stimulus"":""blank"",""time"":4387.60000000149}]","[{""key_press"":32,""rt"":2802.5,""stimulus"":""https://ziweizhang0304.github.io/Stats_learning_trig/img/Stim/FN_007_g.png""}]","418.7999999988824","https://ziweizhang0304.github.io/Stats_learning_trig/img/Stim/FN_008_g.png","post_TD","1","2383.7000000011176","2802.5","fast","7","2","5d74001d391b6600175f433b","","","","","",""
"","image-keyboard-response","15","165455","0.0-5.0-1.0-0.0","3012.5999999996275","","","https://ziweizhang0304.github.io/Stats_learning_trig/img/Stim/FN_007_g.png","13","","","","","","","","","","","","","","","","","",""
"","animation","16","169877","0.0-5.0-1.0-1.0","","","","","","[{""stimulus"":""https://ziweizhang0304.github.io/Stats_learning_trig/img/Stim/FN_005_g.png"",""time"":342.6000000014901},{""stimulus"":""blank"",""time"":644.9000000003725},{""stimulus"":""https://ziweizhang0304.github.io/Stats_learning_trig/img/Stim/FN_026_g.png"",""time"":681},{""stimulus"":""blank"",""time"":981.3000000007451},{""stimulus"":""https://ziweizhang0304.github.io/Stats_learning_trig/img/Stim/FN_021_g.png"",""time"":1023.6000000014901},{""stimulus"":""blank"",""time"":1326.5},{""stimulus"":""https://ziweizhang0304.github.io/Stats_learning_trig/img/Stim/FN_013_g.png"",""time"":1362.5},{""stimulus"":""blank"",""time"":1665.1000000014901},{""stimulus"":""https://ziweizhang0304.github.io/Stats_learning_trig/img/Stim/FN_008_g.png"",""time"":1705.9000000003725},{""stimulus"":""blank"",""time"":2006.4000000003725},{""stimulus"":""https://ziweizhang0304.github.io/Stats_learning_trig/img/Stim/FN_007_g.png"",""time"":2041.4000000003725},{""stimulus"":""blank"",""time"":2344.4000000003725},{""stimulus"":""https://ziweizhang0304.github.io/Stats_learning_trig/img/Stim/FN_017_g.png"",""time"":2381.10000000149},{""stimulus"":""blank"",""time"":2682.10000000149},{""stimulus"":""https://ziweizhang0304.github.io/Stats_learning_trig/img/Stim/FN_010_g.png"",""time"":2723.800000000745},{""stimulus"":""blank"",""time"":3024.10000000149},{""stimulus"":""https://ziweizhang0304.github.io/Stats_learning_trig/img/Stim/FN_011_g.png"",""time"":3062.300000000745},{""stimulus"":""blank"",""time"":3363.300000000745},{""stimulus"":""https://ziweizhang0304.github.io/Stats_learning_trig/img/Stim/FN_023_g.png"",""time"":3403.9000000003725},{""stimulus"":""blank"",""time"":3708.10000000149},{""stimulus"":""https://ziweizhang0304.github.io/Stats_learning_trig/img/Stim/FN_014_g.png"",""time"":3743.300000000745},{""stimulus"":""blank"",""time"":4045.300000000745},{""stimulus"":""https://ziweizhang0304.github.io/Stats_learning_trig/img/Stim/FN_018_g.png"",""time"":4081},{""stimulus"":""blank"",""time"":4382.200000001118}]","[{""key_press"":32,""rt"":2413.39999999851,""stimulus"":""https://ziweizhang0304.github.io/Stats_learning_trig/img/Stim/FN_017_g.png""}]","371.99999999813735","https://ziweizhang0304.github.io/Stats_learning_trig/img/Stim/FN_007_g.png","post_TD","2","2041.4000000003725","2413.39999999851","fast","6","3","5d74001d391b6600175f433b","","","","","",""
"","image-keyboard-response","17","171920","0.0-5.0-2.0-0.0","2041.5999999996275","","","https://ziweizhang0304.github.io/Stats_learning_trig/img/Stim/FN_013_g.png","13","","","","","","","","","","","","","","","","","",""
"","animation","18","176343","0.0-5.0-2.0-1.0","","","","","","[{""stimulus"":""https://ziweizhang0304.github.io/Stats_learning_trig/img/Stim/FN_005_g.png"",""time"":344.5},{""stimulus"":""blank"",""time"":644.6999999992549},{""stimulus"":""https://ziweizhang0304.github.io/Stats_learning_trig/img/Stim/FN_018_g.png"",""time"":681.6999999992549},{""stimulus"":""blank"",""time"":986.0999999996275},{""stimulus"":""https://ziweizhang0304.github.io/Stats_learning_trig/img/Stim/FN_010_g.png"",""time"":1021.1999999992549},{""stimulus"":""blank"",""time"":1323.699999999255},{""stimulus"":""https://ziweizhang0304.github.io/Stats_learning_trig/img/Stim/FN_021_g.png"",""time"":1360.9000000003725},{""stimulus"":""blank"",""time"":1664.7999999988824},{""stimulus"":""https://ziweizhang0304.github.io/Stats_learning_trig/img/Stim/FN_014_g.png"",""time"":1704},{""stimulus"":""blank"",""time"":2007.0999999996275},{""stimulus"":""https://ziweizhang0304.github.io/Stats_learning_trig/img/Stim/FN_013_g.png"",""time"":2042.4000000003725},{""stimulus"":""blank"",""time"":2346.5999999996275},{""stimulus"":""https://ziweizhang0304.github.io/Stats_learning_trig/img/Stim/FN_008_g.png"",""time"":2381.7999999988824},{""stimulus"":""blank"",""time"":2683.199999999255},{""stimulus"":""https://ziweizhang0304.github.io/Stats_learning_trig/img/Stim/FN_007_g.png"",""time"":2722.2999999988824},{""stimulus"":""blank"",""time"":3025.2999999988824},{""stimulus"":""https://ziweizhang0304.github.io/Stats_learning_trig/img/Stim/FN_017_g.png"",""time"":3064.699999999255},{""stimulus"":""blank"",""time"":3364.9000000003725},{""stimulus"":""https://ziweizhang0304.github.io/Stats_learning_trig/img/Stim/FN_011_g.png"",""time"":3404},{""stimulus"":""blank"",""time"":3707.5},{""stimulus"":""https://ziweizhang0304.github.io/Stats_learning_trig/img/Stim/FN_026_g.png"",""time"":3742.199999999255},{""stimulus"":""blank"",""time"":4046.4000000003725},{""stimulus"":""https://ziweizhang0304.github.io/Stats_learning_trig/img/Stim/FN_023_g.png"",""time"":4081.5999999996275},{""stimulus"":""blank"",""time"":4382.199999999255}]","[{""key_press"":32,""rt"":1054.199999999255,""stimulus"":""https://ziweizhang0304.github.io/Stats_learning_trig/img/Stim/FN_010_g.png""},{""key_press"":32,""rt"":2146.0999999996275,""stimulus"":""https://ziweizhang0304.github.io/Stats_learning_trig/img/Stim/FN_013_g.png""}]","103.69999999925494","https://ziweizhang0304.github.io/Stats_learning_trig/img/Stim/FN_013_g.png","post_TD","3","2042.4000000003725","2146.0999999996275","fast","6","1","5d74001d391b6600175f433b","","","","","",""
"","image-keyboard-response","19","178560","0.0-5.0-3.0-0.0","2215.5","","","https://ziweizhang0304.github.io/Stats_learning_trig/img/Stim/FN_009_g.png","13","","","","","","","","","","","","","","","","","",""
"","animation","20","182985","0.0-5.0-3.0-1.0","","","","","","[{""stimulus"":""https://ziweizhang0304.github.io/Stats_learning_trig/img/Stim/FN_005_g.png"",""time"":344.7000000011176},{""stimulus"":""blank"",""time"":649.4000000003725},{""stimulus"":""https://ziweizhang0304.github.io/Stats_learning_trig/img/Stim/FN_011_g.png"",""time"":682.5},{""stimulus"":""blank"",""time"":984.4000000003725},{""stimulus"":""https://ziweizhang0304.github.io/Stats_learning_trig/img/Stim/FN_017_g.png"",""time"":1025.0999999996275},{""stimulus"":""blank"",""time"":1325.800000000745},{""stimulus"":""https://ziweizhang0304.github.io/Stats_learning_trig/img/Stim/FN_019_g.png"",""time"":1360.9000000003725},{""stimulus"":""blank"",""time"":1664.0999999996275},{""stimulus"":""https://ziweizhang0304.github.io/Stats_learning_trig/img/Stim/FN_009_g.png"",""time"":1701},{""stimulus"":""blank"",""time"":2005.2000000011176},{""stimulus"":""https://ziweizhang0304.github.io/Stats_learning_trig/img/Stim/FN_016_g.png"",""time"":2040.5999999996275},{""stimulus"":""blank"",""time"":2341.9000000003725},{""stimulus"":""https://ziweizhang0304.github.io/Stats_learning_trig/img/Stim/FN_021_g.png"",""time"":2382.5999999996275},{""stimulus"":""blank"",""time"":2685.5},{""stimulus"":""https://ziweizhang0304.github.io/Stats_learning_trig/img/Stim/FN_010_g.png"",""time"":2723.7000000011176},{""stimulus"":""blank"",""time"":3024},{""stimulus"":""https://ziweizhang0304.github.io/Stats_learning_trig/img/Stim/FN_026_g.png"",""time"":3064.0999999996275},{""stimulus"":""blank"",""time"":3364.5},{""stimulus"":""https://ziweizhang0304.github.io/Stats_learning_trig/img/Stim/FN_023_g.png"",""time"":3401},{""stimulus"":""blank"",""time"":3702.5999999996275},{""stimulus"":""https://ziweizhang0304.github.io/Stats_learning_trig/img/Stim/FN_014_g.png"",""time"":3741.5999999996275},{""stimulus"":""blank"",""time"":4042.4000000003725},{""stimulus"":""https://ziweizhang0304.github.io/Stats_learning_trig/img/Stim/FN_018_g.png"",""time"":4082.300000000745},{""stimulus"":""blank"",""time"":4385.0999999996275}]","[{""key_press"":32,""rt"":2095.0999999996275,""stimulus"":""https://ziweizhang0304.github.io/Stats_learning_trig/img/Stim/FN_016_g.png""}]","394.09999999962747","https://ziweizhang0304.github.io/Stats_learning_trig/img/Stim/FN_009_g.png","post_TD","4","1701","2095.0999999996275","slow","5","2","5d74001d391b6600175f433b","","","","","",""
"","image-keyboard-response","21","184865","0.0-5.0-4.0-0.0","1877.9000000003725","","","https://ziweizhang0304.github.io/Stats_learning_trig/img/Stim/FN_009_g.png","13","","","","","","","","","","","","","","","","","",""
"","animation","22","189286","0.0-5.0-4.0-1.0","","","","","","[{""stimulus"":""https://ziweizhang0304.github.io/Stats_learning_trig/img/Stim/FN_023_g.png"",""time"":346.09999999962747},{""stimulus"":""blank"",""time"":647},{""stimulus"":""https://ziweizhang0304.github.io/Stats_learning_trig/img/Stim/FN_011_g.png"",""time"":683.5},{""stimulus"":""blank"",""time"":983.9000000003725},{""stimulus"":""https://ziweizhang0304.github.io/Stats_learning_trig/img/Stim/FN_017_g.png"",""time"":1021.0999999996275},{""stimulus"":""blank"",""time"":1321.9000000003725},{""stimulus"":""https://ziweizhang0304.github.io/Stats_learning_trig/img/Stim/FN_014_g.png"",""time"":1363.0999999996275},{""stimulus"":""blank"",""time"":1667.5999999996275},{""stimulus"":""https://ziweizhang0304.github.io/Stats_learning_trig/img/Stim/FN_019_g.png"",""time"":1701},{""stimulus"":""blank"",""time"":2003},{""stimulus"":""https://ziweizhang0304.github.io/Stats_learning_trig/img/Stim/FN_009_g.png"",""time"":2045},{""stimulus"":""blank"",""time"":2347},{""stimulus"":""https://ziweizhang0304.github.io/Stats_learning_trig/img/Stim/FN_016_g.png"",""time"":2381.4000000003725},{""stimulus"":""blank"",""time"":2685},{""stimulus"":""https://ziweizhang0304.github.io/Stats_learning_trig/img/Stim/FN_005_g.png"",""time"":2721.0999999996275},{""stimulus"":""blank"",""time"":3021.7999999988824},{""stimulus"":""https://ziweizhang0304.github.io/Stats_learning_trig/img/Stim/FN_021_g.png"",""time"":3063.0999999996275},{""stimulus"":""blank"",""time"":3367.199999999255},{""stimulus"":""https://ziweizhang0304.github.io/Stats_learning_trig/img/Stim/FN_010_g.png"",""time"":3401},{""stimulus"":""blank"",""time"":3703},{""stimulus"":""https://ziweizhang0304.github.io/Stats_learning_trig/img/Stim/FN_026_g.png"",""time"":3744.5},{""stimulus"":""blank"",""time"":4047.0999999996275},{""stimulus"":""https://ziweizhang0304.github.io/Stats_learning_trig/img/Stim/FN_018_g.png"",""time"":4081.199999999255},{""stimulus"":""blank"",""time"":4384.699999999255}]","[{""key_press"":32,""rt"":2441.9000000003725,""stimulus"":""https://ziweizhang0304.github.io/Stats_learning_trig/img/Stim/FN_016_g.png""}]","396.90000000037253","https://ziweizhang0304.github.io/Stats_learning_trig/img/Stim/FN_009_g.png","post_TD","5","2045","2441.9000000003725","slow","6","2","5d74001d391b6600175f433b","","","","","",""
"","image-keyboard-response","23","190902","0.0-5.0-5.0-0.0","1614.800000000745","","","https://ziweizhang0304.github.io/Stats_learning_trig/img/Stim/FN_013_g.png","13","","","","","","","","","","","","","","","","","",""
"","animation","24","195326","0.0-5.0-5.0-1.0","","","","","","[{""stimulus"":""https://ziweizhang0304.github.io/Stats_learning_trig/img/Stim/FN_010_g.png"",""time"":343.09999999962747},{""stimulus"":""blank"",""time"":644.6999999992549},{""stimulus"":""https://ziweizhang0304.github.io/Stats_learning_trig/img/Stim/FN_018_g.png"",""time"":682.6999999992549},{""stimulus"":""blank"",""time"":983.3999999985099},{""stimulus"":""https://ziweizhang0304.github.io/Stats_learning_trig/img/Stim/FN_023_g.png"",""time"":1021.5999999996275},{""stimulus"":""blank"",""time"":1325.8999999985099},{""stimulus"":""https://ziweizhang0304.github.io/Stats_learning_trig/img/Stim/FN_005_g.png"",""time"":1366.199999999255},{""stimulus"":""blank"",""time"":1667.3999999985099},{""stimulus"":""https://ziweizhang0304.github.io/Stats_learning_trig/img/Stim/FN_017_g.png"",""time"":1703.0999999996275},{""stimulus"":""blank"",""time"":2007.7999999988824},{""stimulus"":""https://ziweizhang0304.github.io/Stats_learning_trig/img/Stim/FN_014_g.png"",""time"":2043},{""stimulus"":""blank"",""time"":2344.5999999996275},{""stimulus"":""https://ziweizhang0304.github.io/Stats_learning_trig/img/Stim/FN_013_g.png"",""time"":2382.7999999988824},{""stimulus"":""blank"",""time"":2683.5999999996275},{""stimulus"":""https://ziweizhang0304.github.io/Stats_learning_trig/img/Stim/FN_008_g.png"",""time"":2724.699999999255},{""stimulus"":""blank"",""time"":3028.5},{""stimulus"":""https://ziweizhang0304.github.io/Stats_learning_trig/img/Stim/FN_007_g.png"",""time"":3063.5},{""stimulus"":""blank"",""time"":3363.7999999988824},{""stimulus"":""https://ziweizhang0304.github.io/Stats_learning_trig/img/Stim/FN_021_g.png"",""time"":3405.5999999996275},{""stimulus"":""blank"",""time"":3709.39999999851},{""stimulus"":""https://ziweizhang0304.github.io/Stats_learning_trig/img/Stim/FN_011_g.png"",""time"":3742.699999999255},{""stimulus"":""blank"",""time"":4046.2999999988824},{""stimulus"":""https://ziweizhang0304.github.io/Stats_learning_trig/img/Stim/FN_026_g.png"",""time"":4082.199999999255},{""stimulus"":""blank"",""time"":4383.5}]","[{""key_press"":32,""rt"":2814.800000000745,""stimulus"":""https://ziweizhang0304.github.io/Stats_learning_trig/img/Stim/FN_008_g.png""}]","432.00000000186265","https://ziweizhang0304.github.io/Stats_learning_trig/img/Stim/FN_013_g.png","post_TD","6","2382.7999999988824","2814.800000000745","fast","7","1","5d74001d391b6600175f433b","","","","","",""
"","image-keyboard-response","25","196955","0.0-5.0-6.0-0.0","1627.7999999988824","","","https://ziweizhang0304.github.io/Stats_learning_trig/img/Stim/FN_007_g.png","13","","","","","","","","","","","","","","","","","",""
"","animation","26","201379","0.0-5.0-6.0-1.0","","","","","","[{""stimulus"":""https://ziweizhang0304.github.io/Stats_learning_trig/img/Stim/FN_005_g.png"",""time"":343.2999999988824},{""stimulus"":""blank"",""time"":647.5999999996275},{""stimulus"":""https://ziweizhang0304.github.io/Stats_learning_trig/img/Stim/FN_018_g.png"",""time"":680.6999999992549},{""stimulus"":""blank"",""time"":982},{""stimulus"":""https://ziweizhang0304.github.io/Stats_learning_trig/img/Stim/FN_026_g.png"",""time"":1023.1999999992549},{""stimulus"":""blank"",""time"":1326.699999999255},{""stimulus"":""https://ziweizhang0304.github.io/Stats_learning_trig/img/Stim/FN_011_g.png"",""time"":1361.5},{""stimulus"":""blank"",""time"":1664},{""stimulus"":""https://ziweizhang0304.github.io/Stats_learning_trig/img/Stim/FN_013_g.png"",""time"":1705.7999999988824},{""stimulus"":""blank"",""time"":2011.199999999255},{""stimulus"":""https://ziweizhang0304.github.io/Stats_learning_trig/img/Stim/FN_008_g.png"",""time"":2043.5},{""stimulus"":""blank"",""time"":2347.199999999255},{""stimulus"":""https://ziweizhang0304.github.io/Stats_learning_trig/img/Stim/FN_007_g.png"",""time"":2381},{""stimulus"":""blank"",""time"":2681.699999999255},{""stimulus"":""https://ziweizhang0304.github.io/Stats_learning_trig/img/Stim/FN_021_g.png"",""time"":2723.2999999988824},{""stimulus"":""blank"",""time"":3024.199999999255},{""stimulus"":""https://ziweizhang0304.github.io/Stats_learning_trig/img/Stim/FN_017_g.png"",""time"":3062.699999999255},{""stimulus"":""blank"",""time"":3364.5999999996275},{""stimulus"":""https://ziweizhang0304.github.io/Stats_learning_trig/img/Stim/FN_010_g.png"",""time"":3405.7999999988824},{""stimulus"":""blank"",""time"":3706.2999999988824},{""stimulus"":""https://ziweizhang0304.github.io/Stats_learning_trig/img/Stim/FN_023_g.png"",""time"":3740.5999999996275},{""stimulus"":""blank"",""time"":4043.5},{""stimulus"":""https://ziweizhang0304.github.io/Stats_learning_trig/img/Stim/FN_014_g.png"",""time"":4081.199999999255},{""stimulus"":""blank"",""time"":4381.799999998882}]","[{""key_press"":32,""rt"":2780.0999999996275,""stimulus"":""https://ziweizhang0304.github.io/Stats_learning_trig/img/Stim/FN_021_g.png""}]","399.09999999962747","https://ziweizhang0304.github.io/Stats_learning_trig/img/Stim/FN_007_g.png","post_TD","7","2381","2780.0999999996275","fast","7","3","5d74001d391b6600175f433b","","","","","",""
"","image-keyboard-response","27","203382","0.0-5.0-7.0-0.0","2001.300000000745","","","https://ziweizhang0304.github.io/Stats_learning_trig/img/Stim/FN_016_g.png","13","","","","","","","","","","","","","","","","","",""
"","animation","28","207807","0.0-5.0-7.0-1.0","","","","","","[{""stimulus"":""https://ziweizhang0304.github.io/Stats_learning_trig/img/Stim/FN_005_g.png"",""time"":344},{""stimulus"":""blank"",""time"":645.8000000007451},{""stimulus"":""https://ziweizhang0304.github.io/Stats_learning_trig/img/Stim/FN_014_g.png"",""time"":680.9000000003725},{""stimulus"":""blank"",""time"":986.3000000007451},{""stimulus"":""https://ziweizhang0304.github.io/Stats_learning_trig/img/Stim/FN_011_g.png"",""time"":1024.699999999255},{""stimulus"":""blank"",""time"":1330},{""stimulus"":""https://ziweizhang0304.github.io/Stats_learning_trig/img/Stim/FN_017_g.png"",""time"":1362.9000000003725},{""stimulus"":""blank"",""time"":1664.9000000003725},{""stimulus"":""https://ziweizhang0304.github.io/Stats_learning_trig/img/Stim/FN_026_g.png"",""time"":1702.800000000745},{""stimulus"":""blank"",""time"":2004.199999999255},{""stimulus"":""https://ziweizhang0304.github.io/Stats_learning_trig/img/Stim/FN_019_g.png"",""time"":2044.5999999996275},{""stimulus"":""blank"",""time"":2348.5},{""stimulus"":""https://ziweizhang0304.github.io/Stats_learning_trig/img/Stim/FN_009_g.png"",""time"":2383.5},{""stimulus"":""blank"",""time"":2686.4000000003725},{""stimulus"":""https://ziweizhang0304.github.io/Stats_learning_trig/img/Stim/FN_016_g.png"",""time"":2723.300000000745},{""stimulus"":""blank"",""time"":3027.5999999996275},{""stimulus"":""https://ziweizhang0304.github.io/Stats_learning_trig/img/Stim/FN_021_g.png"",""time"":3062.800000000745},{""stimulus"":""blank"",""time"":3365.300000000745},{""stimulus"":""https://ziweizhang0304.github.io/Stats_learning_trig/img/Stim/FN_010_g.png"",""time"":3403.699999999255},{""stimulus"":""blank"",""time"":3704.300000000745},{""stimulus"":""https://ziweizhang0304.github.io/Stats_learning_trig/img/Stim/FN_023_g.png"",""time"":3744.199999999255},{""stimulus"":""blank"",""time"":4048.0999999996275},{""stimulus"":""https://ziweizhang0304.github.io/Stats_learning_trig/img/Stim/FN_018_g.png"",""time"":4082.9000000003725},{""stimulus"":""blank"",""time"":4384.5}]","[{""key_press"":32,""rt"":3129.5,""stimulus"":""https://ziweizhang0304.github.io/Stats_learning_trig/img/Stim/FN_021_g.png""}]","406.19999999925494","https://ziweizhang0304.github.io/Stats_learning_trig/img/Stim/FN_016_g.png","post_TD","8","2723.300000000745","3129.5","slow","8","3","5d74001d391b6600175f433b","","","","","",""
"","image-keyboard-response","29","209169","0.0-5.0-8.0-0.0","1360.2999999988824","","","https://ziweizhang0304.github.io/Stats_learning_trig/img/Stim/FN_008_g.png","13","","","","","","","","","","","","","","","","","",""
"","animation","30","213589","0.0-5.0-8.0-1.0","","","","","","[{""stimulus"":""https://ziweizhang0304.github.io/Stats_learning_trig/img/Stim/FN_010_g.png"",""time"":340.80000000074506},{""stimulus"":""blank"",""time"":641.4000000003725},{""stimulus"":""https://ziweizhang0304.github.io/Stats_learning_trig/img/Stim/FN_018_g.png"",""time"":682.8000000007451},{""stimulus"":""blank"",""time"":984.0999999996275},{""stimulus"":""https://ziweizhang0304.github.io/Stats_learning_trig/img/Stim/FN_023_g.png"",""time"":1022.5},{""stimulus"":""blank"",""time"":1322.9000000003725},{""stimulus"":""https://ziweizhang0304.github.io/Stats_learning_trig/img/Stim/FN_005_g.png"",""time"":1363.5999999996275},{""stimulus"":""blank"",""time"":1665.2000000011176},{""stimulus"":""https://ziweizhang0304.github.io/Stats_learning_trig/img/Stim/FN_017_g.png"",""time"":1701.4000000003725},{""stimulus"":""blank"",""time"":2002.9000000003725},{""stimulus"":""https://ziweizhang0304.github.io/Stats_learning_trig/img/Stim/FN_014_g.png"",""time"":2043.5999999996275},{""stimulus"":""blank"",""time"":2344.5},{""stimulus"":""https://ziweizhang0304.github.io/Stats_learning_trig/img/Stim/FN_013_g.png"",""time"":2382},{""stimulus"":""blank"",""time"":2685.800000000745},{""stimulus"":""https://ziweizhang0304.github.io/Stats_learning_trig/img/Stim/FN_008_g.png"",""time"":2721.300000000745},{""stimulus"":""blank"",""time"":3022.5999999996275},{""stimulus"":""https://ziweizhang0304.github.io/Stats_learning_trig/img/Stim/FN_007_g.png"",""time"":3065.7000000011176},{""stimulus"":""blank"",""time"":3367.5999999996275},{""stimulus"":""https://ziweizhang0304.github.io/Stats_learning_trig/img/Stim/FN_021_g.png"",""time"":3401.5999999996275},{""stimulus"":""blank"",""time"":3703.5},{""stimulus"":""https://ziweizhang0304.github.io/Stats_learning_trig/img/Stim/FN_011_g.png"",""time"":3741.2000000011176},{""stimulus"":""blank"",""time"":4041.5999999996275},{""stimulus"":""https://ziweizhang0304.github.io/Stats_learning_trig/img/Stim/FN_026_g.png"",""time"":4081.800000000745},{""stimulus"":""blank"",""time"":4385.9000000003725}]","[{""key_press"":32,""rt"":3122.300000000745,""stimulus"":""https://ziweizhang0304.github.io/Stats_learning_trig/img/Stim/FN_007_g.png""}]","401","https://ziweizhang0304.github.io/Stats_learning_trig/img/Stim/FN_008_g.png","post_TD","9","2721.300000000745","3122.300000000745","fast","8","2","5d74001d391b6600175f433b","","","","","",""
"","image-keyboard-response","31","214719","0.0-5.0-9.0-0.0","1127.5999999996275","","","https://ziweizhang0304.github.io/Stats_learning_trig/img/Stim/FN_007_g.png","13","","","","","","","","","","","","","","","","","",""
"","animation","32","219139","0.0-5.0-9.0-1.0","","","","","","[{""stimulus"":""https://ziweizhang0304.github.io/Stats_learning_trig/img/Stim/FN_010_g.png"",""time"":346.09999999962747},{""stimulus"":""blank"",""time"":649.4000000003725},{""stimulus"":""https://ziweizhang0304.github.io/Stats_learning_trig/img/Stim/FN_018_g.png"",""time"":684.4000000003725},{""stimulus"":""blank"",""time"":989.0999999996275},{""stimulus"":""https://ziweizhang0304.github.io/Stats_learning_trig/img/Stim/FN_023_g.png"",""time"":1022},{""stimulus"":""blank"",""time"":1323.199999999255},{""stimulus"":""https://ziweizhang0304.github.io/Stats_learning_trig/img/Stim/FN_005_g.png"",""time"":1362.4000000003725},{""stimulus"":""blank"",""time"":1667.199999999255},{""stimulus"":""https://ziweizhang0304.github.io/Stats_learning_trig/img/Stim/FN_017_g.png"",""time"":1702.4000000003725},{""stimulus"":""blank"",""time"":2005},{""stimulus"":""https://ziweizhang0304.github.io/Stats_learning_trig/img/Stim/FN_014_g.png"",""time"":2045.9000000003725},{""stimulus"":""blank"",""time"":2347.0999999996275},{""stimulus"":""https://ziweizhang0304.github.io/Stats_learning_trig/img/Stim/FN_013_g.png"",""time"":2384.300000000745},{""stimulus"":""blank"",""time"":2688.9000000003725},{""stimulus"":""https://ziweizhang0304.github.io/Stats_learning_trig/img/Stim/FN_008_g.png"",""time"":2721.9000000003725},{""stimulus"":""blank"",""time"":3023},{""stimulus"":""https://ziweizhang0304.github.io/Stats_learning_trig/img/Stim/FN_007_g.png"",""time"":3064.0999999996275},{""stimulus"":""blank"",""time"":3365.5},{""stimulus"":""https://ziweizhang0304.github.io/Stats_learning_trig/img/Stim/FN_021_g.png"",""time"":3403.5},{""stimulus"":""blank"",""time"":3706.5},{""stimulus"":""https://ziweizhang0304.github.io/Stats_learning_trig/img/Stim/FN_011_g.png"",""time"":3741.9000000003725},{""stimulus"":""blank"",""time"":4047.199999999255},{""stimulus"":""https://ziweizhang0304.github.io/Stats_learning_trig/img/Stim/FN_026_g.png"",""time"":4082.800000000745},{""stimulus"":""blank"",""time"":4382.9000000003725}]","[{""key_press"":32,""rt"":3125.0999999996275,""stimulus"":""https://ziweizhang0304.github.io/Stats_learning_trig/img/Stim/FN_007_g.png""}]","61","https://ziweizhang0304.github.io/Stats_learning_trig/img/Stim/FN_007_g.png","post_TD","10","3064.0999999996275","3125.0999999996275","fast","9","3","5d74001d391b6600175f433b","","","","","",""
"","image-keyboard-response","33","220265","0.0-5.0-10.0-0.0","1124.199999999255","","","https://ziweizhang0304.github.io/Stats_learning_trig/img/Stim/FN_019_g.png","13","","","","","","","","","","","","","","","","","",""
"","animation","34","224687","0.0-5.0-10.0-1.0","","","","","","[{""stimulus"":""https://ziweizhang0304.github.io/Stats_learning_trig/img/Stim/FN_005_g.png"",""time"":345.90000000037253},{""stimulus"":""blank"",""time"":646.5},{""stimulus"":""https://ziweizhang0304.github.io/Stats_learning_trig/img/Stim/FN_014_g.png"",""time"":684.1999999992549},{""stimulus"":""blank"",""time"":984.9000000003725},{""stimulus"":""https://ziweizhang0304.github.io/Stats_learning_trig/img/Stim/FN_011_g.png"",""time"":1021.1999999992549},{""stimulus"":""blank"",""time"":1321.699999999255},{""stimulus"":""https://ziweizhang0304.github.io/Stats_learning_trig/img/Stim/FN_017_g.png"",""time"":1365.4000000003725},{""stimulus"":""blank"",""time"":1667.0999999996275},{""stimulus"":""https://ziweizhang0304.github.io/Stats_learning_trig/img/Stim/FN_026_g.png"",""time"":1701},{""stimulus"":""blank"",""time"":2002.5},{""stimulus"":""https://ziweizhang0304.github.io/Stats_learning_trig/img/Stim/FN_019_g.png"",""time"":2045.199999999255},{""stimulus"":""blank"",""time"":2346},{""stimulus"":""https://ziweizhang0304.github.io/Stats_learning_trig/img/Stim/FN_009_g.png"",""time"":2381},{""stimulus"":""blank"",""time"":2683.699999999255},{""stimulus"":""https://ziweizhang0304.github.io/Stats_learning_trig/img/Stim/FN_016_g.png"",""time"":2720.699999999255},{""stimulus"":""blank"",""time"":3021.199999999255},{""stimulus"":""https://ziweizhang0304.github.io/Stats_learning_trig/img/Stim/FN_021_g.png"",""time"":3063.199999999255},{""stimulus"":""blank"",""time"":3367.4000000003725},{""stimulus"":""https://ziweizhang0304.github.io/Stats_learning_trig/img/Stim/FN_010_g.png"",""time"":3400.7999999988824},{""stimulus"":""blank"",""time"":3702.5},{""stimulus"":""https://ziweizhang0304.github.io/Stats_learning_trig/img/Stim/FN_023_g.png"",""time"":3745.699999999255},{""stimulus"":""blank"",""time"":4046},{""stimulus"":""https://ziweizhang0304.github.io/Stats_learning_trig/img/Stim/FN_018_g.png"",""time"":4082.5999999996275},{""stimulus"":""blank"",""time"":4384.199999999255}]","[{""key_press"":32,""rt"":2447.0999999996275,""stimulus"":""https://ziweizhang0304.github.io/Stats_learning_trig/img/Stim/FN_009_g.png""}]","401.90000000037253","https://ziweizhang0304.github.io/Stats_learning_trig/img/Stim/FN_019_g.png","post_TD","11","2045.199999999255","2447.0999999996275","slow","6","1","5d74001d391b6600175f433b","","","","","",""
"","image-keyboard-response","35","226124","0.0-5.0-11.0-0.0","1433.2000000011176","","","https://ziweizhang0304.github.io/Stats_learning_trig/img/Stim/FN_007_g.png","13","","","","","","","","","","","","","","","","","",""
"","animation","36","230547","0.0-5.0-11.0-1.0","","","","","","[{""stimulus"":""https://ziweizhang0304.github.io/Stats_learning_trig/img/Stim/FN_005_g.png"",""time"":344.59999999962747},{""stimulus"":""blank"",""time"":644.9000000003725},{""stimulus"":""https://ziweizhang0304.github.io/Stats_learning_trig/img/Stim/FN_018_g.png"",""time"":684.9000000003725},{""stimulus"":""blank"",""time"":986.0999999996275},{""stimulus"":""https://ziweizhang0304.github.io/Stats_learning_trig/img/Stim/FN_010_g.png"",""time"":1020.9000000003725},{""stimulus"":""blank"",""time"":1324.199999999255},{""stimulus"":""https://ziweizhang0304.github.io/Stats_learning_trig/img/Stim/FN_021_g.png"",""time"":1360.9000000003725},{""stimulus"":""blank"",""time"":1661.4000000003725},{""stimulus"":""https://ziweizhang0304.github.io/Stats_learning_trig/img/Stim/FN_014_g.png"",""time"":1704.300000000745},{""stimulus"":""blank"",""time"":2006.800000000745},{""stimulus"":""https://ziweizhang0304.github.io/Stats_learning_trig/img/Stim/FN_013_g.png"",""time"":2041.300000000745},{""stimulus"":""blank"",""time"":2343.4000000003725},{""stimulus"":""https://ziweizhang0304.github.io/Stats_learning_trig/img/Stim/FN_008_g.png"",""time"":2383.4000000003725},{""stimulus"":""blank"",""time"":2687.699999999255},{""stimulus"":""https://ziweizhang0304.github.io/Stats_learning_trig/img/Stim/FN_007_g.png"",""time"":2720.800000000745},{""stimulus"":""blank"",""time"":3024.0999999996275},{""stimulus"":""https://ziweizhang0304.github.io/Stats_learning_trig/img/Stim/FN_017_g.png"",""time"":3061.0999999996275},{""stimulus"":""blank"",""time"":3361.800000000745},{""stimulus"":""https://ziweizhang0304.github.io/Stats_learning_trig/img/Stim/FN_011_g.png"",""time"":3402},{""stimulus"":""blank"",""time"":3705.4000000003725},{""stimulus"":""https://ziweizhang0304.github.io/Stats_learning_trig/img/Stim/FN_026_g.png"",""time"":3740.800000000745},{""stimulus"":""blank"",""time"":4042.800000000745},{""stimulus"":""https://ziweizhang0304.github.io/Stats_learning_trig/img/Stim/FN_023_g.png"",""time"":4083.300000000745},{""stimulus"":""blank"",""time"":4387.4000000003725}]","[{""key_press"":32,""rt"":3114.9000000003725,""stimulus"":""https://ziweizhang0304.github.io/Stats_learning_trig/img/Stim/FN_017_g.png""}]","394.09999999962747","https://ziweizhang0304.github.io/Stats_learning_trig/img/Stim/FN_007_g.png","post_TD","12","2720.800000000745","3114.9000000003725","fast","8","3","5d74001d391b6600175f433b","","","","","",""
"","image-keyboard-response","37","231939","0.0-5.0-12.0-0.0","1390.2000000011176","","","https://ziweizhang0304.github.io/Stats_learning_trig/img/Stim/FN_013_g.png","13","","","","","","","","","","","","","","","","","",""
"","animation","38","236361","0.0-5.0-12.0-1.0","","","","","","[{""stimulus"":""https://ziweizhang0304.github.io/Stats_learning_trig/img/Stim/FN_005_g.png"",""time"":343.80000000074506},{""stimulus"":""blank"",""time"":648.3000000007451},{""stimulus"":""https://ziweizhang0304.github.io/Stats_learning_trig/img/Stim/FN_018_g.png"",""time"":682.5},{""stimulus"":""blank"",""time"":985.2000000011176},{""stimulus"":""https://ziweizhang0304.github.io/Stats_learning_trig/img/Stim/FN_026_g.png"",""time"":1021.8000000007451},{""stimulus"":""blank"",""time"":1323},{""stimulus"":""https://ziweizhang0304.github.io/Stats_learning_trig/img/Stim/FN_011_g.png"",""time"":1362.4000000003725},{""stimulus"":""blank"",""time"":1666.5999999996275},{""stimulus"":""https://ziweizhang0304.github.io/Stats_learning_trig/img/Stim/FN_013_g.png"",""time"":1701.800000000745},{""stimulus"":""blank"",""time"":2003},{""stimulus"":""https://ziweizhang0304.github.io/Stats_learning_trig/img/Stim/FN_008_g.png"",""time"":2043.9000000003725},{""stimulus"":""blank"",""time"":2345},{""stimulus"":""https://ziweizhang0304.github.io/Stats_learning_trig/img/Stim/FN_007_g.png"",""time"":2383.4000000003725},{""stimulus"":""blank"",""time"":2686.800000000745},{""stimulus"":""https://ziweizhang0304.github.io/Stats_learning_trig/img/Stim/FN_021_g.png"",""time"":2721.9000000003725},{""stimulus"":""blank"",""time"":3022.7000000011176},{""stimulus"":""https://ziweizhang0304.github.io/Stats_learning_trig/img/Stim/FN_017_g.png"",""time"":3062.2000000011176},{""stimulus"":""blank"",""time"":3365.5999999996275},{""stimulus"":""https://ziweizhang0304.github.io/Stats_learning_trig/img/Stim/FN_010_g.png"",""time"":3401.9000000003725},{""stimulus"":""blank"",""time"":3703.4000000003725},{""stimulus"":""https://ziweizhang0304.github.io/Stats_learning_trig/img/Stim/FN_023_g.png"",""time"":3743.5},{""stimulus"":""blank"",""time"":4044},{""stimulus"":""https://ziweizhang0304.github.io/Stats_learning_trig/img/Stim/FN_014_g.png"",""time"":4083.9000000003725},{""stimulus"":""blank"",""time"":4387.5}]","[{""key_press"":32,""rt"":2190.0999999996275,""stimulus"":""https://ziweizhang0304.github.io/Stats_learning_trig/img/Stim/FN_008_g.png""}]","488.2999999988824","https://ziweizhang0304.github.io/Stats_learning_trig/img/Stim/FN_013_g.png","post_TD","13","1701.800000000745","2190.0999999996275","fast","5","1","5d74001d391b6600175f433b","","","","","",""
"","image-keyboard-response","39","237628","0.0-5.0-13.0-0.0","1265.300000000745","","","https://ziweizhang0304.github.io/Stats_learning_trig/img/Stim/FN_009_g.png","13","","","","","","","","","","","","","","","","","",""
"","animation","40","242053","0.0-5.0-13.0-1.0","","","","","","[{""stimulus"":""https://ziweizhang0304.github.io/Stats_learning_trig/img/Stim/FN_005_g.png"",""time"":341},{""stimulus"":""blank"",""time"":642},{""stimulus"":""https://ziweizhang0304.github.io/Stats_learning_trig/img/Stim/FN_014_g.png"",""time"":682.4000000003725},{""stimulus"":""blank"",""time"":983.8000000007451},{""stimulus"":""https://ziweizhang0304.github.io/Stats_learning_trig/img/Stim/FN_011_g.png"",""time"":1022.9000000003725},{""stimulus"":""blank"",""time"":1326.7000000011176},{""stimulus"":""https://ziweizhang0304.github.io/Stats_learning_trig/img/Stim/FN_017_g.png"",""time"":1361.7000000011176},{""stimulus"":""blank"",""time"":1663.0999999996275},{""stimulus"":""https://ziweizhang0304.github.io/Stats_learning_trig/img/Stim/FN_026_g.png"",""time"":1705.800000000745},{""stimulus"":""blank"",""time"":2006.7000000011176},{""stimulus"":""https://ziweizhang0304.github.io/Stats_learning_trig/img/Stim/FN_019_g.png"",""time"":2041.5},{""stimulus"":""blank"",""time"":2342.300000000745},{""stimulus"":""https://ziweizhang0304.github.io/Stats_learning_trig/img/Stim/FN_009_g.png"",""time"":2384.2000000011176},{""stimulus"":""blank"",""time"":2684.7000000011176},{""stimulus"":""https://ziweizhang0304.github.io/Stats_learning_trig/img/Stim/FN_016_g.png"",""time"":2721.9000000003725},{""stimulus"":""blank"",""time"":3026.7000000011176},{""stimulus"":""https://ziweizhang0304.github.io/Stats_learning_trig/img/Stim/FN_021_g.png"",""time"":3061.800000000745},{""stimulus"":""blank"",""time"":3363.2000000011176},{""stimulus"":""https://ziweizhang0304.github.io/Stats_learning_trig/img/Stim/FN_010_g.png"",""time"":3405.9000000003725},{""stimulus"":""blank"",""time"":3707.7000000011176},{""stimulus"":""https://ziweizhang0304.github.io/Stats_learning_trig/img/Stim/FN_023_g.png"",""time"":3741.0999999996275},{""stimulus"":""blank"",""time"":4041.800000000745},{""stimulus"":""https://ziweizhang0304.github.io/Stats_learning_trig/img/Stim/FN_018_g.png"",""time"":4084.0999999996275},{""stimulus"":""blank"",""time"":4384.700000001118}]","[{""key_press"":32,""rt"":2721.4000000003725,""stimulus"":""blank""}]","337.19999999925494","https://ziweizhang0304.github.io/Stats_learning_trig/img/Stim/FN_009_g.png","post_TD","14","2384.2000000011176","2721.4000000003725","slow","7","2","5d74001d391b6600175f433b","","","","","",""
"","image-keyboard-response","41","243008","0.0-5.0-14.0-0.0","953.5999999996275","","","https://ziweizhang0304.github.io/Stats_learning_trig/img/Stim/FN_019_g.png","13","","","","","","","","","","","","","","","","","",""
"","animation","42","247430","0.0-5.0-14.0-1.0","","","","","","[{""stimulus"":""https://ziweizhang0304.github.io/Stats_learning_trig/img/Stim/FN_005_g.png"",""time"":341.59999999962747},{""stimulus"":""blank"",""time"":645.0999999996275},{""stimulus"":""https://ziweizhang0304.github.io/Stats_learning_trig/img/Stim/FN_011_g.png"",""time"":681.4000000003725},{""stimulus"":""blank"",""time"":982.6999999992549},{""stimulus"":""https://ziweizhang0304.github.io/Stats_learning_trig/img/Stim/FN_017_g.png"",""time"":1025.9000000003725},{""stimulus"":""blank"",""time"":1329.199999999255},{""stimulus"":""https://ziweizhang0304.github.io/Stats_learning_trig/img/Stim/FN_019_g.png"",""time"":1361.4000000003725},{""stimulus"":""blank"",""time"":1661.699999999255},{""stimulus"":""https://ziweizhang0304.github.io/Stats_learning_trig/img/Stim/FN_009_g.png"",""time"":1704.300000000745},{""stimulus"":""blank"",""time"":2006.199999999255},{""stimulus"":""https://ziweizhang0304.github.io/Stats_learning_trig/img/Stim/FN_016_g.png"",""time"":2043.4000000003725},{""stimulus"":""blank"",""time"":2347.300000000745},{""stimulus"":""https://ziweizhang0304.github.io/Stats_learning_trig/img/Stim/FN_021_g.png"",""time"":2381.800000000745},{""stimulus"":""blank"",""time"":2683.199999999255},{""stimulus"":""https://ziweizhang0304.github.io/Stats_learning_trig/img/Stim/FN_010_g.png"",""time"":2725.9000000003725},{""stimulus"":""blank"",""time"":3029.300000000745},{""stimulus"":""https://ziweizhang0304.github.io/Stats_learning_trig/img/Stim/FN_026_g.png"",""time"":3061.5},{""stimulus"":""blank"",""time"":3362.4000000003725},{""stimulus"":""https://ziweizhang0304.github.io/Stats_learning_trig/img/Stim/FN_023_g.png"",""time"":3404.300000000745},{""stimulus"":""blank"",""time"":3704.699999999255},{""stimulus"":""https://ziweizhang0304.github.io/Stats_learning_trig/img/Stim/FN_014_g.png"",""time"":3743.199999999255},{""stimulus"":""blank"",""time"":4045.5999999996275},{""stimulus"":""https://ziweizhang0304.github.io/Stats_learning_trig/img/Stim/FN_018_g.png"",""time"":4081.4000000003725},{""stimulus"":""blank"",""time"":4382.800000000745}]","[{""key_press"":32,""rt"":1800.4000000003725,""stimulus"":""https://ziweizhang0304.github.io/Stats_learning_trig/img/Stim/FN_009_g.png""}]","439","https://ziweizhang0304.github.io/Stats_learning_trig/img/Stim/FN_019_g.png","post_TD","15","1361.4000000003725","1800.4000000003725","slow","4","1","5d74001d391b6600175f433b","","","","","",""
"","image-keyboard-response","43","248676","0.0-5.0-15.0-0.0","1244.199999999255","","","https://ziweizhang0304.github.io/Stats_learning_trig/img/Stim/FN_008_g.png","13","","","","","","","","","","","","","","","","","",""
"","animation","44","253100","0.0-5.0-15.0-1.0","","","","","","[{""stimulus"":""https://ziweizhang0304.github.io/Stats_learning_trig/img/Stim/FN_005_g.png"",""time"":342.2000000011176},{""stimulus"":""blank"",""time"":643.7000000011176},{""stimulus"":""https://ziweizhang0304.github.io/Stats_learning_trig/img/Stim/FN_026_g.png"",""time"":683.2000000011176},{""stimulus"":""blank"",""time"":984.8000000007451},{""stimulus"":""https://ziweizhang0304.github.io/Stats_learning_trig/img/Stim/FN_021_g.png"",""time"":1023.7000000011176},{""stimulus"":""blank"",""time"":1326.2000000011176},{""stimulus"":""https://ziweizhang0304.github.io/Stats_learning_trig/img/Stim/FN_013_g.png"",""time"":1361.1000000014901},{""stimulus"":""blank"",""time"":1661.5},{""stimulus"":""https://ziweizhang0304.github.io/Stats_learning_trig/img/Stim/FN_008_g.png"",""time"":1704.2000000011176},{""stimulus"":""blank"",""time"":2007.300000000745},{""stimulus"":""https://ziweizhang0304.github.io/Stats_learning_trig/img/Stim/FN_007_g.png"",""time"":2041.6000000014901},{""stimulus"":""blank"",""time"":2343.4000000003725},{""stimulus"":""https://ziweizhang0304.github.io/Stats_learning_trig/img/Stim/FN_017_g.png"",""time"":2385.9000000003725},{""stimulus"":""blank"",""time"":2691.300000000745},{""stimulus"":""https://ziweizhang0304.github.io/Stats_learning_trig/img/Stim/FN_010_g.png"",""time"":2723.9000000003725},{""stimulus"":""blank"",""time"":3027.7000000011176},{""stimulus"":""https://ziweizhang0304.github.io/Stats_learning_trig/img/Stim/FN_011_g.png"",""time"":3061.300000000745},{""stimulus"":""blank"",""time"":3361.800000000745},{""stimulus"":""https://ziweizhang0304.github.io/Stats_learning_trig/img/Stim/FN_023_g.png"",""time"":3403.60000000149},{""stimulus"":""blank"",""time"":3705.800000000745},{""stimulus"":""https://ziweizhang0304.github.io/Stats_learning_trig/img/Stim/FN_014_g.png"",""time"":3741.60000000149},{""stimulus"":""blank"",""time"":4044.4000000003725},{""stimulus"":""https://ziweizhang0304.github.io/Stats_learning_trig/img/Stim/FN_018_g.png"",""time"":4085},{""stimulus"":""blank"",""time"":4388.10000000149}]","[{""key_press"":32,""rt"":2120.89999999851,""stimulus"":""https://ziweizhang0304.github.io/Stats_learning_trig/img/Stim/FN_007_g.png""}]","416.6999999973923","https://ziweizhang0304.github.io/Stats_learning_trig/img/Stim/FN_008_g.png","post_TD","16","1704.2000000011176","2120.89999999851","fast","5","2","5d74001d391b6600175f433b","","","","","",""
"","image-keyboard-response","45","254232","0.0-5.0-16.0-0.0","1131","","","https://ziweizhang0304.github.io/Stats_learning_trig/img/Stim/FN_019_g.png","13","","","","","","","","","","","","","","","","","",""
"","animation","46","258655","0.0-5.0-16.0-1.0","","","","","","[{""stimulus"":""https://ziweizhang0304.github.io/Stats_learning_trig/img/Stim/FN_023_g.png"",""time"":341.7999999988824},{""stimulus"":""blank"",""time"":644.6999999992549},{""stimulus"":""https://ziweizhang0304.github.io/Stats_learning_trig/img/Stim/FN_011_g.png"",""time"":681.1999999992549},{""stimulus"":""blank"",""time"":981.3999999985099},{""stimulus"":""https://ziweizhang0304.github.io/Stats_learning_trig/img/Stim/FN_017_g.png"",""time"":1025.0999999996275},{""stimulus"":""blank"",""time"":1329.7999999988824},{""stimulus"":""https://ziweizhang0304.github.io/Stats_learning_trig/img/Stim/FN_014_g.png"",""time"":1362.7999999988824},{""stimulus"":""blank"",""time"":1665.5},{""stimulus"":""https://ziweizhang0304.github.io/Stats_learning_trig/img/Stim/FN_019_g.png"",""time"":1702.0999999996275},{""stimulus"":""blank"",""time"":2004.8999999985099},{""stimulus"":""https://ziweizhang0304.github.io/Stats_learning_trig/img/Stim/FN_009_g.png"",""time"":2042.5},{""stimulus"":""blank"",""time"":2344.5999999996275},{""stimulus"":""https://ziweizhang0304.github.io/Stats_learning_trig/img/Stim/FN_016_g.png"",""time"":2380.89999999851},{""stimulus"":""blank"",""time"":2681.699999999255},{""stimulus"":""https://ziweizhang0304.github.io/Stats_learning_trig/img/Stim/FN_005_g.png"",""time"":2725.39999999851},{""stimulus"":""blank"",""time"":3030.7999999988824},{""stimulus"":""https://ziweizhang0304.github.io/Stats_learning_trig/img/Stim/FN_021_g.png"",""time"":3062.89999999851},{""stimulus"":""blank"",""time"":3365.5},{""stimulus"":""https://ziweizhang0304.github.io/Stats_learning_trig/img/Stim/FN_010_g.png"",""time"":3400.699999999255},{""stimulus"":""blank"",""time"":3704.89999999851},{""stimulus"":""https://ziweizhang0304.github.io/Stats_learning_trig/img/Stim/FN_026_g.png"",""time"":3742.5},{""stimulus"":""blank"",""time"":4043.2999999988824},{""stimulus"":""https://ziweizhang0304.github.io/Stats_learning_trig/img/Stim/FN_018_g.png"",""time"":4081.199999999255},{""stimulus"":""blank"",""time"":4383}]","[{""key_press"":32,""rt"":2106.199999999255,""stimulus"":""https://ziweizhang0304.github.io/Stats_learning_trig/img/Stim/FN_009_g.png""}]","404.09999999962747","https://ziweizhang0304.github.io/Stats_learning_trig/img/Stim/FN_019_g.png","post_TD","17","1702.0999999996275","2106.199999999255","slow","5","1","5d74001d391b6600175f433b","","","","","",""
"","image-keyboard-response","47","259644","0.0-5.0-17.0-0.0","987.0999999996275","","","https://ziweizhang0304.github.io/Stats_learning_trig/img/Stim/FN_016_g.png","13","","","","","","","","","","","","","","","","","",""
"","animation","48","264065","0.0-5.0-17.0-1.0","","","","","","[{""stimulus"":""https://ziweizhang0304.github.io/Stats_learning_trig/img/Stim/FN_023_g.png"",""time"":341.2000000011176},{""stimulus"":""blank"",""time"":642},{""stimulus"":""https://ziweizhang0304.github.io/Stats_learning_trig/img/Stim/FN_017_g.png"",""time"":684.7000000011176},{""stimulus"":""blank"",""time"":985.1000000014901},{""stimulus"":""https://ziweizhang0304.github.io/Stats_learning_trig/img/Stim/FN_005_g.png"",""time"":1020.6000000014901},{""stimulus"":""blank"",""time"":1324.1000000014901},{""stimulus"":""https://ziweizhang0304.github.io/Stats_learning_trig/img/Stim/FN_026_g.png"",""time"":1365.7000000011176},{""stimulus"":""blank"",""time"":1668},{""stimulus"":""https://ziweizhang0304.github.io/Stats_learning_trig/img/Stim/FN_021_g.png"",""time"":1702.9000000003725},{""stimulus"":""blank"",""time"":2005.6000000014901},{""stimulus"":""https://ziweizhang0304.github.io/Stats_learning_trig/img/Stim/FN_011_g.png"",""time"":2040.7000000011176},{""stimulus"":""blank"",""time"":2341.5},{""stimulus"":""https://ziweizhang0304.github.io/Stats_learning_trig/img/Stim/FN_019_g.png"",""time"":2384.7000000011176},{""stimulus"":""blank"",""time"":2689.2000000011176},{""stimulus"":""https://ziweizhang0304.github.io/Stats_learning_trig/img/Stim/FN_009_g.png"",""time"":2722.7000000011176},{""stimulus"":""blank"",""time"":3023.5},{""stimulus"":""https://ziweizhang0304.github.io/Stats_learning_trig/img/Stim/FN_016_g.png"",""time"":3065.9000000003725},{""stimulus"":""blank"",""time"":3368.2000000011176},{""stimulus"":""https://ziweizhang0304.github.io/Stats_learning_trig/img/Stim/FN_010_g.png"",""time"":3403.10000000149},{""stimulus"":""blank"",""time"":3705.9000000003725},{""stimulus"":""https://ziweizhang0304.github.io/Stats_learning_trig/img/Stim/FN_014_g.png"",""time"":3740.7000000011176},{""stimulus"":""blank"",""time"":4041.7000000011176},{""stimulus"":""https://ziweizhang0304.github.io/Stats_learning_trig/img/Stim/FN_018_g.png"",""time"":4084.7000000011176},{""stimulus"":""blank"",""time"":4387.4000000003725}]","[{""key_press"":32,""rt"":3384.800000000745,""stimulus"":""blank""}]","318.90000000037253","https://ziweizhang0304.github.io/Stats_learning_trig/img/Stim/FN_016_g.png","post_TD","18","3065.9000000003725","3384.800000000745","slow","9","3","5d74001d391b6600175f433b","","","","","",""
"","image-keyboard-response","49","265206","0.0-5.0-18.0-0.0","1139.300000000745","","","https://ziweizhang0304.github.io/Stats_learning_trig/img/Stim/FN_019_g.png","13","","","","","","","","","","","","","","","","","",""
"","animation","50","269627","0.0-5.0-18.0-1.0","","","","","","[{""stimulus"":""https://ziweizhang0304.github.io/Stats_learning_trig/img/Stim/FN_023_g.png"",""time"":343.2999999988824},{""stimulus"":""blank"",""time"":646.9000000003725},{""stimulus"":""https://ziweizhang0304.github.io/Stats_learning_trig/img/Stim/FN_017_g.png"",""time"":681.7999999988824},{""stimulus"":""blank"",""time"":982.6999999992549},{""stimulus"":""https://ziweizhang0304.github.io/Stats_learning_trig/img/Stim/FN_005_g.png"",""time"":1025.5},{""stimulus"":""blank"",""time"":1330.699999999255},{""stimulus"":""https://ziweizhang0304.github.io/Stats_learning_trig/img/Stim/FN_026_g.png"",""time"":1361},{""stimulus"":""blank"",""time"":1662},{""stimulus"":""https://ziweizhang0304.github.io/Stats_learning_trig/img/Stim/FN_021_g.png"",""time"":1704.2999999988824},{""stimulus"":""blank"",""time"":2006},{""stimulus"":""https://ziweizhang0304.github.io/Stats_learning_trig/img/Stim/FN_011_g.png"",""time"":2041.0999999996275},{""stimulus"":""blank"",""time"":2344.7999999988824},{""stimulus"":""https://ziweizhang0304.github.io/Stats_learning_trig/img/Stim/FN_019_g.png"",""time"":2381},{""stimulus"":""blank"",""time"":2681.5},{""stimulus"":""https://ziweizhang0304.github.io/Stats_learning_trig/img/Stim/FN_009_g.png"",""time"":2725.2999999988824},{""stimulus"":""blank"",""time"":3030.4000000003725},{""stimulus"":""https://ziweizhang0304.github.io/Stats_learning_trig/img/Stim/FN_016_g.png"",""time"":3060.699999999255},{""stimulus"":""blank"",""time"":3361.4000000003725},{""stimulus"":""https://ziweizhang0304.github.io/Stats_learning_trig/img/Stim/FN_010_g.png"",""time"":3401.9000000003725},{""stimulus"":""blank"",""time"":3704.5999999996275},{""stimulus"":""https://ziweizhang0304.github.io/Stats_learning_trig/img/Stim/FN_014_g.png"",""time"":3742.699999999255},{""stimulus"":""blank"",""time"":4046.0999999996275},{""stimulus"":""https://ziweizhang0304.github.io/Stats_learning_trig/img/Stim/FN_018_g.png"",""time"":4081.0999999996275},{""stimulus"":""blank"",""time"":4382.5}]","[{""key_press"":32,""rt"":2807.5,""stimulus"":""https://ziweizhang0304.github.io/Stats_learning_trig/img/Stim/FN_009_g.png""}]","426.5","https://ziweizhang0304.github.io/Stats_learning_trig/img/Stim/FN_019_g.png","post_TD","19","2381","2807.5","slow","7","1","5d74001d391b6600175f433b","","","","","",""
"","image-keyboard-response","51","270601","0.0-5.0-19.0-0.0","973","","","https://ziweizhang0304.github.io/Stats_learning_trig/img/Stim/FN_009_g.png","13","","","","","","","","","","","","","","","","","",""
"","animation","52","275025","0.0-5.0-19.0-1.0","","","","","","[{""stimulus"":""https://ziweizhang0304.github.io/Stats_learning_trig/img/Stim/FN_023_g.png"",""time"":342},{""stimulus"":""blank"",""time"":643.8000000007451},{""stimulus"":""https://ziweizhang0304.github.io/Stats_learning_trig/img/Stim/FN_017_g.png"",""time"":683},{""stimulus"":""blank"",""time"":984.8000000007451},{""stimulus"":""https://ziweizhang0304.github.io/Stats_learning_trig/img/Stim/FN_005_g.png"",""time"":1024},{""stimulus"":""blank"",""time"":1327.800000000745},{""stimulus"":""https://ziweizhang0304.github.io/Stats_learning_trig/img/Stim/FN_026_g.png"",""time"":1362.800000000745},{""stimulus"":""blank"",""time"":1664.9000000003725},{""stimulus"":""https://ziweizhang0304.github.io/Stats_learning_trig/img/Stim/FN_021_g.png"",""time"":1705.5},{""stimulus"":""blank"",""time"":2009.5999999996275},{""stimulus"":""https://ziweizhang0304.github.io/Stats_learning_trig/img/Stim/FN_011_g.png"",""time"":2042.4000000003725},{""stimulus"":""blank"",""time"":2345.5999999996275},{""stimulus"":""https://ziweizhang0304.github.io/Stats_learning_trig/img/Stim/FN_019_g.png"",""time"":2383.7000000011176},{""stimulus"":""blank"",""time"":2684.300000000745},{""stimulus"":""https://ziweizhang0304.github.io/Stats_learning_trig/img/Stim/FN_009_g.png"",""time"":2723.5999999996275},{""stimulus"":""blank"",""time"":3028.2000000011176},{""stimulus"":""https://ziweizhang0304.github.io/Stats_learning_trig/img/Stim/FN_016_g.png"",""time"":3062.9000000003725},{""stimulus"":""blank"",""time"":3366.800000000745},{""stimulus"":""https://ziweizhang0304.github.io/Stats_learning_trig/img/Stim/FN_010_g.png"",""time"":3404},{""stimulus"":""blank"",""time"":3706.7000000011176},{""stimulus"":""https://ziweizhang0304.github.io/Stats_learning_trig/img/Stim/FN_014_g.png"",""time"":3741.9000000003725},{""stimulus"":""blank"",""time"":4043.7000000011176},{""stimulus"":""https://ziweizhang0304.github.io/Stats_learning_trig/img/Stim/FN_018_g.png"",""time"":4082.5999999996275},{""stimulus"":""blank"",""time"":4385.0999999996275}]","[{""key_press"":32,""rt"":3234.9000000003725,""stimulus"":""https://ziweizhang0304.github.io/Stats_learning_trig/img/Stim/FN_016_g.png""}]","511.30000000074506","https://ziweizhang0304.github.io/Stats_learning_trig/img/Stim/FN_009_g.png","post_TD","20","2723.5999999996275","3234.9000000003725","slow","8","2","5d74001d391b6600175f433b","","","","","",""
"","image-keyboard-response","53","275990","0.0-5.0-20.0-0.0","963.5","","","https://ziweizhang0304.github.io/Stats_learning_trig/img/Stim/FN_016_g.png","13","","","","","","","","","","","","","","","","","",""
"","animation","54","280412","0.0-5.0-20.0-1.0","","","","","","[{""stimulus"":""https://ziweizhang0304.github.io/Stats_learning_trig/img/Stim/FN_023_g.png"",""time"":342.19999999925494},{""stimulus"":""blank"",""time"":645.3999999985099},{""stimulus"":""https://ziweizhang0304.github.io/Stats_learning_trig/img/Stim/FN_011_g.png"",""time"":681.7999999988824},{""stimulus"":""blank"",""time"":984.3999999985099},{""stimulus"":""https://ziweizhang0304.github.io/Stats_learning_trig/img/Stim/FN_017_g.png"",""time"":1021.5999999996275},{""stimulus"":""blank"",""time"":1322.5999999996275},{""stimulus"":""https://ziweizhang0304.github.io/Stats_learning_trig/img/Stim/FN_014_g.png"",""time"":1365},{""stimulus"":""blank"",""time"":1669.8999999985099},{""stimulus"":""https://ziweizhang0304.github.io/Stats_learning_trig/img/Stim/FN_019_g.png"",""time"":1702.8999999985099},{""stimulus"":""blank"",""time"":2005.199999999255},{""stimulus"":""https://ziweizhang0304.github.io/Stats_learning_trig/img/Stim/FN_009_g.png"",""time"":2044.3999999985099},{""stimulus"":""blank"",""time"":2346.89999999851},{""stimulus"":""https://ziweizhang0304.github.io/Stats_learning_trig/img/Stim/FN_016_g.png"",""time"":2382},{""stimulus"":""blank"",""time"":2684.199999999255},{""stimulus"":""https://ziweizhang0304.github.io/Stats_learning_trig/img/Stim/FN_005_g.png"",""time"":2721},{""stimulus"":""blank"",""time"":3021.5},{""stimulus"":""https://ziweizhang0304.github.io/Stats_learning_trig/img/Stim/FN_021_g.png"",""time"":3065.39999999851},{""stimulus"":""blank"",""time"":3370.2999999988824},{""stimulus"":""https://ziweizhang0304.github.io/Stats_learning_trig/img/Stim/FN_010_g.png"",""time"":3401.699999999255},{""stimulus"":""blank"",""time"":3704},{""stimulus"":""https://ziweizhang0304.github.io/Stats_learning_trig/img/Stim/FN_026_g.png"",""time"":3744.0999999996275},{""stimulus"":""blank"",""time"":4044.39999999851},{""stimulus"":""https://ziweizhang0304.github.io/Stats_learning_trig/img/Stim/FN_018_g.png"",""time"":4081.89999999851},{""stimulus"":""blank"",""time"":4384.0999999996275}]","[{""key_press"":32,""rt"":2588.2999999988824,""stimulus"":""https://ziweizhang0304.github.io/Stats_learning_trig/img/Stim/FN_016_g.png""}]","206.2999999988824","https://ziweizhang0304.github.io/Stats_learning_trig/img/Stim/FN_016_g.png","post_TD","21","2382","2588.2999999988824","slow","7","3","5d74001d391b6600175f433b","","","","","",""
"","image-keyboard-response","55","280842","0.0-5.0-21.0-0.0","429.2000000011176","","","https://ziweizhang0304.github.io/Stats_learning_trig/img/Stim/FN_008_g.png","13","","","","","","","","","","","","","","","","","",""
"","animation","56","285266","0.0-5.0-21.0-1.0","","","","","","[{""stimulus"":""https://ziweizhang0304.github.io/Stats_learning_trig/img/Stim/FN_005_g.png"",""time"":340.80000000074506},{""stimulus"":""blank"",""time"":643.6000000014901},{""stimulus"":""https://ziweizhang0304.github.io/Stats_learning_trig/img/Stim/FN_018_g.png"",""time"":684.2000000011176},{""stimulus"":""blank"",""time"":988.2000000011176},{""stimulus"":""https://ziweizhang0304.github.io/Stats_learning_trig/img/Stim/FN_026_g.png"",""time"":1023.7000000011176},{""stimulus"":""blank"",""time"":1325.7000000011176},{""stimulus"":""https://ziweizhang0304.github.io/Stats_learning_trig/img/Stim/FN_011_g.png"",""time"":1360.800000000745},{""stimulus"":""blank"",""time"":1665.4000000003725},{""stimulus"":""https://ziweizhang0304.github.io/Stats_learning_trig/img/Stim/FN_013_g.png"",""time"":1702.9000000003725},{""stimulus"":""blank"",""time"":2005.300000000745},{""stimulus"":""https://ziweizhang0304.github.io/Stats_learning_trig/img/Stim/FN_008_g.png"",""time"":2040.6000000014901},{""stimulus"":""blank"",""time"":2343.9000000003725},{""stimulus"":""https://ziweizhang0304.github.io/Stats_learning_trig/img/Stim/FN_007_g.png"",""time"":2384.60000000149},{""stimulus"":""blank"",""time"":2689.800000000745},{""stimulus"":""https://ziweizhang0304.github.io/Stats_learning_trig/img/Stim/FN_021_g.png"",""time"":2722.60000000149},{""stimulus"":""blank"",""time"":3025.7000000011176},{""stimulus"":""https://ziweizhang0304.github.io/Stats_learning_trig/img/Stim/FN_017_g.png"",""time"":3060.7000000011176},{""stimulus"":""blank"",""time"":3365.4000000003725},{""stimulus"":""https://ziweizhang0304.github.io/Stats_learning_trig/img/Stim/FN_010_g.png"",""time"":3402.5},{""stimulus"":""blank"",""time"":3704.60000000149},{""stimulus"":""https://ziweizhang0304.github.io/Stats_learning_trig/img/Stim/FN_023_g.png"",""time"":3744.300000000745},{""stimulus"":""blank"",""time"":4044.7000000011176},{""stimulus"":""https://ziweizhang0304.github.io/Stats_learning_trig/img/Stim/FN_014_g.png"",""time"":4084.300000000745},{""stimulus"":""blank"",""time"":4388.200000001118}]","[{""key_press"":32,""rt"":2447.300000000745,""stimulus"":""https://ziweizhang0304.github.io/Stats_learning_trig/img/Stim/FN_007_g.png""}]","406.69999999925494","https://ziweizhang0304.github.io/Stats_learning_trig/img/Stim/FN_008_g.png","post_TD","22","2040.6000000014901","2447.300000000745","fast","6","2","5d74001d391b6600175f433b","","","","","",""
"","image-keyboard-response","57","286321","0.0-5.0-22.0-0.0","1053.699999999255","","","https://ziweizhang0304.github.io/Stats_learning_trig/img/Stim/FN_016_g.png","13","","","","","","","","","","","","","","","","","",""
"","animation","58","290744","0.0-5.0-22.0-1.0","","","","","","[{""stimulus"":""https://ziweizhang0304.github.io/Stats_learning_trig/img/Stim/FN_005_g.png"",""time"":346.2000000011176},{""stimulus"":""blank"",""time"":647.3000000007451},{""stimulus"":""https://ziweizhang0304.github.io/Stats_learning_trig/img/Stim/FN_011_g.png"",""time"":682.5},{""stimulus"":""blank"",""time"":987.2000000011176},{""stimulus"":""https://ziweizhang0304.github.io/Stats_learning_trig/img/Stim/FN_017_g.png"",""time"":1022.5},{""stimulus"":""blank"",""time"":1325.4000000003725},{""stimulus"":""https://ziweizhang0304.github.io/Stats_learning_trig/img/Stim/FN_019_g.png"",""time"":1364.4000000003725},{""stimulus"":""blank"",""time"":1665.2000000011176},{""stimulus"":""https://ziweizhang0304.github.io/Stats_learning_trig/img/Stim/FN_009_g.png"",""time"":1703.9000000003725},{""stimulus"":""blank"",""time"":2005.4000000003725},{""stimulus"":""https://ziweizhang0304.github.io/Stats_learning_trig/img/Stim/FN_016_g.png"",""time"":2045.9000000003725},{""stimulus"":""blank"",""time"":2346.5},{""stimulus"":""https://ziweizhang0304.github.io/Stats_learning_trig/img/Stim/FN_021_g.png"",""time"":2381.5},{""stimulus"":""blank"",""time"":2686.0999999996275},{""stimulus"":""https://ziweizhang0304.github.io/Stats_learning_trig/img/Stim/FN_010_g.png"",""time"":2721.9000000003725},{""stimulus"":""blank"",""time"":3024.5999999996275},{""stimulus"":""https://ziweizhang0304.github.io/Stats_learning_trig/img/Stim/FN_026_g.png"",""time"":3062.7000000011176},{""stimulus"":""blank"",""time"":3365.0999999996275},{""stimulus"":""https://ziweizhang0304.github.io/Stats_learning_trig/img/Stim/FN_023_g.png"",""time"":3404.4000000003725},{""stimulus"":""blank"",""time"":3708},{""stimulus"":""https://ziweizhang0304.github.io/Stats_learning_trig/img/Stim/FN_014_g.png"",""time"":3743},{""stimulus"":""blank"",""time"":4047.300000000745},{""stimulus"":""https://ziweizhang0304.github.io/Stats_learning_trig/img/Stim/FN_018_g.png"",""time"":4081.7000000011176},{""stimulus"":""blank"",""time"":4384.300000000745}]","[{""key_press"":32,""rt"":2249.800000000745,""stimulus"":""https://ziweizhang0304.github.io/Stats_learning_trig/img/Stim/FN_016_g.png""}]","203.90000000037253","https://ziweizhang0304.github.io/Stats_learning_trig/img/Stim/FN_016_g.png","post_TD","23","2045.9000000003725","2249.800000000745","slow","6","3","5d74001d391b6600175f433b","","","","","",""
"","image-keyboard-response","59","291440","0.0-5.0-23.0-0.0","695.2999999988824","","","https://ziweizhang0304.github.io/Stats_learning_trig/img/Stim/FN_013_g.png","13","","","","","","","","","","","","","","","","","",""
"","animation","60","295865","0.0-5.0-23.0-1.0","","","","","","[{""stimulus"":""https://ziweizhang0304.github.io/Stats_learning_trig/img/Stim/FN_005_g.png"",""time"":344.8999999985099},{""stimulus"":""blank"",""time"":646.5},{""stimulus"":""https://ziweizhang0304.github.io/Stats_learning_trig/img/Stim/FN_026_g.png"",""time"":684},{""stimulus"":""blank"",""time"":984.5999999996275},{""stimulus"":""https://ziweizhang0304.github.io/Stats_learning_trig/img/Stim/FN_021_g.png"",""time"":1024.8999999985099},{""stimulus"":""blank"",""time"":1325.5999999996275},{""stimulus"":""https://ziweizhang0304.github.io/Stats_learning_trig/img/Stim/FN_013_g.png"",""time"":1361.3999999985099},{""stimulus"":""blank"",""time"":1665.699999999255},{""stimulus"":""https://ziweizhang0304.github.io/Stats_learning_trig/img/Stim/FN_008_g.png"",""time"":1701.8999999985099},{""stimulus"":""blank"",""time"":2004.0999999996275},{""stimulus"":""https://ziweizhang0304.github.io/Stats_learning_trig/img/Stim/FN_007_g.png"",""time"":2043.5999999996275},{""stimulus"":""blank"",""time"":2346.199999999255},{""stimulus"":""https://ziweizhang0304.github.io/Stats_learning_trig/img/Stim/FN_017_g.png"",""time"":2381.39999999851},{""stimulus"":""blank"",""time"":2684.2999999988824},{""stimulus"":""https://ziweizhang0304.github.io/Stats_learning_trig/img/Stim/FN_010_g.png"",""time"":2725.7999999988824},{""stimulus"":""blank"",""time"":3027.5999999996275},{""stimulus"":""https://ziweizhang0304.github.io/Stats_learning_trig/img/Stim/FN_011_g.png"",""time"":3062.699999999255},{""stimulus"":""blank"",""time"":3367.2999999988824},{""stimulus"":""https://ziweizhang0304.github.io/Stats_learning_trig/img/Stim/FN_023_g.png"",""time"":3402.2999999988824},{""stimulus"":""blank"",""time"":3704.39999999851},{""stimulus"":""https://ziweizhang0304.github.io/Stats_learning_trig/img/Stim/FN_014_g.png"",""time"":3743.89999999851},{""stimulus"":""blank"",""time"":4044.0999999996275},{""stimulus"":""https://ziweizhang0304.github.io/Stats_learning_trig/img/Stim/FN_018_g.png"",""time"":4082.0999999996275},{""stimulus"":""blank"",""time"":4385.299999998882}]","[{""key_press"":32,""rt"":1878.7999999988824,""stimulus"":""https://ziweizhang0304.github.io/Stats_learning_trig/img/Stim/FN_008_g.png""}]","517.4000000003725","https://ziweizhang0304.github.io/Stats_learning_trig/img/Stim/FN_013_g.png","post_TD","24","1361.3999999985099","1878.7999999988824","fast","4","1","5d74001d391b6600175f433b","95151","","","","",""
"","survey-text","61","313518","0.0-6.0","17645.10000000149","","","","","","","","","","","","","","","","","","{""Q0"":""No strategies, I just waited for the right shape""}","","","",""
"","survey-text","62","328944","0.0-7.0","15423.200000001118","","","","","","","","","","","","","","","","","","{""[object Object]"":""Yes it was the same order""}","","","",""
"","instructions","63","337073","0.0-8.0","8128.299999998882","","[{""page_index"":0,""viewing_time"":8128}]","","","","","","","","","","","","","","","","","","","",""
"","free-sort","64","353870","0.0-9.0","16795.199999999255","","","","","","","","","post_drag","","","","fast","","","","","","[{""src"":""https://ziweizhang0304.github.io/Stats_learning_trig/img/Stim/FN_007_g.png"",""x"":475,""y"":0},{""src"":""https://ziweizhang0304.github.io/Stats_learning_trig/img/Stim/FN_008_g.png"",""x"":-225,""y"":50},{""src"":""https://ziweizhang0304.github.io/Stats_learning_trig/img/Stim/FN_013_g.png"",""x"":475,""y"":50}]","[{""src"":""https://ziweizhang0304.github.io/Stats_learning_trig/img/Stim/FN_008_g.png"",""x"":125,""y"":18},{""src"":""https://ziweizhang0304.github.io/Stats_learning_trig/img/Stim/FN_008_g.png"",""x"":23,""y"":18},{""src"":""https://ziweizhang0304.github.io/Stats_learning_trig/img/Stim/FN_007_g.png"",""x"":105,""y"":32},{""src"":""https://ziweizhang0304.github.io/Stats_learning_trig/img/Stim/FN_013_g.png"",""x"":214,""y"":34}]","[{""src"":""https://ziweizhang0304.github.io/Stats_learning_trig/img/Stim/FN_007_g.png"",""x"":105,""y"":32},{""src"":""https://ziweizhang0304.github.io/Stats_learning_trig/img/Stim/FN_008_g.png"",""x"":23,""y"":18},{""src"":""https://ziweizhang0304.github.io/Stats_learning_trig/img/Stim/FN_013_g.png"",""x"":214,""y"":34}]",""
"","free-sort","65","359802","0.0-10.0","5930.39999999851","","","","","","","","","post_drag","","","","slow","","","","","","[{""src"":""https://ziweizhang0304.github.io/Stats_learning_trig/img/Stim/FN_019_g.png"",""x"":475,""y"":0},{""src"":""https://ziweizhang0304.github.io/Stats_learning_trig/img/Stim/FN_016_g.png"",""x"":-225,""y"":50},{""src"":""https://ziweizhang0304.github.io/Stats_learning_trig/img/Stim/FN_009_g.png"",""x"":475,""y"":50}]","[{""src"":""https://ziweizhang0304.github.io/Stats_learning_trig/img/Stim/FN_016_g.png"",""x"":136,""y"":8},{""src"":""https://ziweizhang0304.github.io/Stats_learning_trig/img/Stim/FN_009_g.png"",""x"":51,""y"":34},{""src"":""https://ziweizhang0304.github.io/Stats_learning_trig/img/Stim/FN_019_g.png"",""x"":226,""y"":25}]","[{""src"":""https://ziweizhang0304.github.io/Stats_learning_trig/img/Stim/FN_019_g.png"",""x"":226,""y"":25},{""src"":""https://ziweizhang0304.github.io/Stats_learning_trig/img/Stim/FN_016_g.png"",""x"":136,""y"":8},{""src"":""https://ziweizhang0304.github.io/Stats_learning_trig/img/Stim/FN_009_g.png"",""x"":51,""y"":34}]",""
"","survey-multi-choice","66","367190","0.0-11.0","7385.5999999996275","","","","","","","","","","","","","","","","5d74001d391b6600175f433b","","{""awareness"":""Yes"",""attention_check"":""Press SPACEBAR to a target""}","","","","[0,1]"
