"success","trial_type","trial_index","time_elapsed","internal_node_id","rt","url","view_history","stimulus","key_press","animation_sequence","response","TD_rt","TD_target","test_part","TD_trial_number","onset","offset","attention_state","TD_target_position","TD_within_triplet_counter","participant","yoke_participant","responses","init_locations","moves","final_locations","question_order"
"true","fullscreen","0","9226","0.0-0.0","","","","","","","","","","","","","","","","","","","","","","",""
"","external-html","1","17089","0.0-1.0","7777.5","https://ziweizhang0304.github.io/Stats_learning_trig/content/consent.html","","","","","","","","","","","","","","","","","","","","",""
"","instructions","2","41360","0.0-2.0","24270.199999809265","","[{""page_index"":0,""viewing_time"":1755.8999998569489},{""page_index"":1,""viewing_time"":9149.700000047684},{""page_index"":2,""viewing_time"":11872.099999904633},{""page_index"":3,""viewing_time"":1492.1000001430511}]","","","","","","","","","","","","","","","","","","","",""
"","image-keyboard-response","3","47438","0.0-3.0-0.0-0.0","6077","","","https://ziweizhang0304.github.io/Stats_learning_trig/img/Stim/FN_006_g.png","13","","","","","","","","","","","","","","","","","",""
"","animation","4","51862","0.0-3.0-0.0-1.0","","","","","","[{""stimulus"":""https://ziweizhang0304.github.io/Stats_learning_trig/img/Stim/FN_023_g.png"",""time"":357.7999999523163},{""stimulus"":""blank"",""time"":670},{""stimulus"":""https://ziweizhang0304.github.io/Stats_learning_trig/img/Stim/FN_014_g.png"",""time"":685},{""stimulus"":""blank"",""time"":990.5999999046326},{""stimulus"":""https://ziweizhang0304.github.io/Stats_learning_trig/img/Stim/FN_001_g.png"",""time"":1022.7999999523163},{""stimulus"":""blank"",""time"":1336.2000000476837},{""stimulus"":""https://ziweizhang0304.github.io/Stats_learning_trig/img/Stim/FN_020_g.png"",""time"":1368.5},{""stimulus"":""blank"",""time"":1672.3999998569489},{""stimulus"":""https://ziweizhang0304.github.io/Stats_learning_trig/img/Stim/FN_024_g.png"",""time"":1704.7999999523163},{""stimulus"":""blank"",""time"":2016.2000000476837},{""stimulus"":""https://ziweizhang0304.github.io/Stats_learning_trig/img/Stim/FN_004_g.png"",""time"":2048.2999999523163},{""stimulus"":""blank"",""time"":2364.5},{""stimulus"":""https://ziweizhang0304.github.io/Stats_learning_trig/img/Stim/FN_012_g.png"",""time"":2387.899999856949},{""stimulus"":""blank"",""time"":2693.5},{""stimulus"":""https://ziweizhang0304.github.io/Stats_learning_trig/img/Stim/FN_006_g.png"",""time"":2725.5999999046326},{""stimulus"":""blank"",""time"":3042.0999999046326},{""stimulus"":""https://ziweizhang0304.github.io/Stats_learning_trig/img/Stim/FN_011_g.png"",""time"":3065.7000000476837},{""stimulus"":""blank"",""time"":3372.7999999523163},{""stimulus"":""https://ziweizhang0304.github.io/Stats_learning_trig/img/Stim/FN_016_g.png"",""time"":3404.899999856949},{""stimulus"":""blank"",""time"":3706.5},{""stimulus"":""https://ziweizhang0304.github.io/Stats_learning_trig/img/Stim/FN_008_g.png"",""time"":3763.5999999046326},{""stimulus"":""blank"",""time"":4064.399999856949},{""stimulus"":""https://ziweizhang0304.github.io/Stats_learning_trig/img/Stim/FN_013_g.png"",""time"":4087.5},{""stimulus"":""blank"",""time"":4400.5}]","[{""key_press"":32,""rt"":3130.5999999046326,""stimulus"":""https://ziweizhang0304.github.io/Stats_learning_trig/img/Stim/FN_011_g.png""}]","405","https://ziweizhang0304.github.io/Stats_learning_trig/img/Stim/FN_006_g.png","post_prac","","","","","","","","","","","","",""
"","html-keyboard-response","5","59093","0.0-3.0-0.0-2.0","7224.800000190735","","","<p>Your reaction time for this trial was 405 ms.</p><p>Remember that you should only press the SPACEBAR when you see the shape presented at the beginning of the trial. </b> </p><p>Press enter to move on.</p>","13","","","","","","","","","","","","","","","","","",""
"","image-keyboard-response","6","63260","0.0-3.0-1.0-0.0","4166.300000190735","","","https://ziweizhang0304.github.io/Stats_learning_trig/img/Stim/FN_025_g.png","13","","","","","","","","","","","","","","","","","",""
"","animation","7","67681","0.0-3.0-1.0-1.0","","","","","","[{""stimulus"":""https://ziweizhang0304.github.io/Stats_learning_trig/img/Stim/FN_024_g.png"",""time"":353.2999999523163},{""stimulus"":""blank"",""time"":654.0999999046326},{""stimulus"":""https://ziweizhang0304.github.io/Stats_learning_trig/img/Stim/FN_013_g.png"",""time"":694.2000000476837},{""stimulus"":""blank"",""time"":1002.7999999523163},{""stimulus"":""https://ziweizhang0304.github.io/Stats_learning_trig/img/Stim/FN_008_g.png"",""time"":1026.2999999523163},{""stimulus"":""blank"",""time"":1334.2000000476837},{""stimulus"":""https://ziweizhang0304.github.io/Stats_learning_trig/img/Stim/FN_012_g.png"",""time"":1366.2000000476837},{""stimulus"":""blank"",""time"":1681.0999999046326},{""stimulus"":""https://ziweizhang0304.github.io/Stats_learning_trig/img/Stim/FN_020_g.png"",""time"":1704.7999999523163},{""stimulus"":""blank"",""time"":2013.5999999046326},{""stimulus"":""https://ziweizhang0304.github.io/Stats_learning_trig/img/Stim/FN_014_g.png"",""time"":2046},{""stimulus"":""blank"",""time"":2348.7999999523163},{""stimulus"":""https://ziweizhang0304.github.io/Stats_learning_trig/img/Stim/FN_025_g.png"",""time"":2387.7999999523163},{""stimulus"":""blank"",""time"":2696.5999999046326},{""stimulus"":""https://ziweizhang0304.github.io/Stats_learning_trig/img/Stim/FN_007_g.png"",""time"":2728.5999999046326},{""stimulus"":""blank"",""time"":3047.0999999046326},{""stimulus"":""https://ziweizhang0304.github.io/Stats_learning_trig/img/Stim/FN_017_g.png"",""time"":3064.0999999046326},{""stimulus"":""blank"",""time"":3367.5999999046326},{""stimulus"":""https://ziweizhang0304.github.io/Stats_learning_trig/img/Stim/FN_011_g.png"",""time"":3401.5},{""stimulus"":""blank"",""time"":3715.0999999046326},{""stimulus"":""https://ziweizhang0304.github.io/Stats_learning_trig/img/Stim/FN_023_g.png"",""time"":3747.2999999523163},{""stimulus"":""blank"",""time"":4052.7999999523163},{""stimulus"":""https://ziweizhang0304.github.io/Stats_learning_trig/img/Stim/FN_001_g.png"",""time"":4084.7999999523163},{""stimulus"":""blank"",""time"":4397.299999952316}]","[{""key_press"":32,""rt"":2740.699999809265,""stimulus"":""https://ziweizhang0304.github.io/Stats_learning_trig/img/Stim/FN_007_g.png""}]","352.89999985694885","https://ziweizhang0304.github.io/Stats_learning_trig/img/Stim/FN_025_g.png","post_prac","","","","","","","","","","","","",""
"","html-keyboard-response","8","73681","0.0-3.0-1.0-2.0","5999.199999809265","","","<p>Your reaction time for this trial was 352.9 ms.</p><p>Remember that you should only press the SPACEBAR when you see the shape presented at the beginning of the trial. </b> </p><p>Press enter to move on.</p>","13","","","","","","","","","","","","","","","","","",""
"","image-keyboard-response","9","76935","0.0-3.0-2.0-0.0","3253.5999999046326","","","https://ziweizhang0304.github.io/Stats_learning_trig/img/Stim/FN_017_g.png","13","","","","","","","","","","","","","","","","","",""
"","animation","10","81359","0.0-3.0-2.0-1.0","","","","","","[{""stimulus"":""https://ziweizhang0304.github.io/Stats_learning_trig/img/Stim/FN_013_g.png"",""time"":345.09999990463257},{""stimulus"":""blank"",""time"":649.5},{""stimulus"":""https://ziweizhang0304.github.io/Stats_learning_trig/img/Stim/FN_011_g.png"",""time"":681.3999998569489},{""stimulus"":""blank"",""time"":990.3999998569489},{""stimulus"":""https://ziweizhang0304.github.io/Stats_learning_trig/img/Stim/FN_001_g.png"",""time"":1022.5},{""stimulus"":""blank"",""time"":1335},{""stimulus"":""https://ziweizhang0304.github.io/Stats_learning_trig/img/Stim/FN_020_g.png"",""time"":1367.2999999523163},{""stimulus"":""blank"",""time"":1667.7999999523163},{""stimulus"":""https://ziweizhang0304.github.io/Stats_learning_trig/img/Stim/FN_025_g.png"",""time"":1706.7999999523163},{""stimulus"":""blank"",""time"":2012.7999999523163},{""stimulus"":""https://ziweizhang0304.github.io/Stats_learning_trig/img/Stim/FN_007_g.png"",""time"":2044.8999998569489},{""stimulus"":""blank"",""time"":2345.5999999046326},{""stimulus"":""https://ziweizhang0304.github.io/Stats_learning_trig/img/Stim/FN_017_g.png"",""time"":2385.5999999046326},{""stimulus"":""blank"",""time"":2693.399999856949},{""stimulus"":""https://ziweizhang0304.github.io/Stats_learning_trig/img/Stim/FN_012_g.png"",""time"":2726},{""stimulus"":""blank"",""time"":3039.899999856949},{""stimulus"":""https://ziweizhang0304.github.io/Stats_learning_trig/img/Stim/FN_014_g.png"",""time"":3063.399999856949},{""stimulus"":""blank"",""time"":3366.2999999523163},{""stimulus"":""https://ziweizhang0304.github.io/Stats_learning_trig/img/Stim/FN_023_g.png"",""time"":3405.5999999046326},{""stimulus"":""blank"",""time"":3710},{""stimulus"":""https://ziweizhang0304.github.io/Stats_learning_trig/img/Stim/FN_024_g.png"",""time"":3740.7999999523163},{""stimulus"":""blank"",""time"":4056},{""stimulus"":""https://ziweizhang0304.github.io/Stats_learning_trig/img/Stim/FN_008_g.png"",""time"":4088.399999856949},{""stimulus"":""blank"",""time"":4390.799999952316}]","[{""key_press"":32,""rt"":2776.2000000476837,""stimulus"":""https://ziweizhang0304.github.io/Stats_learning_trig/img/Stim/FN_012_g.png""}]","390.60000014305115","https://ziweizhang0304.github.io/Stats_learning_trig/img/Stim/FN_017_g.png","post_prac","","","","","","","","","","","","",""
"","html-keyboard-response","11","83304","0.0-3.0-2.0-2.0","1943.9000000953674","","","<p>Your reaction time for this trial was 390.6 ms.</p><p>Remember that you should only press the SPACEBAR when you see the shape presented at the beginning of the trial. </b> </p><p>Press enter to move on.</p>","13","","","","","","","","","","","","","","","","","",""
"","instructions","12","85345","0.0-4.0","2041.2999999523163","","[{""page_index"":0,""viewing_time"":2041.0999999046326}]","","","","","","","","","","","","","","","","","","","",""
"","image-keyboard-response","13","87270","0.0-5.0-0.0-0.0","1923.8999998569489","","","https://ziweizhang0304.github.io/Stats_learning_trig/img/Stim/FN_004_g.png","13","","","","","","","","","","","","","","","","","",""
"","animation","14","91697","0.0-5.0-0.0-1.0","","","","","","[{""stimulus"":""https://ziweizhang0304.github.io/Stats_learning_trig/img/Stim/FN_011_g.png"",""time"":353.30000019073486},{""stimulus"":""blank"",""time"":655},{""stimulus"":""https://ziweizhang0304.github.io/Stats_learning_trig/img/Stim/FN_013_g.png"",""time"":687.4000000953674},{""stimulus"":""blank"",""time"":993.7000000476837},{""stimulus"":""https://ziweizhang0304.github.io/Stats_learning_trig/img/Stim/FN_001_g.png"",""time"":1025.8000001907349},{""stimulus"":""blank"",""time"":1333.2000000476837},{""stimulus"":""https://ziweizhang0304.github.io/Stats_learning_trig/img/Stim/FN_006_g.png"",""time"":1365.2000000476837},{""stimulus"":""blank"",""time"":1673.1000001430511},{""stimulus"":""https://ziweizhang0304.github.io/Stats_learning_trig/img/Stim/FN_004_g.png"",""time"":1712.9000000953674},{""stimulus"":""blank"",""time"":2020.9000000953674},{""stimulus"":""https://ziweizhang0304.github.io/Stats_learning_trig/img/Stim/FN_016_g.png"",""time"":2044.8000001907349},{""stimulus"":""blank"",""time"":2352.800000190735},{""stimulus"":""https://ziweizhang0304.github.io/Stats_learning_trig/img/Stim/FN_012_g.png"",""time"":2383.9000000953674},{""stimulus"":""blank"",""time"":2687.600000143051},{""stimulus"":""https://ziweizhang0304.github.io/Stats_learning_trig/img/Stim/FN_014_g.png"",""time"":2727.600000143051},{""stimulus"":""blank"",""time"":3039.100000143051},{""stimulus"":""https://ziweizhang0304.github.io/Stats_learning_trig/img/Stim/FN_023_g.png"",""time"":3062.4000000953674},{""stimulus"":""blank"",""time"":3371.800000190735},{""stimulus"":""https://ziweizhang0304.github.io/Stats_learning_trig/img/Stim/FN_020_g.png"",""time"":3403.800000190735},{""stimulus"":""blank"",""time"":3712.800000190735},{""stimulus"":""https://ziweizhang0304.github.io/Stats_learning_trig/img/Stim/FN_024_g.png"",""time"":3753.2000000476837},{""stimulus"":""blank"",""time"":4064.4000000953674},{""stimulus"":""https://ziweizhang0304.github.io/Stats_learning_trig/img/Stim/FN_008_g.png"",""time"":4088.100000143051},{""stimulus"":""blank"",""time"":4403.100000143051}]","[{""key_press"":32,""rt"":2119.5999999046326,""stimulus"":""https://ziweizhang0304.github.io/Stats_learning_trig/img/Stim/FN_016_g.png""}]","406.69999980926514","https://ziweizhang0304.github.io/Stats_learning_trig/img/Stim/FN_004_g.png","post_TD","1","1712.9000000953674","2119.5999999046326","slow","5","2","5ffc97615991d411f8ceff96","","","","","",""
"","image-keyboard-response","15","93251","0.0-5.0-1.0-0.0","1552.7999999523163","","","https://ziweizhang0304.github.io/Stats_learning_trig/img/Stim/FN_025_g.png","13","","","","","","","","","","","","","","","","","",""
"","animation","16","97677","0.0-5.0-1.0-1.0","","","","","","[{""stimulus"":""https://ziweizhang0304.github.io/Stats_learning_trig/img/Stim/FN_024_g.png"",""time"":345.89999985694885},{""stimulus"":""blank"",""time"":659.3999998569489},{""stimulus"":""https://ziweizhang0304.github.io/Stats_learning_trig/img/Stim/FN_013_g.png"",""time"":682.6999998092651},{""stimulus"":""blank"",""time"":985.3999998569489},{""stimulus"":""https://ziweizhang0304.github.io/Stats_learning_trig/img/Stim/FN_008_g.png"",""time"":1043.0999999046326},{""stimulus"":""blank"",""time"":1354.3999998569489},{""stimulus"":""https://ziweizhang0304.github.io/Stats_learning_trig/img/Stim/FN_012_g.png"",""time"":1369.5999999046326},{""stimulus"":""blank"",""time"":1678.7999999523163},{""stimulus"":""https://ziweizhang0304.github.io/Stats_learning_trig/img/Stim/FN_020_g.png"",""time"":1702.5999999046326},{""stimulus"":""blank"",""time"":2006.5999999046326},{""stimulus"":""https://ziweizhang0304.github.io/Stats_learning_trig/img/Stim/FN_014_g.png"",""time"":2047},{""stimulus"":""blank"",""time"":2354.5},{""stimulus"":""https://ziweizhang0304.github.io/Stats_learning_trig/img/Stim/FN_025_g.png"",""time"":2385.399999856949},{""stimulus"":""blank"",""time"":2698},{""stimulus"":""https://ziweizhang0304.github.io/Stats_learning_trig/img/Stim/FN_007_g.png"",""time"":2721.7999999523163},{""stimulus"":""blank"",""time"":3034.0999999046326},{""stimulus"":""https://ziweizhang0304.github.io/Stats_learning_trig/img/Stim/FN_017_g.png"",""time"":3066.5},{""stimulus"":""blank"",""time"":3380.199999809265},{""stimulus"":""https://ziweizhang0304.github.io/Stats_learning_trig/img/Stim/FN_011_g.png"",""time"":3403.7999999523163},{""stimulus"":""blank"",""time"":3713.199999809265},{""stimulus"":""https://ziweizhang0304.github.io/Stats_learning_trig/img/Stim/FN_023_g.png"",""time"":3745.2999999523163},{""stimulus"":""blank"",""time"":4048.199999809265},{""stimulus"":""https://ziweizhang0304.github.io/Stats_learning_trig/img/Stim/FN_001_g.png"",""time"":4081.399999856949},{""stimulus"":""blank"",""time"":4391.5}]","[{""key_press"":32,""rt"":2762.399999856949,""stimulus"":""https://ziweizhang0304.github.io/Stats_learning_trig/img/Stim/FN_007_g.png""}]","377","https://ziweizhang0304.github.io/Stats_learning_trig/img/Stim/FN_025_g.png","post_TD","2","2385.399999856949","2762.399999856949","fast","7","1","5ffc97615991d411f8ceff96","","","","","",""
"","image-keyboard-response","17","98192","0.0-5.0-2.0-0.0","514.1999998092651","","","https://ziweizhang0304.github.io/Stats_learning_trig/img/Stim/FN_017_g.png","13","","","","","","","","","","","","","","","","","",""
"","animation","18","102620","0.0-5.0-2.0-1.0","","","","","","[{""stimulus"":""https://ziweizhang0304.github.io/Stats_learning_trig/img/Stim/FN_020_g.png"",""time"":355.90000009536743},{""stimulus"":""blank"",""time"":663},{""stimulus"":""https://ziweizhang0304.github.io/Stats_learning_trig/img/Stim/FN_008_g.png"",""time"":686.7000000476837},{""stimulus"":""blank"",""time"":995.9000000953674},{""stimulus"":""https://ziweizhang0304.github.io/Stats_learning_trig/img/Stim/FN_013_g.png"",""time"":1028.2000000476837},{""stimulus"":""blank"",""time"":1338.3000001907349},{""stimulus"":""https://ziweizhang0304.github.io/Stats_learning_trig/img/Stim/FN_025_g.png"",""time"":1362.3000001907349},{""stimulus"":""blank"",""time"":1672.1000001430511},{""stimulus"":""https://ziweizhang0304.github.io/Stats_learning_trig/img/Stim/FN_007_g.png"",""time"":1704.3000001907349},{""stimulus"":""blank"",""time"":2005.6000001430511},{""stimulus"":""https://ziweizhang0304.github.io/Stats_learning_trig/img/Stim/FN_017_g.png"",""time"":2062.600000143051},{""stimulus"":""blank"",""time"":2378.5},{""stimulus"":""https://ziweizhang0304.github.io/Stats_learning_trig/img/Stim/FN_012_g.png"",""time"":2385.800000190735},{""stimulus"":""blank"",""time"":2687.100000143051},{""stimulus"":""https://ziweizhang0304.github.io/Stats_learning_trig/img/Stim/FN_014_g.png"",""time"":2727.2000000476837},{""stimulus"":""blank"",""time"":3036},{""stimulus"":""https://ziweizhang0304.github.io/Stats_learning_trig/img/Stim/FN_011_g.png"",""time"":3068.2000000476837},{""stimulus"":""blank"",""time"":3384},{""stimulus"":""https://ziweizhang0304.github.io/Stats_learning_trig/img/Stim/FN_023_g.png"",""time"":3407.600000143051},{""stimulus"":""blank"",""time"":3723.5},{""stimulus"":""https://ziweizhang0304.github.io/Stats_learning_trig/img/Stim/FN_001_g.png"",""time"":3747.100000143051},{""stimulus"":""blank"",""time"":4055.4000000953674},{""stimulus"":""https://ziweizhang0304.github.io/Stats_learning_trig/img/Stim/FN_024_g.png"",""time"":4086.800000190735},{""stimulus"":""blank"",""time"":4387.100000143051}]","[{""key_press"":32,""rt"":2458.5999999046326,""stimulus"":""https://ziweizhang0304.github.io/Stats_learning_trig/img/Stim/FN_012_g.png""}]","395.9999997615814","https://ziweizhang0304.github.io/Stats_learning_trig/img/Stim/FN_017_g.png","post_TD","3","2062.600000143051","2458.5999999046326","fast","6","3","5ffc97615991d411f8ceff96","","","","","",""
"","image-keyboard-response","19","104135","0.0-5.0-3.0-0.0","1513.9000000953674","","","https://ziweizhang0304.github.io/Stats_learning_trig/img/Stim/FN_004_g.png","13","","","","","","","","","","","","","","","","","",""
"","animation","20","108557","0.0-5.0-3.0-1.0","","","","","","[{""stimulus"":""https://ziweizhang0304.github.io/Stats_learning_trig/img/Stim/FN_008_g.png"",""time"":352.7000000476837},{""stimulus"":""blank"",""time"":666.3000001907349},{""stimulus"":""https://ziweizhang0304.github.io/Stats_learning_trig/img/Stim/FN_020_g.png"",""time"":681.6000001430511},{""stimulus"":""blank"",""time"":989.1000001430511},{""stimulus"":""https://ziweizhang0304.github.io/Stats_learning_trig/img/Stim/FN_024_g.png"",""time"":1020.9000000953674},{""stimulus"":""blank"",""time"":1321.3000001907349},{""stimulus"":""https://ziweizhang0304.github.io/Stats_learning_trig/img/Stim/FN_001_g.png"",""time"":1378},{""stimulus"":""blank"",""time"":1689.3000001907349},{""stimulus"":""https://ziweizhang0304.github.io/Stats_learning_trig/img/Stim/FN_006_g.png"",""time"":1704.5},{""stimulus"":""blank"",""time"":2015.3000001907349},{""stimulus"":""https://ziweizhang0304.github.io/Stats_learning_trig/img/Stim/FN_004_g.png"",""time"":2047.4000000953674},{""stimulus"":""blank"",""time"":2348.100000143051},{""stimulus"":""https://ziweizhang0304.github.io/Stats_learning_trig/img/Stim/FN_016_g.png"",""time"":2380.800000190735},{""stimulus"":""blank"",""time"":2695.5},{""stimulus"":""https://ziweizhang0304.github.io/Stats_learning_trig/img/Stim/FN_012_g.png"",""time"":2727.4000000953674},{""stimulus"":""blank"",""time"":3034.9000000953674},{""stimulus"":""https://ziweizhang0304.github.io/Stats_learning_trig/img/Stim/FN_014_g.png"",""time"":3066.800000190735},{""stimulus"":""blank"",""time"":3378.4000000953674},{""stimulus"":""https://ziweizhang0304.github.io/Stats_learning_trig/img/Stim/FN_011_g.png"",""time"":3401.600000143051},{""stimulus"":""blank"",""time"":3710.300000190735},{""stimulus"":""https://ziweizhang0304.github.io/Stats_learning_trig/img/Stim/FN_013_g.png"",""time"":3753.800000190735},{""stimulus"":""blank"",""time"":4060.300000190735},{""stimulus"":""https://ziweizhang0304.github.io/Stats_learning_trig/img/Stim/FN_023_g.png"",""time"":4084.100000143051},{""stimulus"":""blank"",""time"":4389.5}]","[{""key_press"":32,""rt"":2443.5999999046326,""stimulus"":""https://ziweizhang0304.github.io/Stats_learning_trig/img/Stim/FN_016_g.png""}]","396.19999980926514","https://ziweizhang0304.github.io/Stats_learning_trig/img/Stim/FN_004_g.png","post_TD","4","2047.4000000953674","2443.5999999046326","slow","6","2","5ffc97615991d411f8ceff96","","","","","",""
"","image-keyboard-response","21","112004","0.0-5.0-4.0-0.0","3446.0999999046326","","","https://ziweizhang0304.github.io/Stats_learning_trig/img/Stim/FN_007_g.png","13","","","","","","","","","","","","","","","","","",""
"","animation","22","116427","0.0-5.0-4.0-1.0","","","","","","[{""stimulus"":""https://ziweizhang0304.github.io/Stats_learning_trig/img/Stim/FN_013_g.png"",""time"":346.39999985694885},{""stimulus"":""blank"",""time"":652.3999998569489},{""stimulus"":""https://ziweizhang0304.github.io/Stats_learning_trig/img/Stim/FN_011_g.png"",""time"":692},{""stimulus"":""blank"",""time"":1005.0999999046326},{""stimulus"":""https://ziweizhang0304.github.io/Stats_learning_trig/img/Stim/FN_001_g.png"",""time"":1028.3999998569489},{""stimulus"":""blank"",""time"":1338.6999998092651},{""stimulus"":""https://ziweizhang0304.github.io/Stats_learning_trig/img/Stim/FN_020_g.png"",""time"":1362.3999998569489},{""stimulus"":""blank"",""time"":1671.0999999046326},{""stimulus"":""https://ziweizhang0304.github.io/Stats_learning_trig/img/Stim/FN_025_g.png"",""time"":1703.3999998569489},{""stimulus"":""blank"",""time"":2012.2999999523163},{""stimulus"":""https://ziweizhang0304.github.io/Stats_learning_trig/img/Stim/FN_007_g.png"",""time"":2044.6999998092651},{""stimulus"":""blank"",""time"":2347.5999999046326},{""stimulus"":""https://ziweizhang0304.github.io/Stats_learning_trig/img/Stim/FN_017_g.png"",""time"":2388.5},{""stimulus"":""blank"",""time"":2704.5},{""stimulus"":""https://ziweizhang0304.github.io/Stats_learning_trig/img/Stim/FN_012_g.png"",""time"":2727.5999999046326},{""stimulus"":""blank"",""time"":3035.5999999046326},{""stimulus"":""https://ziweizhang0304.github.io/Stats_learning_trig/img/Stim/FN_014_g.png"",""time"":3067.899999856949},{""stimulus"":""blank"",""time"":3368.5},{""stimulus"":""https://ziweizhang0304.github.io/Stats_learning_trig/img/Stim/FN_023_g.png"",""time"":3408.399999856949},{""stimulus"":""blank"",""time"":3716.899999856949},{""stimulus"":""https://ziweizhang0304.github.io/Stats_learning_trig/img/Stim/FN_024_g.png"",""time"":3740.5999999046326},{""stimulus"":""blank"",""time"":4049.5999999046326},{""stimulus"":""https://ziweizhang0304.github.io/Stats_learning_trig/img/Stim/FN_008_g.png"",""time"":4081.699999809265},{""stimulus"":""blank"",""time"":4390.299999952316}]","[{""key_press"":32,""rt"":2459,""stimulus"":""https://ziweizhang0304.github.io/Stats_learning_trig/img/Stim/FN_017_g.png""}]","414.30000019073486","https://ziweizhang0304.github.io/Stats_learning_trig/img/Stim/FN_007_g.png","post_TD","5","2044.6999998092651","2459","fast","6","2","5ffc97615991d411f8ceff96","","","","","",""
"","image-keyboard-response","23","117300","0.0-5.0-5.0-0.0","871.7999999523163","","","https://ziweizhang0304.github.io/Stats_learning_trig/img/Stim/FN_017_g.png","13","","","","","","","","","","","","","","","","","",""
"","animation","24","121722","0.0-5.0-5.0-1.0","","","","","","[{""stimulus"":""https://ziweizhang0304.github.io/Stats_learning_trig/img/Stim/FN_024_g.png"",""time"":351.59999990463257},{""stimulus"":""blank"",""time"":660},{""stimulus"":""https://ziweizhang0304.github.io/Stats_learning_trig/img/Stim/FN_013_g.png"",""time"":683.2000000476837},{""stimulus"":""blank"",""time"":997.7999999523163},{""stimulus"":""https://ziweizhang0304.github.io/Stats_learning_trig/img/Stim/FN_008_g.png"",""time"":1021.5},{""stimulus"":""blank"",""time"":1330.5999999046326},{""stimulus"":""https://ziweizhang0304.github.io/Stats_learning_trig/img/Stim/FN_012_g.png"",""time"":1370.5999999046326},{""stimulus"":""blank"",""time"":1673.5999999046326},{""stimulus"":""https://ziweizhang0304.github.io/Stats_learning_trig/img/Stim/FN_020_g.png"",""time"":1714.7000000476837},{""stimulus"":""blank"",""time"":2021.7999999523163},{""stimulus"":""https://ziweizhang0304.github.io/Stats_learning_trig/img/Stim/FN_014_g.png"",""time"":2045.2999999523163},{""stimulus"":""blank"",""time"":2350.7999999523163},{""stimulus"":""https://ziweizhang0304.github.io/Stats_learning_trig/img/Stim/FN_025_g.png"",""time"":2382.0999999046326},{""stimulus"":""blank"",""time"":2683.7999999523163},{""stimulus"":""https://ziweizhang0304.github.io/Stats_learning_trig/img/Stim/FN_007_g.png"",""time"":2723.7999999523163},{""stimulus"":""blank"",""time"":3031.9000000953674},{""stimulus"":""https://ziweizhang0304.github.io/Stats_learning_trig/img/Stim/FN_017_g.png"",""time"":3064},{""stimulus"":""blank"",""time"":3375.2999999523163},{""stimulus"":""https://ziweizhang0304.github.io/Stats_learning_trig/img/Stim/FN_011_g.png"",""time"":3407.7000000476837},{""stimulus"":""blank"",""time"":3715.7999999523163},{""stimulus"":""https://ziweizhang0304.github.io/Stats_learning_trig/img/Stim/FN_023_g.png"",""time"":3748.2999999523163},{""stimulus"":""blank"",""time"":4056.7999999523163},{""stimulus"":""https://ziweizhang0304.github.io/Stats_learning_trig/img/Stim/FN_001_g.png"",""time"":4096.400000095367},{""stimulus"":""blank"",""time"":4397.799999952316}]","[{""key_press"":32,""rt"":3452.5,""stimulus"":""https://ziweizhang0304.github.io/Stats_learning_trig/img/Stim/FN_011_g.png""}]","388.5","https://ziweizhang0304.github.io/Stats_learning_trig/img/Stim/FN_017_g.png","post_TD","6","3064","3452.5","fast","9","3","5ffc97615991d411f8ceff96","","","","","",""
"","image-keyboard-response","25","126367","0.0-5.0-6.0-0.0","4644.900000095367","","","https://ziweizhang0304.github.io/Stats_learning_trig/img/Stim/FN_007_g.png","13","","","","","","","","","","","","","","","","","",""
"","animation","26","130796","0.0-5.0-6.0-1.0","","","","","","[{""stimulus"":""https://ziweizhang0304.github.io/Stats_learning_trig/img/Stim/FN_014_g.png"",""time"":353.5},{""stimulus"":""blank"",""time"":660.6000001430511},{""stimulus"":""https://ziweizhang0304.github.io/Stats_learning_trig/img/Stim/FN_023_g.png"",""time"":684.3000001907349},{""stimulus"":""blank"",""time"":995.4000000953674},{""stimulus"":""https://ziweizhang0304.github.io/Stats_learning_trig/img/Stim/FN_011_g.png"",""time"":1027.7000000476837},{""stimulus"":""blank"",""time"":1343.3000001907349},{""stimulus"":""https://ziweizhang0304.github.io/Stats_learning_trig/img/Stim/FN_013_g.png"",""time"":1366.1000001430511},{""stimulus"":""blank"",""time"":1668},{""stimulus"":""https://ziweizhang0304.github.io/Stats_learning_trig/img/Stim/FN_024_g.png"",""time"":1708.3000001907349},{""stimulus"":""blank"",""time"":2016},{""stimulus"":""https://ziweizhang0304.github.io/Stats_learning_trig/img/Stim/FN_025_g.png"",""time"":2048.5},{""stimulus"":""blank"",""time"":2349.7000000476837},{""stimulus"":""https://ziweizhang0304.github.io/Stats_learning_trig/img/Stim/FN_007_g.png"",""time"":2381.800000190735},{""stimulus"":""blank"",""time"":2684.2000000476837},{""stimulus"":""https://ziweizhang0304.github.io/Stats_learning_trig/img/Stim/FN_017_g.png"",""time"":2724.2000000476837},{""stimulus"":""blank"",""time"":3026.2000000476837},{""stimulus"":""https://ziweizhang0304.github.io/Stats_learning_trig/img/Stim/FN_012_g.png"",""time"":3065.100000143051},{""stimulus"":""blank"",""time"":3372.100000143051},{""stimulus"":""https://ziweizhang0304.github.io/Stats_learning_trig/img/Stim/FN_020_g.png"",""time"":3404.2000000476837},{""stimulus"":""blank"",""time"":3704.600000143051},{""stimulus"":""https://ziweizhang0304.github.io/Stats_learning_trig/img/Stim/FN_001_g.png"",""time"":3744.7000000476837},{""stimulus"":""blank"",""time"":4052.800000190735},{""stimulus"":""https://ziweizhang0304.github.io/Stats_learning_trig/img/Stim/FN_008_g.png"",""time"":4085.100000143051},{""stimulus"":""blank"",""time"":4396.5}]","[{""key_press"":32,""rt"":2745.7000000476837,""stimulus"":""https://ziweizhang0304.github.io/Stats_learning_trig/img/Stim/FN_017_g.png""}]","363.89999985694885","https://ziweizhang0304.github.io/Stats_learning_trig/img/Stim/FN_007_g.png","post_TD","7","2381.800000190735","2745.7000000476837","fast","7","2","5ffc97615991d411f8ceff96","","","","","",""
"","image-keyboard-response","27","131647","0.0-5.0-7.0-0.0","849.5999999046326","","","https://ziweizhang0304.github.io/Stats_learning_trig/img/Stim/FN_025_g.png","13","","","","","","","","","","","","","","","","","",""
"","animation","28","136071","0.0-5.0-7.0-1.0","","","","","","[{""stimulus"":""https://ziweizhang0304.github.io/Stats_learning_trig/img/Stim/FN_020_g.png"",""time"":353.7999999523163},{""stimulus"":""blank"",""time"":666.3999998569489},{""stimulus"":""https://ziweizhang0304.github.io/Stats_learning_trig/img/Stim/FN_008_g.png"",""time"":681.6999998092651},{""stimulus"":""blank"",""time"":994.2999999523163},{""stimulus"":""https://ziweizhang0304.github.io/Stats_learning_trig/img/Stim/FN_013_g.png"",""time"":1026.1999998092651},{""stimulus"":""blank"",""time"":1326.5999999046326},{""stimulus"":""https://ziweizhang0304.github.io/Stats_learning_trig/img/Stim/FN_025_g.png"",""time"":1366.5999999046326},{""stimulus"":""blank"",""time"":1667.5},{""stimulus"":""https://ziweizhang0304.github.io/Stats_learning_trig/img/Stim/FN_007_g.png"",""time"":1707.7999999523163},{""stimulus"":""blank"",""time"":2015.8999998569489},{""stimulus"":""https://ziweizhang0304.github.io/Stats_learning_trig/img/Stim/FN_017_g.png"",""time"":2048},{""stimulus"":""blank"",""time"":2363.699999809265},{""stimulus"":""https://ziweizhang0304.github.io/Stats_learning_trig/img/Stim/FN_012_g.png"",""time"":2386.699999809265},{""stimulus"":""blank"",""time"":2696.699999809265},{""stimulus"":""https://ziweizhang0304.github.io/Stats_learning_trig/img/Stim/FN_014_g.png"",""time"":2720.399999856949},{""stimulus"":""blank"",""time"":3026.0999999046326},{""stimulus"":""https://ziweizhang0304.github.io/Stats_learning_trig/img/Stim/FN_011_g.png"",""time"":3066.0999999046326},{""stimulus"":""blank"",""time"":3381.199999809265},{""stimulus"":""https://ziweizhang0304.github.io/Stats_learning_trig/img/Stim/FN_023_g.png"",""time"":3405},{""stimulus"":""blank"",""time"":3716.699999809265},{""stimulus"":""https://ziweizhang0304.github.io/Stats_learning_trig/img/Stim/FN_001_g.png"",""time"":3741.0999999046326},{""stimulus"":""blank"",""time"":4050.399999856949},{""stimulus"":""https://ziweizhang0304.github.io/Stats_learning_trig/img/Stim/FN_024_g.png"",""time"":4082.5999999046326},{""stimulus"":""blank"",""time"":4391.199999809265}]","[{""key_press"":32,""rt"":1785.2999999523163,""stimulus"":""https://ziweizhang0304.github.io/Stats_learning_trig/img/Stim/FN_007_g.png""}]","418.7000000476837","https://ziweizhang0304.github.io/Stats_learning_trig/img/Stim/FN_025_g.png","post_TD","8","1366.5999999046326","1785.2999999523163","fast","4","1","5ffc97615991d411f8ceff96","","","","","",""
"","image-keyboard-response","29","136745","0.0-5.0-8.0-0.0","673","","","https://ziweizhang0304.github.io/Stats_learning_trig/img/Stim/FN_025_g.png","13","","","","","","","","","","","","","","","","","",""
"","animation","30","141172","0.0-5.0-8.0-1.0","","","","","","[{""stimulus"":""https://ziweizhang0304.github.io/Stats_learning_trig/img/Stim/FN_014_g.png"",""time"":340.89999985694885},{""stimulus"":""blank"",""time"":646.8999998569489},{""stimulus"":""https://ziweizhang0304.github.io/Stats_learning_trig/img/Stim/FN_023_g.png"",""time"":686.7999999523163},{""stimulus"":""blank"",""time"":995.2000000476837},{""stimulus"":""https://ziweizhang0304.github.io/Stats_learning_trig/img/Stim/FN_011_g.png"",""time"":1027.0999999046326},{""stimulus"":""blank"",""time"":1334.8999998569489},{""stimulus"":""https://ziweizhang0304.github.io/Stats_learning_trig/img/Stim/FN_013_g.png"",""time"":1374.8999998569489},{""stimulus"":""blank"",""time"":1683.3999998569489},{""stimulus"":""https://ziweizhang0304.github.io/Stats_learning_trig/img/Stim/FN_024_g.png"",""time"":1707},{""stimulus"":""blank"",""time"":2008.3999998569489},{""stimulus"":""https://ziweizhang0304.github.io/Stats_learning_trig/img/Stim/FN_025_g.png"",""time"":2048.399999856949},{""stimulus"":""blank"",""time"":2358.7000000476837},{""stimulus"":""https://ziweizhang0304.github.io/Stats_learning_trig/img/Stim/FN_007_g.png"",""time"":2382},{""stimulus"":""blank"",""time"":2685.2999999523163},{""stimulus"":""https://ziweizhang0304.github.io/Stats_learning_trig/img/Stim/FN_017_g.png"",""time"":2726.2999999523163},{""stimulus"":""blank"",""time"":3027.399999856949},{""stimulus"":""https://ziweizhang0304.github.io/Stats_learning_trig/img/Stim/FN_012_g.png"",""time"":3067.7000000476837},{""stimulus"":""blank"",""time"":3375.0999999046326},{""stimulus"":""https://ziweizhang0304.github.io/Stats_learning_trig/img/Stim/FN_020_g.png"",""time"":3407.5},{""stimulus"":""blank"",""time"":3708.899999856949},{""stimulus"":""https://ziweizhang0304.github.io/Stats_learning_trig/img/Stim/FN_001_g.png"",""time"":3741},{""stimulus"":""blank"",""time"":4041.5999999046326},{""stimulus"":""https://ziweizhang0304.github.io/Stats_learning_trig/img/Stim/FN_008_g.png"",""time"":4098.5},{""stimulus"":""blank"",""time"":4403.299999952316}]","[{""key_press"":32,""rt"":2448.7000000476837,""stimulus"":""https://ziweizhang0304.github.io/Stats_learning_trig/img/Stim/FN_007_g.png""}]","400.30000019073486","https://ziweizhang0304.github.io/Stats_learning_trig/img/Stim/FN_025_g.png","post_TD","9","2048.399999856949","2448.7000000476837","fast","6","1","5ffc97615991d411f8ceff96","","","","","",""
"","image-keyboard-response","31","141680","0.0-5.0-9.0-0.0","506.90000009536743","","","https://ziweizhang0304.github.io/Stats_learning_trig/img/Stim/FN_006_g.png","13","","","","","","","","","","","","","","","","","",""
"","animation","32","146102","0.0-5.0-9.0-1.0","","","","","","[{""stimulus"":""https://ziweizhang0304.github.io/Stats_learning_trig/img/Stim/FN_008_g.png"",""time"":346},{""stimulus"":""blank"",""time"":652.5999999046326},{""stimulus"":""https://ziweizhang0304.github.io/Stats_learning_trig/img/Stim/FN_020_g.png"",""time"":684.9000000953674},{""stimulus"":""blank"",""time"":1000.5},{""stimulus"":""https://ziweizhang0304.github.io/Stats_learning_trig/img/Stim/FN_024_g.png"",""time"":1024.2000000476837},{""stimulus"":""blank"",""time"":1337},{""stimulus"":""https://ziweizhang0304.github.io/Stats_learning_trig/img/Stim/FN_001_g.png"",""time"":1360.4000000953674},{""stimulus"":""blank"",""time"":1669.5999999046326},{""stimulus"":""https://ziweizhang0304.github.io/Stats_learning_trig/img/Stim/FN_006_g.png"",""time"":1701.5999999046326},{""stimulus"":""blank"",""time"":2011},{""stimulus"":""https://ziweizhang0304.github.io/Stats_learning_trig/img/Stim/FN_004_g.png"",""time"":2043.2999999523163},{""stimulus"":""blank"",""time"":2348.7999999523163},{""stimulus"":""https://ziweizhang0304.github.io/Stats_learning_trig/img/Stim/FN_016_g.png"",""time"":2388.7000000476837},{""stimulus"":""blank"",""time"":2695.2000000476837},{""stimulus"":""https://ziweizhang0304.github.io/Stats_learning_trig/img/Stim/FN_012_g.png"",""time"":2727.2999999523163},{""stimulus"":""blank"",""time"":3028.7000000476837},{""stimulus"":""https://ziweizhang0304.github.io/Stats_learning_trig/img/Stim/FN_014_g.png"",""time"":3061.5},{""stimulus"":""blank"",""time"":3376.5999999046326},{""stimulus"":""https://ziweizhang0304.github.io/Stats_learning_trig/img/Stim/FN_011_g.png"",""time"":3408.7000000476837},{""stimulus"":""blank"",""time"":3724},{""stimulus"":""https://ziweizhang0304.github.io/Stats_learning_trig/img/Stim/FN_013_g.png"",""time"":3747.0999999046326},{""stimulus"":""blank"",""time"":4055.4000000953674},{""stimulus"":""https://ziweizhang0304.github.io/Stats_learning_trig/img/Stim/FN_023_g.png"",""time"":4087.5999999046326},{""stimulus"":""blank"",""time"":4389.700000047684}]","[{""key_press"":32,""rt"":2063.300000190735,""stimulus"":""https://ziweizhang0304.github.io/Stats_learning_trig/img/Stim/FN_004_g.png""}]","361.7000002861023","https://ziweizhang0304.github.io/Stats_learning_trig/img/Stim/FN_006_g.png","post_TD","10","1701.5999999046326","2063.300000190735","slow","5","1","5ffc97615991d411f8ceff96","","","","","",""
"","image-keyboard-response","33","150898","0.0-5.0-10.0-0.0","4795.5","","","https://ziweizhang0304.github.io/Stats_learning_trig/img/Stim/FN_004_g.png","13","","","","","","","","","","","","","","","","","",""
"","animation","34","155334","0.0-5.0-10.0-1.0","","","","","","[{""stimulus"":""https://ziweizhang0304.github.io/Stats_learning_trig/img/Stim/FN_012_g.png"",""time"":341.7000000476837},{""stimulus"":""blank"",""time"":646.5},{""stimulus"":""https://ziweizhang0304.github.io/Stats_learning_trig/img/Stim/FN_014_g.png"",""time"":703.3000001907349},{""stimulus"":""blank"",""time"":1018.3000001907349},{""stimulus"":""https://ziweizhang0304.github.io/Stats_learning_trig/img/Stim/FN_013_g.png"",""time"":1033.2000000476837},{""stimulus"":""blank"",""time"":1333.7000000476837},{""stimulus"":""https://ziweizhang0304.github.io/Stats_learning_trig/img/Stim/FN_008_g.png"",""time"":1364.8000001907349},{""stimulus"":""blank"",""time"":1672.2000000476837},{""stimulus"":""https://ziweizhang0304.github.io/Stats_learning_trig/img/Stim/FN_001_g.png"",""time"":1704.4000000953674},{""stimulus"":""blank"",""time"":2005.4000000953674},{""stimulus"":""https://ziweizhang0304.github.io/Stats_learning_trig/img/Stim/FN_011_g.png"",""time"":2044.5},{""stimulus"":""blank"",""time"":2346.9000000953674},{""stimulus"":""https://ziweizhang0304.github.io/Stats_learning_trig/img/Stim/FN_006_g.png"",""time"":2387.9000000953674},{""stimulus"":""blank"",""time"":2701.9000000953674},{""stimulus"":""https://ziweizhang0304.github.io/Stats_learning_trig/img/Stim/FN_004_g.png"",""time"":2725.600000143051},{""stimulus"":""blank"",""time"":3034.800000190735},{""stimulus"":""https://ziweizhang0304.github.io/Stats_learning_trig/img/Stim/FN_016_g.png"",""time"":3067},{""stimulus"":""blank"",""time"":3376},{""stimulus"":""https://ziweizhang0304.github.io/Stats_learning_trig/img/Stim/FN_023_g.png"",""time"":3408.600000143051},{""stimulus"":""blank"",""time"":3715.5},{""stimulus"":""https://ziweizhang0304.github.io/Stats_learning_trig/img/Stim/FN_020_g.png"",""time"":3747.5},{""stimulus"":""blank"",""time"":4062.600000143051},{""stimulus"":""https://ziweizhang0304.github.io/Stats_learning_trig/img/Stim/FN_024_g.png"",""time"":4085.9000000953674},{""stimulus"":""blank"",""time"":4386.400000095367}]","[{""key_press"":32,""rt"":1439.5,""stimulus"":""https://ziweizhang0304.github.io/Stats_learning_trig/img/Stim/FN_008_g.png""},{""key_press"":32,""rt"":3183.2999999523163,""stimulus"":""https://ziweizhang0304.github.io/Stats_learning_trig/img/Stim/FN_016_g.png""}]","457.69999980926514","https://ziweizhang0304.github.io/Stats_learning_trig/img/Stim/FN_004_g.png","post_TD","11","2725.600000143051","3183.2999999523163","slow","8","2","5ffc97615991d411f8ceff96","","","","","",""
"","image-keyboard-response","35","156184","0.0-5.0-11.0-0.0","849.9000000953674","","","https://ziweizhang0304.github.io/Stats_learning_trig/img/Stim/FN_004_g.png","13","","","","","","","","","","","","","","","","","",""
"","animation","36","160612","0.0-5.0-11.0-1.0","","","","","","[{""stimulus"":""https://ziweizhang0304.github.io/Stats_learning_trig/img/Stim/FN_024_g.png"",""time"":344.7000000476837},{""stimulus"":""blank"",""time"":647.8000001907349},{""stimulus"":""https://ziweizhang0304.github.io/Stats_learning_trig/img/Stim/FN_020_g.png"",""time"":687.7000000476837},{""stimulus"":""blank"",""time"":991.9000000953674},{""stimulus"":""https://ziweizhang0304.github.io/Stats_learning_trig/img/Stim/FN_011_g.png"",""time"":1024},{""stimulus"":""blank"",""time"":1329.7000000476837},{""stimulus"":""https://ziweizhang0304.github.io/Stats_learning_trig/img/Stim/FN_001_g.png"",""time"":1362.1000001430511},{""stimulus"":""blank"",""time"":1678.3000001907349},{""stimulus"":""https://ziweizhang0304.github.io/Stats_learning_trig/img/Stim/FN_014_g.png"",""time"":1701.5},{""stimulus"":""blank"",""time"":2011.7000000476837},{""stimulus"":""https://ziweizhang0304.github.io/Stats_learning_trig/img/Stim/FN_006_g.png"",""time"":2043.9000000953674},{""stimulus"":""blank"",""time"":2344.4000000953674},{""stimulus"":""https://ziweizhang0304.github.io/Stats_learning_trig/img/Stim/FN_004_g.png"",""time"":2392.600000143051},{""stimulus"":""blank"",""time"":2703.7000000476837},{""stimulus"":""https://ziweizhang0304.github.io/Stats_learning_trig/img/Stim/FN_016_g.png"",""time"":2727.300000190735},{""stimulus"":""blank"",""time"":3033.7000000476837},{""stimulus"":""https://ziweizhang0304.github.io/Stats_learning_trig/img/Stim/FN_012_g.png"",""time"":3066},{""stimulus"":""blank"",""time"":3382.2000000476837},{""stimulus"":""https://ziweizhang0304.github.io/Stats_learning_trig/img/Stim/FN_013_g.png"",""time"":3405.600000143051},{""stimulus"":""blank"",""time"":3711.100000143051},{""stimulus"":""https://ziweizhang0304.github.io/Stats_learning_trig/img/Stim/FN_023_g.png"",""time"":3743.5},{""stimulus"":""blank"",""time"":4050.600000143051},{""stimulus"":""https://ziweizhang0304.github.io/Stats_learning_trig/img/Stim/FN_008_g.png"",""time"":4090.4000000953674},{""stimulus"":""blank"",""time"":4403.200000047684}]","[{""key_press"":32,""rt"":2780.2999999523163,""stimulus"":""https://ziweizhang0304.github.io/Stats_learning_trig/img/Stim/FN_016_g.png""}]","387.69999980926514","https://ziweizhang0304.github.io/Stats_learning_trig/img/Stim/FN_004_g.png","post_TD","12","2392.600000143051","2780.2999999523163","slow","7","2","5ffc97615991d411f8ceff96","","","","","",""
"","image-keyboard-response","37","164638","0.0-5.0-12.0-0.0","4024.7999999523163","","","https://ziweizhang0304.github.io/Stats_learning_trig/img/Stim/FN_025_g.png","13","","","","","","","","","","","","","","","","","",""
"","animation","38","169063","0.0-5.0-12.0-1.0","","","","","","[{""stimulus"":""https://ziweizhang0304.github.io/Stats_learning_trig/img/Stim/FN_013_g.png"",""time"":355},{""stimulus"":""blank"",""time"":661.3999998569489},{""stimulus"":""https://ziweizhang0304.github.io/Stats_learning_trig/img/Stim/FN_011_g.png"",""time"":685.2000000476837},{""stimulus"":""blank"",""time"":994.2000000476837},{""stimulus"":""https://ziweizhang0304.github.io/Stats_learning_trig/img/Stim/FN_001_g.png"",""time"":1026.5999999046326},{""stimulus"":""blank"",""time"":1337.7999999523163},{""stimulus"":""https://ziweizhang0304.github.io/Stats_learning_trig/img/Stim/FN_020_g.png"",""time"":1361.5},{""stimulus"":""blank"",""time"":1671.0999999046326},{""stimulus"":""https://ziweizhang0304.github.io/Stats_learning_trig/img/Stim/FN_025_g.png"",""time"":1703.2000000476837},{""stimulus"":""blank"",""time"":2006.3999998569489},{""stimulus"":""https://ziweizhang0304.github.io/Stats_learning_trig/img/Stim/FN_007_g.png"",""time"":2046.5},{""stimulus"":""blank"",""time"":2354.2999999523163},{""stimulus"":""https://ziweizhang0304.github.io/Stats_learning_trig/img/Stim/FN_017_g.png"",""time"":2386.5999999046326},{""stimulus"":""blank"",""time"":2702.0999999046326},{""stimulus"":""https://ziweizhang0304.github.io/Stats_learning_trig/img/Stim/FN_012_g.png"",""time"":2725.5999999046326},{""stimulus"":""blank"",""time"":3026.7999999523163},{""stimulus"":""https://ziweizhang0304.github.io/Stats_learning_trig/img/Stim/FN_014_g.png"",""time"":3066.899999856949},{""stimulus"":""blank"",""time"":3378.399999856949},{""stimulus"":""https://ziweizhang0304.github.io/Stats_learning_trig/img/Stim/FN_023_g.png"",""time"":3401.5},{""stimulus"":""blank"",""time"":3710},{""stimulus"":""https://ziweizhang0304.github.io/Stats_learning_trig/img/Stim/FN_024_g.png"",""time"":3742.5},{""stimulus"":""blank"",""time"":4051.7000000476837},{""stimulus"":""https://ziweizhang0304.github.io/Stats_learning_trig/img/Stim/FN_008_g.png"",""time"":4083.899999856949},{""stimulus"":""blank"",""time"":4384.700000047684}]","[{""key_press"":32,""rt"":2145.399999856949,""stimulus"":""https://ziweizhang0304.github.io/Stats_learning_trig/img/Stim/FN_007_g.png""}]","442.19999980926514","https://ziweizhang0304.github.io/Stats_learning_trig/img/Stim/FN_025_g.png","post_TD","13","1703.2000000476837","2145.399999856949","fast","5","1","5ffc97615991d411f8ceff96","","","","","",""
"","image-keyboard-response","39","169539","0.0-5.0-13.0-0.0","475.59999990463257","","","https://ziweizhang0304.github.io/Stats_learning_trig/img/Stim/FN_016_g.png","13","","","","","","","","","","","","","","","","","",""
"","animation","40","173961","0.0-5.0-13.0-1.0","","","","","","[{""stimulus"":""https://ziweizhang0304.github.io/Stats_learning_trig/img/Stim/FN_024_g.png"",""time"":352.7000000476837},{""stimulus"":""blank"",""time"":653.5},{""stimulus"":""https://ziweizhang0304.github.io/Stats_learning_trig/img/Stim/FN_020_g.png"",""time"":685.6000001430511},{""stimulus"":""blank"",""time"":994.1000001430511},{""stimulus"":""https://ziweizhang0304.github.io/Stats_learning_trig/img/Stim/FN_011_g.png"",""time"":1026},{""stimulus"":""blank"",""time"":1331.5},{""stimulus"":""https://ziweizhang0304.github.io/Stats_learning_trig/img/Stim/FN_001_g.png"",""time"":1363.6000001430511},{""stimulus"":""blank"",""time"":1667.6000001430511},{""stimulus"":""https://ziweizhang0304.github.io/Stats_learning_trig/img/Stim/FN_014_g.png"",""time"":1707.7000000476837},{""stimulus"":""blank"",""time"":2018.6000001430511},{""stimulus"":""https://ziweizhang0304.github.io/Stats_learning_trig/img/Stim/FN_006_g.png"",""time"":2041.6000001430511},{""stimulus"":""blank"",""time"":2350.300000190735},{""stimulus"":""https://ziweizhang0304.github.io/Stats_learning_trig/img/Stim/FN_004_g.png"",""time"":2381.5},{""stimulus"":""blank"",""time"":2695},{""stimulus"":""https://ziweizhang0304.github.io/Stats_learning_trig/img/Stim/FN_016_g.png"",""time"":2727.300000190735},{""stimulus"":""blank"",""time"":3027.9000000953674},{""stimulus"":""https://ziweizhang0304.github.io/Stats_learning_trig/img/Stim/FN_012_g.png"",""time"":3067.9000000953674},{""stimulus"":""blank"",""time"":3369.5},{""stimulus"":""https://ziweizhang0304.github.io/Stats_learning_trig/img/Stim/FN_013_g.png"",""time"":3401.5},{""stimulus"":""blank"",""time"":3714.300000190735},{""stimulus"":""https://ziweizhang0304.github.io/Stats_learning_trig/img/Stim/FN_023_g.png"",""time"":3746.9000000953674},{""stimulus"":""blank"",""time"":4048.2000000476837},{""stimulus"":""https://ziweizhang0304.github.io/Stats_learning_trig/img/Stim/FN_008_g.png"",""time"":4096.300000190735},{""stimulus"":""blank"",""time"":4397.600000143051}]","[{""key_press"":32,""rt"":3115.600000143051,""stimulus"":""https://ziweizhang0304.github.io/Stats_learning_trig/img/Stim/FN_012_g.png""}]","388.2999999523163","https://ziweizhang0304.github.io/Stats_learning_trig/img/Stim/FN_016_g.png","post_TD","14","2727.300000190735","3115.600000143051","slow","8","3","5ffc97615991d411f8ceff96","","","","","",""
"","image-keyboard-response","41","179981","0.0-5.0-14.0-0.0","6028.899999856949","","","https://ziweizhang0304.github.io/Stats_learning_trig/img/Stim/FN_006_g.png","13","","","","","","","","","","","","","","","","","",""
"","animation","42","184402","0.0-5.0-14.0-1.0","","","","","","[{""stimulus"":""https://ziweizhang0304.github.io/Stats_learning_trig/img/Stim/FN_011_g.png"",""time"":353.59999990463257},{""stimulus"":""blank"",""time"":666.7999999523163},{""stimulus"":""https://ziweizhang0304.github.io/Stats_learning_trig/img/Stim/FN_013_g.png"",""time"":682},{""stimulus"":""blank"",""time"":990.2999999523163},{""stimulus"":""https://ziweizhang0304.github.io/Stats_learning_trig/img/Stim/FN_001_g.png"",""time"":1022.4000000953674},{""stimulus"":""blank"",""time"":1336.5},{""stimulus"":""https://ziweizhang0304.github.io/Stats_learning_trig/img/Stim/FN_006_g.png"",""time"":1368.9000000953674},{""stimulus"":""blank"",""time"":1677.4000000953674},{""stimulus"":""https://ziweizhang0304.github.io/Stats_learning_trig/img/Stim/FN_004_g.png"",""time"":1700.5999999046326},{""stimulus"":""blank"",""time"":2006.5},{""stimulus"":""https://ziweizhang0304.github.io/Stats_learning_trig/img/Stim/FN_016_g.png"",""time"":2062.9000000953674},{""stimulus"":""blank"",""time"":2370.5},{""stimulus"":""https://ziweizhang0304.github.io/Stats_learning_trig/img/Stim/FN_012_g.png"",""time"":2385.5999999046326},{""stimulus"":""blank"",""time"":2701.2000000476837},{""stimulus"":""https://ziweizhang0304.github.io/Stats_learning_trig/img/Stim/FN_014_g.png"",""time"":2725.0999999046326},{""stimulus"":""blank"",""time"":3031.7999999523163},{""stimulus"":""https://ziweizhang0304.github.io/Stats_learning_trig/img/Stim/FN_023_g.png"",""time"":3062.7999999523163},{""stimulus"":""blank"",""time"":3371.4000000953674},{""stimulus"":""https://ziweizhang0304.github.io/Stats_learning_trig/img/Stim/FN_020_g.png"",""time"":3403.5},{""stimulus"":""blank"",""time"":3711},{""stimulus"":""https://ziweizhang0304.github.io/Stats_learning_trig/img/Stim/FN_024_g.png"",""time"":3743.0999999046326},{""stimulus"":""blank"",""time"":4054.4000000953674},{""stimulus"":""https://ziweizhang0304.github.io/Stats_learning_trig/img/Stim/FN_008_g.png"",""time"":4086.2000000476837},{""stimulus"":""blank"",""time"":4388}]","[{""key_press"":32,""rt"":1950.8000001907349,""stimulus"":""https://ziweizhang0304.github.io/Stats_learning_trig/img/Stim/FN_004_g.png""}]","581.9000000953674","https://ziweizhang0304.github.io/Stats_learning_trig/img/Stim/FN_006_g.png","post_TD","15","1368.9000000953674","1950.8000001907349","slow","4","1","5ffc97615991d411f8ceff96","","","","","",""
"","image-keyboard-response","43","186417","0.0-5.0-15.0-0.0","2014.2000000476837","","","https://ziweizhang0304.github.io/Stats_learning_trig/img/Stim/FN_016_g.png","13","","","","","","","","","","","","","","","","","",""
"","animation","44","190838","0.0-5.0-15.0-1.0","","","","","","[{""stimulus"":""https://ziweizhang0304.github.io/Stats_learning_trig/img/Stim/FN_012_g.png"",""time"":355.69999980926514},{""stimulus"":""blank"",""time"":656.2999999523163},{""stimulus"":""https://ziweizhang0304.github.io/Stats_learning_trig/img/Stim/FN_014_g.png"",""time"":688.5999999046326},{""stimulus"":""blank"",""time"":1001},{""stimulus"":""https://ziweizhang0304.github.io/Stats_learning_trig/img/Stim/FN_013_g.png"",""time"":1024.6999998092651},{""stimulus"":""blank"",""time"":1332.6999998092651},{""stimulus"":""https://ziweizhang0304.github.io/Stats_learning_trig/img/Stim/FN_008_g.png"",""time"":1364.8999998569489},{""stimulus"":""blank"",""time"":1680.6999998092651},{""stimulus"":""https://ziweizhang0304.github.io/Stats_learning_trig/img/Stim/FN_001_g.png"",""time"":1704},{""stimulus"":""blank"",""time"":2011.8999998569489},{""stimulus"":""https://ziweizhang0304.github.io/Stats_learning_trig/img/Stim/FN_011_g.png"",""time"":2044.1999998092651},{""stimulus"":""blank"",""time"":2359.7999999523163},{""stimulus"":""https://ziweizhang0304.github.io/Stats_learning_trig/img/Stim/FN_006_g.png"",""time"":2383.5},{""stimulus"":""blank"",""time"":2688.699999809265},{""stimulus"":""https://ziweizhang0304.github.io/Stats_learning_trig/img/Stim/FN_004_g.png"",""time"":2721.899999856949},{""stimulus"":""blank"",""time"":3035.699999809265},{""stimulus"":""https://ziweizhang0304.github.io/Stats_learning_trig/img/Stim/FN_016_g.png"",""time"":3067.7999999523163},{""stimulus"":""blank"",""time"":3383.899999856949},{""stimulus"":""https://ziweizhang0304.github.io/Stats_learning_trig/img/Stim/FN_023_g.png"",""time"":3407.0999999046326},{""stimulus"":""blank"",""time"":3721.699999809265},{""stimulus"":""https://ziweizhang0304.github.io/Stats_learning_trig/img/Stim/FN_020_g.png"",""time"":3745.5},{""stimulus"":""blank"",""time"":4046.899999856949},{""stimulus"":""https://ziweizhang0304.github.io/Stats_learning_trig/img/Stim/FN_024_g.png"",""time"":4104.599999904633},{""stimulus"":""blank"",""time"":4406.099999904633}]","[{""key_press"":32,""rt"":2769.0999999046326,""stimulus"":""https://ziweizhang0304.github.io/Stats_learning_trig/img/Stim/FN_004_g.png""},{""key_press"":32,""rt"":3807.5999999046326,""stimulus"":""https://ziweizhang0304.github.io/Stats_learning_trig/img/Stim/FN_020_g.png""}]","739.7999999523163","https://ziweizhang0304.github.io/Stats_learning_trig/img/Stim/FN_016_g.png","post_TD","16","3067.7999999523163","3807.5999999046326","slow","9","3","5ffc97615991d411f8ceff96","","","","","",""
"","image-keyboard-response","45","191533","0.0-5.0-16.0-0.0","693.5999999046326","","","https://ziweizhang0304.github.io/Stats_learning_trig/img/Stim/FN_016_g.png","13","","","","","","","","","","","","","","","","","",""
"","animation","46","195960","0.0-5.0-16.0-1.0","","","","","","[{""stimulus"":""https://ziweizhang0304.github.io/Stats_learning_trig/img/Stim/FN_008_g.png"",""time"":355.30000019073486},{""stimulus"":""blank"",""time"":664.3000001907349},{""stimulus"":""https://ziweizhang0304.github.io/Stats_learning_trig/img/Stim/FN_020_g.png"",""time"":687.5},{""stimulus"":""blank"",""time"":988.3000001907349},{""stimulus"":""https://ziweizhang0304.github.io/Stats_learning_trig/img/Stim/FN_024_g.png"",""time"":1021.7000000476837},{""stimulus"":""blank"",""time"":1324},{""stimulus"":""https://ziweizhang0304.github.io/Stats_learning_trig/img/Stim/FN_001_g.png"",""time"":1364},{""stimulus"":""blank"",""time"":1672.2000000476837},{""stimulus"":""https://ziweizhang0304.github.io/Stats_learning_trig/img/Stim/FN_006_g.png"",""time"":1704.4000000953674},{""stimulus"":""blank"",""time"":2005.3000001907349},{""stimulus"":""https://ziweizhang0304.github.io/Stats_learning_trig/img/Stim/FN_004_g.png"",""time"":2045.5},{""stimulus"":""blank"",""time"":2357.5},{""stimulus"":""https://ziweizhang0304.github.io/Stats_learning_trig/img/Stim/FN_016_g.png"",""time"":2381.2000000476837},{""stimulus"":""blank"",""time"":2696.4000000953674},{""stimulus"":""https://ziweizhang0304.github.io/Stats_learning_trig/img/Stim/FN_012_g.png"",""time"":2727.600000143051},{""stimulus"":""blank"",""time"":3042.9000000953674},{""stimulus"":""https://ziweizhang0304.github.io/Stats_learning_trig/img/Stim/FN_014_g.png"",""time"":3066.7000000476837},{""stimulus"":""blank"",""time"":3382.300000190735},{""stimulus"":""https://ziweizhang0304.github.io/Stats_learning_trig/img/Stim/FN_011_g.png"",""time"":3414.2000000476837},{""stimulus"":""blank"",""time"":3721.5},{""stimulus"":""https://ziweizhang0304.github.io/Stats_learning_trig/img/Stim/FN_013_g.png"",""time"":3753.4000000953674},{""stimulus"":""blank"",""time"":4064.100000143051},{""stimulus"":""https://ziweizhang0304.github.io/Stats_learning_trig/img/Stim/FN_023_g.png"",""time"":4086.9000000953674},{""stimulus"":""blank"",""time"":4395.200000047684}]","[{""key_press"":32,""rt"":2857.100000143051,""stimulus"":""https://ziweizhang0304.github.io/Stats_learning_trig/img/Stim/FN_012_g.png""}]","475.90000009536743","https://ziweizhang0304.github.io/Stats_learning_trig/img/Stim/FN_016_g.png","post_TD","17","2381.2000000476837","2857.100000143051","slow","7","3","5ffc97615991d411f8ceff96","","","","","",""
"","image-keyboard-response","47","322414","0.0-5.0-17.0-0.0","126457.69999980927","","","https://ziweizhang0304.github.io/Stats_learning_trig/img/Stim/FN_007_g.png","13","","","","","","","","","","","","","","","","","",""
"","animation","48","326836","0.0-5.0-17.0-1.0","","","","","","[{""stimulus"":""https://ziweizhang0304.github.io/Stats_learning_trig/img/Stim/FN_024_g.png"",""time"":351.7999999523163},{""stimulus"":""blank"",""time"":665.2999999523163},{""stimulus"":""https://ziweizhang0304.github.io/Stats_learning_trig/img/Stim/FN_013_g.png"",""time"":688.7999999523163},{""stimulus"":""blank"",""time"":997.5},{""stimulus"":""https://ziweizhang0304.github.io/Stats_learning_trig/img/Stim/FN_008_g.png"",""time"":1021},{""stimulus"":""blank"",""time"":1330.2000000476837},{""stimulus"":""https://ziweizhang0304.github.io/Stats_learning_trig/img/Stim/FN_012_g.png"",""time"":1362.4000000953674},{""stimulus"":""blank"",""time"":1678.5},{""stimulus"":""https://ziweizhang0304.github.io/Stats_learning_trig/img/Stim/FN_020_g.png"",""time"":1701.5999999046326},{""stimulus"":""blank"",""time"":2009.7999999523163},{""stimulus"":""https://ziweizhang0304.github.io/Stats_learning_trig/img/Stim/FN_014_g.png"",""time"":2041.7999999523163},{""stimulus"":""blank"",""time"":2349.2999999523163},{""stimulus"":""https://ziweizhang0304.github.io/Stats_learning_trig/img/Stim/FN_025_g.png"",""time"":2381.2000000476837},{""stimulus"":""blank"",""time"":2693.2999999523163},{""stimulus"":""https://ziweizhang0304.github.io/Stats_learning_trig/img/Stim/FN_007_g.png"",""time"":2725.2000000476837},{""stimulus"":""blank"",""time"":3027.7999999523163},{""stimulus"":""https://ziweizhang0304.github.io/Stats_learning_trig/img/Stim/FN_017_g.png"",""time"":3061.5},{""stimulus"":""blank"",""time"":3375.7000000476837},{""stimulus"":""https://ziweizhang0304.github.io/Stats_learning_trig/img/Stim/FN_011_g.png"",""time"":3406.7000000476837},{""stimulus"":""blank"",""time"":3708.2000000476837},{""stimulus"":""https://ziweizhang0304.github.io/Stats_learning_trig/img/Stim/FN_023_g.png"",""time"":3748.2000000476837},{""stimulus"":""blank"",""time"":4048.2999999523163},{""stimulus"":""https://ziweizhang0304.github.io/Stats_learning_trig/img/Stim/FN_001_g.png"",""time"":4088.2999999523163},{""stimulus"":""blank"",""time"":4389.299999952316}]","[{""key_press"":32,""rt"":3062.2000000476837,""stimulus"":""https://ziweizhang0304.github.io/Stats_learning_trig/img/Stim/FN_017_g.png""}]","337","https://ziweizhang0304.github.io/Stats_learning_trig/img/Stim/FN_007_g.png","post_TD","18","2725.2000000476837","3062.2000000476837","fast","8","2","5ffc97615991d411f8ceff96","","","","","",""
"","image-keyboard-response","49","330342","0.0-5.0-18.0-0.0","3504.800000190735","","","https://ziweizhang0304.github.io/Stats_learning_trig/img/Stim/FN_017_g.png","13","","","","","","","","","","","","","","","","","",""
"","animation","50","334767","0.0-5.0-18.0-1.0","","","","","","[{""stimulus"":""https://ziweizhang0304.github.io/Stats_learning_trig/img/Stim/FN_013_g.png"",""time"":349},{""stimulus"":""blank"",""time"":654.5999999046326},{""stimulus"":""https://ziweizhang0304.github.io/Stats_learning_trig/img/Stim/FN_011_g.png"",""time"":694.5999999046326},{""stimulus"":""blank"",""time"":1005.8999998569489},{""stimulus"":""https://ziweizhang0304.github.io/Stats_learning_trig/img/Stim/FN_001_g.png"",""time"":1021.2999999523163},{""stimulus"":""blank"",""time"":1334.7999999523163},{""stimulus"":""https://ziweizhang0304.github.io/Stats_learning_trig/img/Stim/FN_020_g.png"",""time"":1367.0999999046326},{""stimulus"":""blank"",""time"":1671.1999998092651},{""stimulus"":""https://ziweizhang0304.github.io/Stats_learning_trig/img/Stim/FN_025_g.png"",""time"":1703.2999999523163},{""stimulus"":""blank"",""time"":2003.8999998569489},{""stimulus"":""https://ziweizhang0304.github.io/Stats_learning_trig/img/Stim/FN_007_g.png"",""time"":2040.5999999046326},{""stimulus"":""blank"",""time"":2352.0999999046326},{""stimulus"":""https://ziweizhang0304.github.io/Stats_learning_trig/img/Stim/FN_017_g.png"",""time"":2383.2999999523163},{""stimulus"":""blank"",""time"":2686.5},{""stimulus"":""https://ziweizhang0304.github.io/Stats_learning_trig/img/Stim/FN_012_g.png"",""time"":2743.2999999523163},{""stimulus"":""blank"",""time"":3054.2999999523163},{""stimulus"":""https://ziweizhang0304.github.io/Stats_learning_trig/img/Stim/FN_014_g.png"",""time"":3069.199999809265},{""stimulus"":""blank"",""time"":3380.0999999046326},{""stimulus"":""https://ziweizhang0304.github.io/Stats_learning_trig/img/Stim/FN_023_g.png"",""time"":3403.7999999523163},{""stimulus"":""blank"",""time"":3712.0999999046326},{""stimulus"":""https://ziweizhang0304.github.io/Stats_learning_trig/img/Stim/FN_024_g.png"",""time"":3744.199999809265},{""stimulus"":""blank"",""time"":4045.199999809265},{""stimulus"":""https://ziweizhang0304.github.io/Stats_learning_trig/img/Stim/FN_008_g.png"",""time"":4080.7999999523163},{""stimulus"":""blank"",""time"":4393}]","[{""key_press"":32,""rt"":2360.4000000953674,""stimulus"":""blank""}]","NaN","https://ziweizhang0304.github.io/Stats_learning_trig/img/Stim/FN_017_g.png","post_TD","19","2383.2999999523163","","fast","7","3","5ffc97615991d411f8ceff96","","","","","",""
"","image-keyboard-response","51","335465","0.0-5.0-19.0-0.0","697.1999998092651","","","https://ziweizhang0304.github.io/Stats_learning_trig/img/Stim/FN_006_g.png","13","","","","","","","","","","","","","","","","","",""
"","animation","52","339891","0.0-5.0-19.0-1.0","","","","","","[{""stimulus"":""https://ziweizhang0304.github.io/Stats_learning_trig/img/Stim/FN_012_g.png"",""time"":347.7999999523163},{""stimulus"":""blank"",""time"":653.7999999523163},{""stimulus"":""https://ziweizhang0304.github.io/Stats_learning_trig/img/Stim/FN_014_g.png"",""time"":693.5999999046326},{""stimulus"":""blank"",""time"":999.2999999523163},{""stimulus"":""https://ziweizhang0304.github.io/Stats_learning_trig/img/Stim/FN_013_g.png"",""time"":1022.8999998569489},{""stimulus"":""blank"",""time"":1332.5},{""stimulus"":""https://ziweizhang0304.github.io/Stats_learning_trig/img/Stim/FN_008_g.png"",""time"":1364.7999999523163},{""stimulus"":""blank"",""time"":1667.7999999523163},{""stimulus"":""https://ziweizhang0304.github.io/Stats_learning_trig/img/Stim/FN_001_g.png"",""time"":1716.0999999046326},{""stimulus"":""blank"",""time"":2018.8999998569489},{""stimulus"":""https://ziweizhang0304.github.io/Stats_learning_trig/img/Stim/FN_011_g.png"",""time"":2042.5999999046326},{""stimulus"":""blank"",""time"":2351.0999999046326},{""stimulus"":""https://ziweizhang0304.github.io/Stats_learning_trig/img/Stim/FN_006_g.png"",""time"":2383.2999999523163},{""stimulus"":""blank"",""time"":2696.399999856949},{""stimulus"":""https://ziweizhang0304.github.io/Stats_learning_trig/img/Stim/FN_004_g.png"",""time"":2728.2999999523163},{""stimulus"":""blank"",""time"":3039.899999856949},{""stimulus"":""https://ziweizhang0304.github.io/Stats_learning_trig/img/Stim/FN_016_g.png"",""time"":3063.2000000476837},{""stimulus"":""blank"",""time"":3371.7000000476837},{""stimulus"":""https://ziweizhang0304.github.io/Stats_learning_trig/img/Stim/FN_023_g.png"",""time"":3404.2000000476837},{""stimulus"":""blank"",""time"":3704.5},{""stimulus"":""https://ziweizhang0304.github.io/Stats_learning_trig/img/Stim/FN_020_g.png"",""time"":3744.5999999046326},{""stimulus"":""blank"",""time"":4051.5},{""stimulus"":""https://ziweizhang0304.github.io/Stats_learning_trig/img/Stim/FN_024_g.png"",""time"":4083.899999856949},{""stimulus"":""blank"",""time"":4386.099999904633}]","[{""key_press"":32,""rt"":2780.100000143051,""stimulus"":""https://ziweizhang0304.github.io/Stats_learning_trig/img/Stim/FN_004_g.png""}]","396.80000019073486","https://ziweizhang0304.github.io/Stats_learning_trig/img/Stim/FN_006_g.png","post_TD","20","2383.2999999523163","2780.100000143051","slow","7","1","5ffc97615991d411f8ceff96","","","","","",""
"","image-keyboard-response","53","340275","0.0-5.0-20.0-0.0","382.39999985694885","","","https://ziweizhang0304.github.io/Stats_learning_trig/img/Stim/FN_017_g.png","13","","","","","","","","","","","","","","","","","",""
"","animation","54","344700","0.0-5.0-20.0-1.0","","","","","","[{""stimulus"":""https://ziweizhang0304.github.io/Stats_learning_trig/img/Stim/FN_014_g.png"",""time"":355.7000000476837},{""stimulus"":""blank"",""time"":662.2999999523163},{""stimulus"":""https://ziweizhang0304.github.io/Stats_learning_trig/img/Stim/FN_023_g.png"",""time"":685.9000000953674},{""stimulus"":""blank"",""time"":994.9000000953674},{""stimulus"":""https://ziweizhang0304.github.io/Stats_learning_trig/img/Stim/FN_011_g.png"",""time"":1027.2000000476837},{""stimulus"":""blank"",""time"":1329.7000000476837},{""stimulus"":""https://ziweizhang0304.github.io/Stats_learning_trig/img/Stim/FN_013_g.png"",""time"":1361.9000000953674},{""stimulus"":""blank"",""time"":1677.7000000476837},{""stimulus"":""https://ziweizhang0304.github.io/Stats_learning_trig/img/Stim/FN_024_g.png"",""time"":1701.0999999046326},{""stimulus"":""blank"",""time"":2009.9000000953674},{""stimulus"":""https://ziweizhang0304.github.io/Stats_learning_trig/img/Stim/FN_025_g.png"",""time"":2042},{""stimulus"":""blank"",""time"":2355.7000000476837},{""stimulus"":""https://ziweizhang0304.github.io/Stats_learning_trig/img/Stim/FN_007_g.png"",""time"":2387.7999999523163},{""stimulus"":""blank"",""time"":2699.2000000476837},{""stimulus"":""https://ziweizhang0304.github.io/Stats_learning_trig/img/Stim/FN_017_g.png"",""time"":2722.9000000953674},{""stimulus"":""blank"",""time"":3024.0999999046326},{""stimulus"":""https://ziweizhang0304.github.io/Stats_learning_trig/img/Stim/FN_012_g.png"",""time"":3063.2000000476837},{""stimulus"":""blank"",""time"":3369.5999999046326},{""stimulus"":""https://ziweizhang0304.github.io/Stats_learning_trig/img/Stim/FN_020_g.png"",""time"":3411.2000000476837},{""stimulus"":""blank"",""time"":3718.0999999046326},{""stimulus"":""https://ziweizhang0304.github.io/Stats_learning_trig/img/Stim/FN_001_g.png"",""time"":3741.2000000476837},{""stimulus"":""blank"",""time"":4050.2000000476837},{""stimulus"":""https://ziweizhang0304.github.io/Stats_learning_trig/img/Stim/FN_008_g.png"",""time"":4082.2000000476837},{""stimulus"":""blank"",""time"":4392.700000047684}]","[{""key_press"":32,""rt"":3124.800000190735,""stimulus"":""https://ziweizhang0304.github.io/Stats_learning_trig/img/Stim/FN_012_g.png""}]","401.90000009536743","https://ziweizhang0304.github.io/Stats_learning_trig/img/Stim/FN_017_g.png","post_TD","21","2722.9000000953674","3124.800000190735","fast","8","3","5ffc97615991d411f8ceff96","","","","","",""
"","image-keyboard-response","55","345249","0.0-5.0-21.0-0.0","547.9000000953674","","","https://ziweizhang0304.github.io/Stats_learning_trig/img/Stim/FN_007_g.png","13","","","","","","","","","","","","","","","","","",""
"","animation","56","349674","0.0-5.0-21.0-1.0","","","","","","[{""stimulus"":""https://ziweizhang0304.github.io/Stats_learning_trig/img/Stim/FN_020_g.png"",""time"":344.5},{""stimulus"":""blank"",""time"":649.7000000476837},{""stimulus"":""https://ziweizhang0304.github.io/Stats_learning_trig/img/Stim/FN_008_g.png"",""time"":689.7000000476837},{""stimulus"":""blank"",""time"":990.7000000476837},{""stimulus"":""https://ziweizhang0304.github.io/Stats_learning_trig/img/Stim/FN_013_g.png"",""time"":1022.7000000476837},{""stimulus"":""blank"",""time"":1332.7000000476837},{""stimulus"":""https://ziweizhang0304.github.io/Stats_learning_trig/img/Stim/FN_025_g.png"",""time"":1364.7000000476837},{""stimulus"":""blank"",""time"":1665},{""stimulus"":""https://ziweizhang0304.github.io/Stats_learning_trig/img/Stim/FN_007_g.png"",""time"":1705},{""stimulus"":""blank"",""time"":2015.7999999523163},{""stimulus"":""https://ziweizhang0304.github.io/Stats_learning_trig/img/Stim/FN_017_g.png"",""time"":2048.4000000953674},{""stimulus"":""blank"",""time"":2353.4000000953674},{""stimulus"":""https://ziweizhang0304.github.io/Stats_learning_trig/img/Stim/FN_012_g.png"",""time"":2385.5999999046326},{""stimulus"":""blank"",""time"":2688},{""stimulus"":""https://ziweizhang0304.github.io/Stats_learning_trig/img/Stim/FN_014_g.png"",""time"":2744.2999999523163},{""stimulus"":""blank"",""time"":3045.7000000476837},{""stimulus"":""https://ziweizhang0304.github.io/Stats_learning_trig/img/Stim/FN_011_g.png"",""time"":3061},{""stimulus"":""blank"",""time"":3361.2000000476837},{""stimulus"":""https://ziweizhang0304.github.io/Stats_learning_trig/img/Stim/FN_023_g.png"",""time"":3407.5999999046326},{""stimulus"":""blank"",""time"":3709.2999999523163},{""stimulus"":""https://ziweizhang0304.github.io/Stats_learning_trig/img/Stim/FN_001_g.png"",""time"":3741.9000000953674},{""stimulus"":""blank"",""time"":4049},{""stimulus"":""https://ziweizhang0304.github.io/Stats_learning_trig/img/Stim/FN_024_g.png"",""time"":4088.7999999523163},{""stimulus"":""blank"",""time"":4402}]","[{""key_press"":32,""rt"":2179.100000143051,""stimulus"":""https://ziweizhang0304.github.io/Stats_learning_trig/img/Stim/FN_017_g.png""}]","474.10000014305115","https://ziweizhang0304.github.io/Stats_learning_trig/img/Stim/FN_007_g.png","post_TD","22","1705","2179.100000143051","fast","5","2","5ffc97615991d411f8ceff96","","","","","",""
"","image-keyboard-response","57","350049","0.0-5.0-22.0-0.0","373.2000000476837","","","https://ziweizhang0304.github.io/Stats_learning_trig/img/Stim/FN_006_g.png","13","","","","","","","","","","","","","","","","","",""
"","animation","58","354472","0.0-5.0-22.0-1.0","","","","","","[{""stimulus"":""https://ziweizhang0304.github.io/Stats_learning_trig/img/Stim/FN_024_g.png"",""time"":355.2000000476837},{""stimulus"":""blank"",""time"":669.7000000476837},{""stimulus"":""https://ziweizhang0304.github.io/Stats_learning_trig/img/Stim/FN_020_g.png"",""time"":684.9000000953674},{""stimulus"":""blank"",""time"":998.7999999523163},{""stimulus"":""https://ziweizhang0304.github.io/Stats_learning_trig/img/Stim/FN_011_g.png"",""time"":1022.1000001430511},{""stimulus"":""blank"",""time"":1334.5},{""stimulus"":""https://ziweizhang0304.github.io/Stats_learning_trig/img/Stim/FN_001_g.png"",""time"":1366.9000000953674},{""stimulus"":""blank"",""time"":1670.2000000476837},{""stimulus"":""https://ziweizhang0304.github.io/Stats_learning_trig/img/Stim/FN_014_g.png"",""time"":1702.7000000476837},{""stimulus"":""blank"",""time"":2014.6000001430511},{""stimulus"":""https://ziweizhang0304.github.io/Stats_learning_trig/img/Stim/FN_006_g.png"",""time"":2046.6000001430511},{""stimulus"":""blank"",""time"":2348.100000143051},{""stimulus"":""https://ziweizhang0304.github.io/Stats_learning_trig/img/Stim/FN_004_g.png"",""time"":2388.100000143051},{""stimulus"":""blank"",""time"":2696.7999999523163},{""stimulus"":""https://ziweizhang0304.github.io/Stats_learning_trig/img/Stim/FN_016_g.png"",""time"":2729.2000000476837},{""stimulus"":""blank"",""time"":3041.100000143051},{""stimulus"":""https://ziweizhang0304.github.io/Stats_learning_trig/img/Stim/FN_012_g.png"",""time"":3064.5},{""stimulus"":""blank"",""time"":3370.2999999523163},{""stimulus"":""https://ziweizhang0304.github.io/Stats_learning_trig/img/Stim/FN_013_g.png"",""time"":3402.5},{""stimulus"":""blank"",""time"":3716.100000143051},{""stimulus"":""https://ziweizhang0304.github.io/Stats_learning_trig/img/Stim/FN_023_g.png"",""time"":3748.2000000476837},{""stimulus"":""blank"",""time"":4048.7999999523163},{""stimulus"":""https://ziweizhang0304.github.io/Stats_learning_trig/img/Stim/FN_008_g.png"",""time"":4081.100000143051},{""stimulus"":""blank"",""time"":4384}]","[{""key_press"":32,""rt"":2451.7999999523163,""stimulus"":""https://ziweizhang0304.github.io/Stats_learning_trig/img/Stim/FN_004_g.png""}]","405.19999980926514","https://ziweizhang0304.github.io/Stats_learning_trig/img/Stim/FN_006_g.png","post_TD","23","2046.6000001430511","2451.7999999523163","slow","6","1","5ffc97615991d411f8ceff96","","","","","",""
"","image-keyboard-response","59","354824","0.0-5.0-23.0-0.0","350.90000009536743","","","https://ziweizhang0304.github.io/Stats_learning_trig/img/Stim/FN_016_g.png","13","","","","","","","","","","","","","","","","","",""
"","animation","60","359248","0.0-5.0-23.0-1.0","","","","","","[{""stimulus"":""https://ziweizhang0304.github.io/Stats_learning_trig/img/Stim/FN_011_g.png"",""time"":345.09999990463257},{""stimulus"":""blank"",""time"":653.9000000953674},{""stimulus"":""https://ziweizhang0304.github.io/Stats_learning_trig/img/Stim/FN_013_g.png"",""time"":685.7999999523163},{""stimulus"":""blank"",""time"":993.5999999046326},{""stimulus"":""https://ziweizhang0304.github.io/Stats_learning_trig/img/Stim/FN_001_g.png"",""time"":1025.4000000953674},{""stimulus"":""blank"",""time"":1341.0999999046326},{""stimulus"":""https://ziweizhang0304.github.io/Stats_learning_trig/img/Stim/FN_006_g.png"",""time"":1364.9000000953674},{""stimulus"":""blank"",""time"":1674.2999999523163},{""stimulus"":""https://ziweizhang0304.github.io/Stats_learning_trig/img/Stim/FN_004_g.png"",""time"":1705.5999999046326},{""stimulus"":""blank"",""time"":2012.7000000476837},{""stimulus"":""https://ziweizhang0304.github.io/Stats_learning_trig/img/Stim/FN_016_g.png"",""time"":2045.2000000476837},{""stimulus"":""blank"",""time"":2345.5999999046326},{""stimulus"":""https://ziweizhang0304.github.io/Stats_learning_trig/img/Stim/FN_012_g.png"",""time"":2385.5999999046326},{""stimulus"":""blank"",""time"":2700.2999999523163},{""stimulus"":""https://ziweizhang0304.github.io/Stats_learning_trig/img/Stim/FN_014_g.png"",""time"":2724.2000000476837},{""stimulus"":""blank"",""time"":3029.9000000953674},{""stimulus"":""https://ziweizhang0304.github.io/Stats_learning_trig/img/Stim/FN_023_g.png"",""time"":3062.2000000476837},{""stimulus"":""blank"",""time"":3377.5},{""stimulus"":""https://ziweizhang0304.github.io/Stats_learning_trig/img/Stim/FN_020_g.png"",""time"":3400.9000000953674},{""stimulus"":""blank"",""time"":3706.7000000476837},{""stimulus"":""https://ziweizhang0304.github.io/Stats_learning_trig/img/Stim/FN_024_g.png"",""time"":3747},{""stimulus"":""blank"",""time"":4053.2000000476837},{""stimulus"":""https://ziweizhang0304.github.io/Stats_learning_trig/img/Stim/FN_008_g.png"",""time"":4085.0999999046326},{""stimulus"":""blank"",""time"":4400.799999952316}]","[{""key_press"":32,""rt"":2458.7000000476837,""stimulus"":""https://ziweizhang0304.github.io/Stats_learning_trig/img/Stim/FN_012_g.png""}]","413.5","https://ziweizhang0304.github.io/Stats_learning_trig/img/Stim/FN_016_g.png","post_TD","24","2045.2000000476837","2458.7000000476837","slow","6","3","5ffc97615991d411f8ceff96","479f5","","","","",""
"","survey-text","61","376238","0.0-6.0","16986.400000095367","","","","","","","","","","","","","","","","","","{""Q0"":""\nI named the shapes. Shoe, house, butt.""}","","","",""
"","survey-text","62","388393","0.0-7.0","12138.400000095367","","","","","","","","","","","","","","","","","","{""[object Object]"":""Previous answer!""}","","","",""
"","instructions","63","394193","0.0-8.0","5799.799999952316","","[{""page_index"":0,""viewing_time"":5799.599999904633}]","","","","","","","","","","","","","","","","","","","",""
"","free-sort","64","423905","0.0-9.0","29710.5","","","","","","","","","post_drag","","","","fast","","","","","","[{""src"":""https://ziweizhang0304.github.io/Stats_learning_trig/img/Stim/FN_017_g.png"",""x"":475,""y"":0},{""src"":""https://ziweizhang0304.github.io/Stats_learning_trig/img/Stim/FN_025_g.png"",""x"":-225,""y"":50},{""src"":""https://ziweizhang0304.github.io/Stats_learning_trig/img/Stim/FN_007_g.png"",""x"":475,""y"":50}]","[{""src"":""https://ziweizhang0304.github.io/Stats_learning_trig/img/Stim/FN_025_g.png"",""x"":39,""y"":24},{""src"":""https://ziweizhang0304.github.io/Stats_learning_trig/img/Stim/FN_007_g.png"",""x"":135,""y"":14},{""src"":""https://ziweizhang0304.github.io/Stats_learning_trig/img/Stim/FN_017_g.png"",""x"":260,""y"":20}]","[{""src"":""https://ziweizhang0304.github.io/Stats_learning_trig/img/Stim/FN_017_g.png"",""x"":260,""y"":20},{""src"":""https://ziweizhang0304.github.io/Stats_learning_trig/img/Stim/FN_025_g.png"",""x"":39,""y"":24},{""src"":""https://ziweizhang0304.github.io/Stats_learning_trig/img/Stim/FN_007_g.png"",""x"":135,""y"":14}]",""
"","free-sort","65","431738","0.0-10.0","7832.700000047684","","","","","","","","","post_drag","","","","slow","","","","","","[{""src"":""https://ziweizhang0304.github.io/Stats_learning_trig/img/Stim/FN_004_g.png"",""x"":475,""y"":0},{""src"":""https://ziweizhang0304.github.io/Stats_learning_trig/img/Stim/FN_016_g.png"",""x"":-225,""y"":50},{""src"":""https://ziweizhang0304.github.io/Stats_learning_trig/img/Stim/FN_006_g.png"",""x"":475,""y"":50}]","[{""src"":""https://ziweizhang0304.github.io/Stats_learning_trig/img/Stim/FN_004_g.png"",""x"":25,""y"":29},{""src"":""https://ziweizhang0304.github.io/Stats_learning_trig/img/Stim/FN_016_g.png"",""x"":117,""y"":23},{""src"":""https://ziweizhang0304.github.io/Stats_learning_trig/img/Stim/FN_006_g.png"",""x"":230,""y"":43}]","[{""src"":""https://ziweizhang0304.github.io/Stats_learning_trig/img/Stim/FN_004_g.png"",""x"":25,""y"":29},{""src"":""https://ziweizhang0304.github.io/Stats_learning_trig/img/Stim/FN_016_g.png"",""x"":117,""y"":23},{""src"":""https://ziweizhang0304.github.io/Stats_learning_trig/img/Stim/FN_006_g.png"",""x"":230,""y"":43}]",""
"","survey-multi-choice","66","443372","0.0-11.0","11631.599999904633","","","","","","","","","","","","","","","","5ffc97615991d411f8ceff96","","{""awareness"":""No"",""attention_check"":""Press SPACEBAR to a target""}","","","","[0,1]"
