"success","trial_type","trial_index","time_elapsed","internal_node_id","rt","url","view_history","stimulus","key_press","animation_sequence","response","TD_rt","TD_target","test_part","TD_trial_number","onset","offset","attention_state","TD_target_position","TD_within_triplet_counter","participant","yoke_participant","responses","init_locations","moves","final_locations","question_order"
"true","fullscreen","0","4970","0.0-0.0","","","","","","","","","","","","","","","","","","","","","","",""
"","external-html","1","15649","0.0-1.0","10566.400000095367","https://ziweizhang0304.github.io/Stats_learning_trig/content/consent.html","","","","","","","","","","","","","","","","","","","","",""
"","instructions","2","51608","0.0-2.0","35957.10000038147","","[{""page_index"":0,""viewing_time"":3451.300000190735},{""page_index"":1,""viewing_time"":11946.599999904633},{""page_index"":2,""viewing_time"":18531.099999904633},{""page_index"":3,""viewing_time"":2027.8000001907349}]","","","","","","","","","","","","","","","","","","","",""
"","image-keyboard-response","3","64196","0.0-3.0-0.0-0.0","12586.299999713898","","","https://ziweizhang0304.github.io/Stats_learning_trig/img/Stim/FN_008_g.png","13","","","","","","","","","","","","","","","","","",""
"","animation","4","68624","0.0-3.0-0.0-1.0","","","","","","[{""stimulus"":""https://ziweizhang0304.github.io/Stats_learning_trig/img/Stim/FN_025_g.png"",""time"":370.2999997138977},{""stimulus"":""blank"",""time"":672.5999999046326},{""stimulus"":""https://ziweizhang0304.github.io/Stats_learning_trig/img/Stim/FN_002_g.png"",""time"":685.2999997138977},{""stimulus"":""blank"",""time"":985.5999999046326},{""stimulus"":""https://ziweizhang0304.github.io/Stats_learning_trig/img/Stim/FN_022_g.png"",""time"":1027.8999996185303},{""stimulus"":""blank"",""time"":1329.0999999046326},{""stimulus"":""https://ziweizhang0304.github.io/Stats_learning_trig/img/Stim/FN_015_g.png"",""time"":1368},{""stimulus"":""blank"",""time"":1668.5},{""stimulus"":""https://ziweizhang0304.github.io/Stats_learning_trig/img/Stim/FN_013_g.png"",""time"":1702.3999996185303},{""stimulus"":""blank"",""time"":2016.7999997138977},{""stimulus"":""https://ziweizhang0304.github.io/Stats_learning_trig/img/Stim/FN_009_g.png"",""time"":2050.2999997138977},{""stimulus"":""blank"",""time"":2360},{""stimulus"":""https://ziweizhang0304.github.io/Stats_learning_trig/img/Stim/FN_012_g.png"",""time"":2383.699999809265},{""stimulus"":""blank"",""time"":2698.8999996185303},{""stimulus"":""https://ziweizhang0304.github.io/Stats_learning_trig/img/Stim/FN_003_g.png"",""time"":2726},{""stimulus"":""blank"",""time"":3026.699999809265},{""stimulus"":""https://ziweizhang0304.github.io/Stats_learning_trig/img/Stim/FN_008_g.png"",""time"":3066.5},{""stimulus"":""blank"",""time"":3367.7999997138977},{""stimulus"":""https://ziweizhang0304.github.io/Stats_learning_trig/img/Stim/FN_005_g.png"",""time"":3401.8999996185303},{""stimulus"":""blank"",""time"":3702.8999996185303},{""stimulus"":""https://ziweizhang0304.github.io/Stats_learning_trig/img/Stim/FN_004_g.png"",""time"":3742.0999999046326},{""stimulus"":""blank"",""time"":4052.5999999046326},{""stimulus"":""https://ziweizhang0304.github.io/Stats_learning_trig/img/Stim/FN_001_g.png"",""time"":4082.0999999046326},{""stimulus"":""blank"",""time"":4383.599999904633}]","[{""key_press"":32,""rt"":2400.4000000953674,""stimulus"":""https://ziweizhang0304.github.io/Stats_learning_trig/img/Stim/FN_012_g.png""},{""key_press"":32,""rt"":3478.1000003814697,""stimulus"":""https://ziweizhang0304.github.io/Stats_learning_trig/img/Stim/FN_005_g.png""}]","411.6000003814697","https://ziweizhang0304.github.io/Stats_learning_trig/img/Stim/FN_008_g.png","post_prac","","","","","","","","","","","","",""
"","html-keyboard-response","5","82661","0.0-3.0-0.0-2.0","14030","","","<p>Your reaction time for this trial was 411.6 ms.</p><p>Remember that you should only press the SPACEBAR when you see the shape presented at the beginning of the trial. </b> </p><p>Press enter to move on.</p>","13","","","","","","","","","","","","","","","","","",""
"","image-keyboard-response","6","130256","0.0-3.0-1.0-0.0","47594.2000002861","","","https://ziweizhang0304.github.io/Stats_learning_trig/img/Stim/FN_009_g.png","13","","","","","","","","","","","","","","","","","",""
"","animation","7","134689","0.0-3.0-1.0-1.0","","","","","","[{""stimulus"":""https://ziweizhang0304.github.io/Stats_learning_trig/img/Stim/FN_015_g.png"",""time"":354.69999980926514},{""stimulus"":""blank"",""time"":665.5},{""stimulus"":""https://ziweizhang0304.github.io/Stats_learning_trig/img/Stim/FN_003_g.png"",""time"":693.5},{""stimulus"":""blank"",""time"":1003.8999996185303},{""stimulus"":""https://ziweizhang0304.github.io/Stats_learning_trig/img/Stim/FN_025_g.png"",""time"":1026.5},{""stimulus"":""blank"",""time"":1340.5},{""stimulus"":""https://ziweizhang0304.github.io/Stats_learning_trig/img/Stim/FN_009_g.png"",""time"":1364.6999998092651},{""stimulus"":""blank"",""time"":1671.8999996185303},{""stimulus"":""https://ziweizhang0304.github.io/Stats_learning_trig/img/Stim/FN_008_g.png"",""time"":1705.8999996185303},{""stimulus"":""blank"",""time"":2011.3999996185303},{""stimulus"":""https://ziweizhang0304.github.io/Stats_learning_trig/img/Stim/FN_005_g.png"",""time"":2042.0999999046326},{""stimulus"":""blank"",""time"":2352.0999999046326},{""stimulus"":""https://ziweizhang0304.github.io/Stats_learning_trig/img/Stim/FN_002_g.png"",""time"":2383.5},{""stimulus"":""blank"",""time"":2694.8999996185303},{""stimulus"":""https://ziweizhang0304.github.io/Stats_learning_trig/img/Stim/FN_001_g.png"",""time"":2724.2999997138977},{""stimulus"":""blank"",""time"":3027.199999809265},{""stimulus"":""https://ziweizhang0304.github.io/Stats_learning_trig/img/Stim/FN_022_g.png"",""time"":3066.199999809265},{""stimulus"":""blank"",""time"":3372.699999809265},{""stimulus"":""https://ziweizhang0304.github.io/Stats_learning_trig/img/Stim/FN_012_g.png"",""time"":3404.5},{""stimulus"":""blank"",""time"":3719},{""stimulus"":""https://ziweizhang0304.github.io/Stats_learning_trig/img/Stim/FN_013_g.png"",""time"":3746.2999997138977},{""stimulus"":""blank"",""time"":4050.199999809265},{""stimulus"":""https://ziweizhang0304.github.io/Stats_learning_trig/img/Stim/FN_004_g.png"",""time"":4082.5},{""stimulus"":""blank"",""time"":4384.39999961853}]","[{""key_press"":32,""rt"":1726.2999997138977,""stimulus"":""https://ziweizhang0304.github.io/Stats_learning_trig/img/Stim/FN_008_g.png""}]","361.59999990463257","https://ziweizhang0304.github.io/Stats_learning_trig/img/Stim/FN_009_g.png","post_prac","","","","","","","","","","","","",""
"","html-keyboard-response","8","139945","0.0-3.0-1.0-2.0","5253.89999961853","","","<p>Your reaction time for this trial was 361.6 ms.</p><p>Remember that you should only press the SPACEBAR when you see the shape presented at the beginning of the trial. </b> </p><p>Press enter to move on.</p>","13","","","","","","","","","","","","","","","","","",""
"","image-keyboard-response","9","145878","0.0-3.0-2.0-0.0","5932","","","https://ziweizhang0304.github.io/Stats_learning_trig/img/Stim/FN_005_g.png","13","","","","","","","","","","","","","","","","","",""
"","animation","10","150300","0.0-3.0-2.0-1.0","","","","","","[{""stimulus"":""https://ziweizhang0304.github.io/Stats_learning_trig/img/Stim/FN_012_g.png"",""time"":344.7999997138977},{""stimulus"":""blank"",""time"":654.5999999046326},{""stimulus"":""https://ziweizhang0304.github.io/Stats_learning_trig/img/Stim/FN_001_g.png"",""time"":690.3999996185303},{""stimulus"":""blank"",""time"":995.3999996185303},{""stimulus"":""https://ziweizhang0304.github.io/Stats_learning_trig/img/Stim/FN_022_g.png"",""time"":1023.5999999046326},{""stimulus"":""blank"",""time"":1328.3999996185303},{""stimulus"":""https://ziweizhang0304.github.io/Stats_learning_trig/img/Stim/FN_015_g.png"",""time"":1364.1999998092651},{""stimulus"":""blank"",""time"":1677.2999997138977},{""stimulus"":""https://ziweizhang0304.github.io/Stats_learning_trig/img/Stim/FN_003_g.png"",""time"":1706.1999998092651},{""stimulus"":""blank"",""time"":2013.2999997138977},{""stimulus"":""https://ziweizhang0304.github.io/Stats_learning_trig/img/Stim/FN_009_g.png"",""time"":2049},{""stimulus"":""blank"",""time"":2349.3999996185303},{""stimulus"":""https://ziweizhang0304.github.io/Stats_learning_trig/img/Stim/FN_008_g.png"",""time"":2382.8999996185303},{""stimulus"":""blank"",""time"":2694.699999809265},{""stimulus"":""https://ziweizhang0304.github.io/Stats_learning_trig/img/Stim/FN_005_g.png"",""time"":2722},{""stimulus"":""blank"",""time"":3029.199999809265},{""stimulus"":""https://ziweizhang0304.github.io/Stats_learning_trig/img/Stim/FN_002_g.png"",""time"":3065.5999999046326},{""stimulus"":""blank"",""time"":3366},{""stimulus"":""https://ziweizhang0304.github.io/Stats_learning_trig/img/Stim/FN_013_g.png"",""time"":3404.7999997138977},{""stimulus"":""blank"",""time"":3710.0999999046326},{""stimulus"":""https://ziweizhang0304.github.io/Stats_learning_trig/img/Stim/FN_004_g.png"",""time"":3748.5},{""stimulus"":""blank"",""time"":4052.5},{""stimulus"":""https://ziweizhang0304.github.io/Stats_learning_trig/img/Stim/FN_025_g.png"",""time"":4084.2999997138977},{""stimulus"":""blank"",""time"":4394.89999961853}]","[{""key_press"":32,""rt"":3072.5,""stimulus"":""https://ziweizhang0304.github.io/Stats_learning_trig/img/Stim/FN_002_g.png""}]","350.5","https://ziweizhang0304.github.io/Stats_learning_trig/img/Stim/FN_005_g.png","post_prac","","","","","","","","","","","","",""
"","html-keyboard-response","11","154300","0.0-3.0-2.0-2.0","3997.9000000953674","","","<p>Your reaction time for this trial was 350.5 ms.</p><p>Remember that you should only press the SPACEBAR when you see the shape presented at the beginning of the trial. </b> </p><p>Press enter to move on.</p>","13","","","","","","","","","","","","","","","","","",""
"","instructions","12","156068","0.0-4.0","1767.7999997138977","","[{""page_index"":0,""viewing_time"":1767.5999999046326}]","","","","","","","","","","","","","","","","","","","",""
"","image-keyboard-response","13","158148","0.0-5.0-0.0-0.0","2079.199999809265","","","https://ziweizhang0304.github.io/Stats_learning_trig/img/Stim/FN_019_g.png","13","","","","","","","","","","","","","","","","","",""
"","animation","14","162570","0.0-5.0-0.0-1.0","","","","","","[{""stimulus"":""https://ziweizhang0304.github.io/Stats_learning_trig/img/Stim/FN_003_g.png"",""time"":347.30000019073486},{""stimulus"":""blank"",""time"":647.5},{""stimulus"":""https://ziweizhang0304.github.io/Stats_learning_trig/img/Stim/FN_013_g.png"",""time"":683.3000001907349},{""stimulus"":""blank"",""time"":990.7000002861023},{""stimulus"":""https://ziweizhang0304.github.io/Stats_learning_trig/img/Stim/FN_015_g.png"",""time"":1025},{""stimulus"":""blank"",""time"":1329.2000002861023},{""stimulus"":""https://ziweizhang0304.github.io/Stats_learning_trig/img/Stim/FN_001_g.png"",""time"":1365.9000000953674},{""stimulus"":""blank"",""time"":1680},{""stimulus"":""https://ziweizhang0304.github.io/Stats_learning_trig/img/Stim/FN_022_g.png"",""time"":1707.5},{""stimulus"":""blank"",""time"":2012.8000001907349},{""stimulus"":""https://ziweizhang0304.github.io/Stats_learning_trig/img/Stim/FN_019_g.png"",""time"":2042.1000003814697},{""stimulus"":""blank"",""time"":2343.300000190735},{""stimulus"":""https://ziweizhang0304.github.io/Stats_learning_trig/img/Stim/FN_006_g.png"",""time"":2381.2000002861023},{""stimulus"":""blank"",""time"":2695},{""stimulus"":""https://ziweizhang0304.github.io/Stats_learning_trig/img/Stim/FN_016_g.png"",""time"":2723.4000000953674},{""stimulus"":""blank"",""time"":3031},{""stimulus"":""https://ziweizhang0304.github.io/Stats_learning_trig/img/Stim/FN_002_g.png"",""time"":3065.9000000953674},{""stimulus"":""blank"",""time"":3376.9000000953674},{""stimulus"":""https://ziweizhang0304.github.io/Stats_learning_trig/img/Stim/FN_012_g.png"",""time"":3405.800000190735},{""stimulus"":""blank"",""time"":3709.300000190735},{""stimulus"":""https://ziweizhang0304.github.io/Stats_learning_trig/img/Stim/FN_004_g.png"",""time"":3748.7000002861023},{""stimulus"":""blank"",""time"":4074.800000190735},{""stimulus"":""https://ziweizhang0304.github.io/Stats_learning_trig/img/Stim/FN_025_g.png"",""time"":4089.300000190735},{""stimulus"":""blank"",""time"":4401.800000190735}]","[{""key_press"":32,""rt"":2407.2999997138977,""stimulus"":""https://ziweizhang0304.github.io/Stats_learning_trig/img/Stim/FN_006_g.png""}]","365.199999332428","https://ziweizhang0304.github.io/Stats_learning_trig/img/Stim/FN_019_g.png","post_TD","1","2042.1000003814697","2407.2999997138977","fast","6","1","610825130bf4669d1b167efe","","","","","",""
"","image-keyboard-response","15","165836","0.0-5.0-1.0-0.0","3263","","","https://ziweizhang0304.github.io/Stats_learning_trig/img/Stim/FN_006_g.png","13","","","","","","","","","","","","","","","","","",""
"","animation","16","170262","0.0-5.0-1.0-1.0","","","","","","[{""stimulus"":""https://ziweizhang0304.github.io/Stats_learning_trig/img/Stim/FN_002_g.png"",""time"":344.30000019073486},{""stimulus"":""blank"",""time"":657.5},{""stimulus"":""https://ziweizhang0304.github.io/Stats_learning_trig/img/Stim/FN_001_g.png"",""time"":689.3000001907349},{""stimulus"":""blank"",""time"":1002.2000002861023},{""stimulus"":""https://ziweizhang0304.github.io/Stats_learning_trig/img/Stim/FN_022_g.png"",""time"":1029.3000001907349},{""stimulus"":""blank"",""time"":1335.3000001907349},{""stimulus"":""https://ziweizhang0304.github.io/Stats_learning_trig/img/Stim/FN_019_g.png"",""time"":1362.7000002861023},{""stimulus"":""blank"",""time"":1673.9000000953674},{""stimulus"":""https://ziweizhang0304.github.io/Stats_learning_trig/img/Stim/FN_006_g.png"",""time"":1703.5},{""stimulus"":""blank"",""time"":2015.5},{""stimulus"":""https://ziweizhang0304.github.io/Stats_learning_trig/img/Stim/FN_016_g.png"",""time"":2045.3000001907349},{""stimulus"":""blank"",""time"":2346.300000190735},{""stimulus"":""https://ziweizhang0304.github.io/Stats_learning_trig/img/Stim/FN_012_g.png"",""time"":2385.4000000953674},{""stimulus"":""blank"",""time"":2686.2000002861023},{""stimulus"":""https://ziweizhang0304.github.io/Stats_learning_trig/img/Stim/FN_003_g.png"",""time"":2721},{""stimulus"":""blank"",""time"":3026.6000003814697},{""stimulus"":""https://ziweizhang0304.github.io/Stats_learning_trig/img/Stim/FN_013_g.png"",""time"":3065.2000002861023},{""stimulus"":""blank"",""time"":3368.1000003814697},{""stimulus"":""https://ziweizhang0304.github.io/Stats_learning_trig/img/Stim/FN_004_g.png"",""time"":3402.5},{""stimulus"":""blank"",""time"":3713.5},{""stimulus"":""https://ziweizhang0304.github.io/Stats_learning_trig/img/Stim/FN_025_g.png"",""time"":3743},{""stimulus"":""blank"",""time"":4058.1000003814697},{""stimulus"":""https://ziweizhang0304.github.io/Stats_learning_trig/img/Stim/FN_015_g.png"",""time"":4089.4000000953674},{""stimulus"":""blank"",""time"":4398.5}]","[{""key_press"":32,""rt"":2099.8999996185303,""stimulus"":""https://ziweizhang0304.github.io/Stats_learning_trig/img/Stim/FN_016_g.png""}]","396.3999996185303","https://ziweizhang0304.github.io/Stats_learning_trig/img/Stim/FN_006_g.png","post_TD","2","1703.5","2099.8999996185303","fast","5","2","610825130bf4669d1b167efe","","","","","",""
"","image-keyboard-response","17","173843","0.0-5.0-2.0-0.0","3579.300000190735","","","https://ziweizhang0304.github.io/Stats_learning_trig/img/Stim/FN_006_g.png","13","","","","","","","","","","","","","","","","","",""
"","animation","18","178271","0.0-5.0-2.0-1.0","","","","","","[{""stimulus"":""https://ziweizhang0304.github.io/Stats_learning_trig/img/Stim/FN_003_g.png"",""time"":341.69999980926514},{""stimulus"":""blank"",""time"":653.8000001907349},{""stimulus"":""https://ziweizhang0304.github.io/Stats_learning_trig/img/Stim/FN_013_g.png"",""time"":681.4000000953674},{""stimulus"":""blank"",""time"":992.5},{""stimulus"":""https://ziweizhang0304.github.io/Stats_learning_trig/img/Stim/FN_015_g.png"",""time"":1024.5},{""stimulus"":""blank"",""time"":1336.1999998092651},{""stimulus"":""https://ziweizhang0304.github.io/Stats_learning_trig/img/Stim/FN_001_g.png"",""time"":1364},{""stimulus"":""blank"",""time"":1672.6999998092651},{""stimulus"":""https://ziweizhang0304.github.io/Stats_learning_trig/img/Stim/FN_022_g.png"",""time"":1714.3000001907349},{""stimulus"":""blank"",""time"":2030.0999999046326},{""stimulus"":""https://ziweizhang0304.github.io/Stats_learning_trig/img/Stim/FN_019_g.png"",""time"":2045.5},{""stimulus"":""blank"",""time"":2356.0999999046326},{""stimulus"":""https://ziweizhang0304.github.io/Stats_learning_trig/img/Stim/FN_006_g.png"",""time"":2382.5},{""stimulus"":""blank"",""time"":2690},{""stimulus"":""https://ziweizhang0304.github.io/Stats_learning_trig/img/Stim/FN_016_g.png"",""time"":2730.4000000953674},{""stimulus"":""blank"",""time"":3032.699999809265},{""stimulus"":""https://ziweizhang0304.github.io/Stats_learning_trig/img/Stim/FN_002_g.png"",""time"":3062.9000000953674},{""stimulus"":""blank"",""time"":3371.9000000953674},{""stimulus"":""https://ziweizhang0304.github.io/Stats_learning_trig/img/Stim/FN_012_g.png"",""time"":3405.0999999046326},{""stimulus"":""blank"",""time"":3709.5},{""stimulus"":""https://ziweizhang0304.github.io/Stats_learning_trig/img/Stim/FN_004_g.png"",""time"":3745.0999999046326},{""stimulus"":""blank"",""time"":4059.4000000953674},{""stimulus"":""https://ziweizhang0304.github.io/Stats_learning_trig/img/Stim/FN_025_g.png"",""time"":4093.699999809265},{""stimulus"":""blank"",""time"":4402.400000095367}]","[{""key_press"":32,""rt"":2781.2000002861023,""stimulus"":""https://ziweizhang0304.github.io/Stats_learning_trig/img/Stim/FN_016_g.png""}]","398.7000002861023","https://ziweizhang0304.github.io/Stats_learning_trig/img/Stim/FN_006_g.png","post_TD","3","2382.5","2781.2000002861023","fast","7","2","610825130bf4669d1b167efe","","","","","",""
"","image-keyboard-response","19","180796","0.0-5.0-3.0-0.0","2523.3999996185303","","","https://ziweizhang0304.github.io/Stats_learning_trig/img/Stim/FN_005_g.png","13","","","","","","","","","","","","","","","","","",""
"","animation","20","185224","0.0-5.0-3.0-1.0","","","","","","[{""stimulus"":""https://ziweizhang0304.github.io/Stats_learning_trig/img/Stim/FN_015_g.png"",""time"":348.59999990463257},{""stimulus"":""blank"",""time"":658.6999998092651},{""stimulus"":""https://ziweizhang0304.github.io/Stats_learning_trig/img/Stim/FN_003_g.png"",""time"":681.2999997138977},{""stimulus"":""blank"",""time"":991.2999997138977},{""stimulus"":""https://ziweizhang0304.github.io/Stats_learning_trig/img/Stim/FN_022_g.png"",""time"":1021.5},{""stimulus"":""blank"",""time"":1326.7999997138977},{""stimulus"":""https://ziweizhang0304.github.io/Stats_learning_trig/img/Stim/FN_012_g.png"",""time"":1361.5999999046326},{""stimulus"":""blank"",""time"":1674.6999998092651},{""stimulus"":""https://ziweizhang0304.github.io/Stats_learning_trig/img/Stim/FN_025_g.png"",""time"":1704},{""stimulus"":""blank"",""time"":2012.7999997138977},{""stimulus"":""https://ziweizhang0304.github.io/Stats_learning_trig/img/Stim/FN_004_g.png"",""time"":2041.0999999046326},{""stimulus"":""blank"",""time"":2350.199999809265},{""stimulus"":""https://ziweizhang0304.github.io/Stats_learning_trig/img/Stim/FN_009_g.png"",""time"":2386.8999996185303},{""stimulus"":""blank"",""time"":2689.699999809265},{""stimulus"":""https://ziweizhang0304.github.io/Stats_learning_trig/img/Stim/FN_008_g.png"",""time"":2721.5},{""stimulus"":""blank"",""time"":3037},{""stimulus"":""https://ziweizhang0304.github.io/Stats_learning_trig/img/Stim/FN_005_g.png"",""time"":3069.199999809265},{""stimulus"":""blank"",""time"":3374.199999809265},{""stimulus"":""https://ziweizhang0304.github.io/Stats_learning_trig/img/Stim/FN_002_g.png"",""time"":3402.199999809265},{""stimulus"":""blank"",""time"":3712.7999997138977},{""stimulus"":""https://ziweizhang0304.github.io/Stats_learning_trig/img/Stim/FN_001_g.png"",""time"":3744.0999999046326},{""stimulus"":""blank"",""time"":4044.8999996185303},{""stimulus"":""https://ziweizhang0304.github.io/Stats_learning_trig/img/Stim/FN_013_g.png"",""time"":4092.0999999046326},{""stimulus"":""blank"",""time"":4404.699999809265}]","[{""key_press"":32,""rt"":3425,""stimulus"":""https://ziweizhang0304.github.io/Stats_learning_trig/img/Stim/FN_002_g.png""}]","355.80000019073486","https://ziweizhang0304.github.io/Stats_learning_trig/img/Stim/FN_005_g.png","post_TD","4","3069.199999809265","3425","slow","9","3","610825130bf4669d1b167efe","","","","","",""
"","image-keyboard-response","21","186436","0.0-5.0-4.0-0.0","1209.0999999046326","","","https://ziweizhang0304.github.io/Stats_learning_trig/img/Stim/FN_019_g.png","13","","","","","","","","","","","","","","","","","",""
"","animation","22","190859","0.0-5.0-4.0-1.0","","","","","","[{""stimulus"":""https://ziweizhang0304.github.io/Stats_learning_trig/img/Stim/FN_002_g.png"",""time"":343.09999990463257},{""stimulus"":""blank"",""time"":651.9000000953674},{""stimulus"":""https://ziweizhang0304.github.io/Stats_learning_trig/img/Stim/FN_001_g.png"",""time"":693.4000000953674},{""stimulus"":""blank"",""time"":993.9000000953674},{""stimulus"":""https://ziweizhang0304.github.io/Stats_learning_trig/img/Stim/FN_022_g.png"",""time"":1026.7000002861023},{""stimulus"":""blank"",""time"":1343.8000001907349},{""stimulus"":""https://ziweizhang0304.github.io/Stats_learning_trig/img/Stim/FN_019_g.png"",""time"":1369.0999999046326},{""stimulus"":""blank"",""time"":1680.9000000953674},{""stimulus"":""https://ziweizhang0304.github.io/Stats_learning_trig/img/Stim/FN_006_g.png"",""time"":1702},{""stimulus"":""blank"",""time"":2017.0999999046326},{""stimulus"":""https://ziweizhang0304.github.io/Stats_learning_trig/img/Stim/FN_016_g.png"",""time"":2042.4000000953674},{""stimulus"":""blank"",""time"":2356},{""stimulus"":""https://ziweizhang0304.github.io/Stats_learning_trig/img/Stim/FN_012_g.png"",""time"":2384.9000000953674},{""stimulus"":""blank"",""time"":2687.2000002861023},{""stimulus"":""https://ziweizhang0304.github.io/Stats_learning_trig/img/Stim/FN_003_g.png"",""time"":2725},{""stimulus"":""blank"",""time"":3027.5},{""stimulus"":""https://ziweizhang0304.github.io/Stats_learning_trig/img/Stim/FN_013_g.png"",""time"":3065.5999999046326},{""stimulus"":""blank"",""time"":3380.5},{""stimulus"":""https://ziweizhang0304.github.io/Stats_learning_trig/img/Stim/FN_004_g.png"",""time"":3407.7000002861023},{""stimulus"":""blank"",""time"":3715},{""stimulus"":""https://ziweizhang0304.github.io/Stats_learning_trig/img/Stim/FN_025_g.png"",""time"":3741.800000190735},{""stimulus"":""blank"",""time"":4044.5999999046326},{""stimulus"":""https://ziweizhang0304.github.io/Stats_learning_trig/img/Stim/FN_015_g.png"",""time"":4081.5},{""stimulus"":""blank"",""time"":4395.400000095367}]","[{""key_press"":32,""rt"":1680.1000003814697,""stimulus"":""https://ziweizhang0304.github.io/Stats_learning_trig/img/Stim/FN_019_g.png""}]","311.00000047683716","https://ziweizhang0304.github.io/Stats_learning_trig/img/Stim/FN_019_g.png","post_TD","5","1369.0999999046326","1680.1000003814697","fast","4","1","610825130bf4669d1b167efe","","","","","",""
"","image-keyboard-response","23","191800","0.0-5.0-5.0-0.0","935.7999997138977","","","https://ziweizhang0304.github.io/Stats_learning_trig/img/Stim/FN_009_g.png","13","","","","","","","","","","","","","","","","","",""
"","animation","24","196222","0.0-5.0-5.0-1.0","","","","","","[{""stimulus"":""https://ziweizhang0304.github.io/Stats_learning_trig/img/Stim/FN_015_g.png"",""time"":354},{""stimulus"":""blank"",""time"":660.5999999046326},{""stimulus"":""https://ziweizhang0304.github.io/Stats_learning_trig/img/Stim/FN_003_g.png"",""time"":681.5},{""stimulus"":""blank"",""time"":982.7999997138977},{""stimulus"":""https://ziweizhang0304.github.io/Stats_learning_trig/img/Stim/FN_025_g.png"",""time"":1025.0999999046326},{""stimulus"":""blank"",""time"":1338.7999997138977},{""stimulus"":""https://ziweizhang0304.github.io/Stats_learning_trig/img/Stim/FN_009_g.png"",""time"":1372.7999997138977},{""stimulus"":""blank"",""time"":1673.9000000953674},{""stimulus"":""https://ziweizhang0304.github.io/Stats_learning_trig/img/Stim/FN_008_g.png"",""time"":1705.7999997138977},{""stimulus"":""blank"",""time"":2006.7999997138977},{""stimulus"":""https://ziweizhang0304.github.io/Stats_learning_trig/img/Stim/FN_005_g.png"",""time"":2041.5},{""stimulus"":""blank"",""time"":2356.4000000953674},{""stimulus"":""https://ziweizhang0304.github.io/Stats_learning_trig/img/Stim/FN_002_g.png"",""time"":2381.5999999046326},{""stimulus"":""blank"",""time"":2684.7999997138977},{""stimulus"":""https://ziweizhang0304.github.io/Stats_learning_trig/img/Stim/FN_001_g.png"",""time"":2721.699999809265},{""stimulus"":""blank"",""time"":3024},{""stimulus"":""https://ziweizhang0304.github.io/Stats_learning_trig/img/Stim/FN_022_g.png"",""time"":3064.0999999046326},{""stimulus"":""blank"",""time"":3376.5999999046326},{""stimulus"":""https://ziweizhang0304.github.io/Stats_learning_trig/img/Stim/FN_012_g.png"",""time"":3404.2999997138977},{""stimulus"":""blank"",""time"":3708},{""stimulus"":""https://ziweizhang0304.github.io/Stats_learning_trig/img/Stim/FN_013_g.png"",""time"":3753.699999809265},{""stimulus"":""blank"",""time"":4068.699999809265},{""stimulus"":""https://ziweizhang0304.github.io/Stats_learning_trig/img/Stim/FN_004_g.png"",""time"":4086.7999997138977},{""stimulus"":""blank"",""time"":4400.299999713898}]","[{""key_press"":32,""rt"":1751.5999999046326,""stimulus"":""https://ziweizhang0304.github.io/Stats_learning_trig/img/Stim/FN_008_g.png""}]","378.80000019073486","https://ziweizhang0304.github.io/Stats_learning_trig/img/Stim/FN_009_g.png","post_TD","6","1372.7999997138977","1751.5999999046326","slow","4","1","610825130bf4669d1b167efe","","","","","",""
"","image-keyboard-response","25","197237","0.0-5.0-6.0-0.0","1011.7000002861023","","","https://ziweizhang0304.github.io/Stats_learning_trig/img/Stim/FN_008_g.png","13","","","","","","","","","","","","","","","","","",""
"","animation","26","201665","0.0-5.0-6.0-1.0","","","","","","[{""stimulus"":""https://ziweizhang0304.github.io/Stats_learning_trig/img/Stim/FN_015_g.png"",""time"":342.5},{""stimulus"":""blank"",""time"":650.7000002861023},{""stimulus"":""https://ziweizhang0304.github.io/Stats_learning_trig/img/Stim/FN_003_g.png"",""time"":682.3000001907349},{""stimulus"":""blank"",""time"":989.9000000953674},{""stimulus"":""https://ziweizhang0304.github.io/Stats_learning_trig/img/Stim/FN_022_g.png"",""time"":1020.7000002861023},{""stimulus"":""blank"",""time"":1335},{""stimulus"":""https://ziweizhang0304.github.io/Stats_learning_trig/img/Stim/FN_012_g.png"",""time"":1364.8000001907349},{""stimulus"":""blank"",""time"":1669.4000000953674},{""stimulus"":""https://ziweizhang0304.github.io/Stats_learning_trig/img/Stim/FN_025_g.png"",""time"":1705.5999999046326},{""stimulus"":""blank"",""time"":2010.5999999046326},{""stimulus"":""https://ziweizhang0304.github.io/Stats_learning_trig/img/Stim/FN_004_g.png"",""time"":2047.3000001907349},{""stimulus"":""blank"",""time"":2357},{""stimulus"":""https://ziweizhang0304.github.io/Stats_learning_trig/img/Stim/FN_009_g.png"",""time"":2382},{""stimulus"":""blank"",""time"":2686.800000190735},{""stimulus"":""https://ziweizhang0304.github.io/Stats_learning_trig/img/Stim/FN_008_g.png"",""time"":2721.2000002861023},{""stimulus"":""blank"",""time"":3022.2000002861023},{""stimulus"":""https://ziweizhang0304.github.io/Stats_learning_trig/img/Stim/FN_005_g.png"",""time"":3063.5999999046326},{""stimulus"":""blank"",""time"":3365.300000190735},{""stimulus"":""https://ziweizhang0304.github.io/Stats_learning_trig/img/Stim/FN_002_g.png"",""time"":3400.800000190735},{""stimulus"":""blank"",""time"":3704.0999999046326},{""stimulus"":""https://ziweizhang0304.github.io/Stats_learning_trig/img/Stim/FN_001_g.png"",""time"":3745.5999999046326},{""stimulus"":""blank"",""time"":4049.4000000953674},{""stimulus"":""https://ziweizhang0304.github.io/Stats_learning_trig/img/Stim/FN_013_g.png"",""time"":4088.7000002861023},{""stimulus"":""blank"",""time"":4403.400000095367}]","[{""key_press"":32,""rt"":3153.2999997138977,""stimulus"":""https://ziweizhang0304.github.io/Stats_learning_trig/img/Stim/FN_005_g.png""}]","432.0999994277954","https://ziweizhang0304.github.io/Stats_learning_trig/img/Stim/FN_008_g.png","post_TD","7","2721.2000002861023","3153.2999997138977","slow","8","2","610825130bf4669d1b167efe","","","","","",""
"","image-keyboard-response","27","203330","0.0-5.0-7.0-0.0","1662.0999999046326","","","https://ziweizhang0304.github.io/Stats_learning_trig/img/Stim/FN_005_g.png","13","","","","","","","","","","","","","","","","","",""
"","animation","28","207759","0.0-5.0-7.0-1.0","","","","","","[{""stimulus"":""https://ziweizhang0304.github.io/Stats_learning_trig/img/Stim/FN_015_g.png"",""time"":350.09999990463257},{""stimulus"":""blank"",""time"":651.0999999046326},{""stimulus"":""https://ziweizhang0304.github.io/Stats_learning_trig/img/Stim/FN_003_g.png"",""time"":682.5},{""stimulus"":""blank"",""time"":989.5999999046326},{""stimulus"":""https://ziweizhang0304.github.io/Stats_learning_trig/img/Stim/FN_025_g.png"",""time"":1023.2999997138977},{""stimulus"":""blank"",""time"":1323.6999998092651},{""stimulus"":""https://ziweizhang0304.github.io/Stats_learning_trig/img/Stim/FN_009_g.png"",""time"":1361.0999999046326},{""stimulus"":""blank"",""time"":1663.1999998092651},{""stimulus"":""https://ziweizhang0304.github.io/Stats_learning_trig/img/Stim/FN_008_g.png"",""time"":1707.6999998092651},{""stimulus"":""blank"",""time"":2015.5},{""stimulus"":""https://ziweizhang0304.github.io/Stats_learning_trig/img/Stim/FN_005_g.png"",""time"":2047.4000000953674},{""stimulus"":""blank"",""time"":2363.4000000953674},{""stimulus"":""https://ziweizhang0304.github.io/Stats_learning_trig/img/Stim/FN_002_g.png"",""time"":2389.9000000953674},{""stimulus"":""blank"",""time"":2697.5},{""stimulus"":""https://ziweizhang0304.github.io/Stats_learning_trig/img/Stim/FN_001_g.png"",""time"":2723.5999999046326},{""stimulus"":""blank"",""time"":3024.0999999046326},{""stimulus"":""https://ziweizhang0304.github.io/Stats_learning_trig/img/Stim/FN_022_g.png"",""time"":3063.4000000953674},{""stimulus"":""blank"",""time"":3367.5999999046326},{""stimulus"":""https://ziweizhang0304.github.io/Stats_learning_trig/img/Stim/FN_012_g.png"",""time"":3406},{""stimulus"":""blank"",""time"":3706.4000000953674},{""stimulus"":""https://ziweizhang0304.github.io/Stats_learning_trig/img/Stim/FN_013_g.png"",""time"":3746.0999999046326},{""stimulus"":""blank"",""time"":4053},{""stimulus"":""https://ziweizhang0304.github.io/Stats_learning_trig/img/Stim/FN_004_g.png"",""time"":4087.5},{""stimulus"":""blank"",""time"":4403.299999713898}]","[{""key_press"":32,""rt"":2397.699999809265,""stimulus"":""https://ziweizhang0304.github.io/Stats_learning_trig/img/Stim/FN_002_g.png""}]","350.2999997138977","https://ziweizhang0304.github.io/Stats_learning_trig/img/Stim/FN_005_g.png","post_TD","8","2047.4000000953674","2397.699999809265","slow","6","3","610825130bf4669d1b167efe","","","","","",""
"","image-keyboard-response","29","209852","0.0-5.0-8.0-0.0","2090.4000000953674","","","https://ziweizhang0304.github.io/Stats_learning_trig/img/Stim/FN_016_g.png","13","","","","","","","","","","","","","","","","","",""
"","animation","30","214279","0.0-5.0-8.0-1.0","","","","","","[{""stimulus"":""https://ziweizhang0304.github.io/Stats_learning_trig/img/Stim/FN_003_g.png"",""time"":343.5},{""stimulus"":""blank"",""time"":649.9000000953674},{""stimulus"":""https://ziweizhang0304.github.io/Stats_learning_trig/img/Stim/FN_013_g.png"",""time"":680.9000000953674},{""stimulus"":""blank"",""time"":983.3000001907349},{""stimulus"":""https://ziweizhang0304.github.io/Stats_learning_trig/img/Stim/FN_015_g.png"",""time"":1021.0999999046326},{""stimulus"":""blank"",""time"":1321.7000002861023},{""stimulus"":""https://ziweizhang0304.github.io/Stats_learning_trig/img/Stim/FN_001_g.png"",""time"":1370.5999999046326},{""stimulus"":""blank"",""time"":1679.5999999046326},{""stimulus"":""https://ziweizhang0304.github.io/Stats_learning_trig/img/Stim/FN_022_g.png"",""time"":1703.7000002861023},{""stimulus"":""blank"",""time"":2008.3000001907349},{""stimulus"":""https://ziweizhang0304.github.io/Stats_learning_trig/img/Stim/FN_019_g.png"",""time"":2045.3000001907349},{""stimulus"":""blank"",""time"":2349.9000000953674},{""stimulus"":""https://ziweizhang0304.github.io/Stats_learning_trig/img/Stim/FN_006_g.png"",""time"":2386.5999999046326},{""stimulus"":""blank"",""time"":2690.4000000953674},{""stimulus"":""https://ziweizhang0304.github.io/Stats_learning_trig/img/Stim/FN_016_g.png"",""time"":2726.7000002861023},{""stimulus"":""blank"",""time"":3035.7000002861023},{""stimulus"":""https://ziweizhang0304.github.io/Stats_learning_trig/img/Stim/FN_002_g.png"",""time"":3068.9000000953674},{""stimulus"":""blank"",""time"":3371},{""stimulus"":""https://ziweizhang0304.github.io/Stats_learning_trig/img/Stim/FN_012_g.png"",""time"":3402.2000002861023},{""stimulus"":""blank"",""time"":3710},{""stimulus"":""https://ziweizhang0304.github.io/Stats_learning_trig/img/Stim/FN_004_g.png"",""time"":3740.7000002861023},{""stimulus"":""blank"",""time"":4050.2000002861023},{""stimulus"":""https://ziweizhang0304.github.io/Stats_learning_trig/img/Stim/FN_025_g.png"",""time"":4084.7000002861023},{""stimulus"":""blank"",""time"":4395.5}]","[{""key_press"":32,""rt"":3123.4000000953674,""stimulus"":""https://ziweizhang0304.github.io/Stats_learning_trig/img/Stim/FN_002_g.png""}]","396.69999980926514","https://ziweizhang0304.github.io/Stats_learning_trig/img/Stim/FN_016_g.png","post_TD","9","2726.7000002861023","3123.4000000953674","fast","8","3","610825130bf4669d1b167efe","","","","","",""
"","image-keyboard-response","31","215156","0.0-5.0-9.0-0.0","874.5999999046326","","","https://ziweizhang0304.github.io/Stats_learning_trig/img/Stim/FN_009_g.png","13","","","","","","","","","","","","","","","","","",""
"","animation","32","219581","0.0-5.0-9.0-1.0","","","","","","[{""stimulus"":""https://ziweizhang0304.github.io/Stats_learning_trig/img/Stim/FN_012_g.png"",""time"":356},{""stimulus"":""blank"",""time"":662.6000003814697},{""stimulus"":""https://ziweizhang0304.github.io/Stats_learning_trig/img/Stim/FN_001_g.png"",""time"":687.7000002861023},{""stimulus"":""blank"",""time"":999.7000002861023},{""stimulus"":""https://ziweizhang0304.github.io/Stats_learning_trig/img/Stim/FN_022_g.png"",""time"":1027.9000000953674},{""stimulus"":""blank"",""time"":1329.6000003814697},{""stimulus"":""https://ziweizhang0304.github.io/Stats_learning_trig/img/Stim/FN_015_g.png"",""time"":1361},{""stimulus"":""blank"",""time"":1661.5},{""stimulus"":""https://ziweizhang0304.github.io/Stats_learning_trig/img/Stim/FN_003_g.png"",""time"":1703.7000002861023},{""stimulus"":""blank"",""time"":2016.6000003814697},{""stimulus"":""https://ziweizhang0304.github.io/Stats_learning_trig/img/Stim/FN_009_g.png"",""time"":2043.6000003814697},{""stimulus"":""blank"",""time"":2354.300000190735},{""stimulus"":""https://ziweizhang0304.github.io/Stats_learning_trig/img/Stim/FN_008_g.png"",""time"":2384.5},{""stimulus"":""blank"",""time"":2693.5},{""stimulus"":""https://ziweizhang0304.github.io/Stats_learning_trig/img/Stim/FN_005_g.png"",""time"":2726.2000002861023},{""stimulus"":""blank"",""time"":3030.800000190735},{""stimulus"":""https://ziweizhang0304.github.io/Stats_learning_trig/img/Stim/FN_002_g.png"",""time"":3068.6000003814697},{""stimulus"":""blank"",""time"":3375.4000000953674},{""stimulus"":""https://ziweizhang0304.github.io/Stats_learning_trig/img/Stim/FN_013_g.png"",""time"":3408.9000000953674},{""stimulus"":""blank"",""time"":3709.6000003814697},{""stimulus"":""https://ziweizhang0304.github.io/Stats_learning_trig/img/Stim/FN_004_g.png"",""time"":3741.7000002861023},{""stimulus"":""blank"",""time"":4044.800000190735},{""stimulus"":""https://ziweizhang0304.github.io/Stats_learning_trig/img/Stim/FN_025_g.png"",""time"":4080.800000190735},{""stimulus"":""blank"",""time"":4394.300000190735}]","[{""key_press"":32,""rt"":2394.800000190735,""stimulus"":""https://ziweizhang0304.github.io/Stats_learning_trig/img/Stim/FN_008_g.png""}]","351.19999980926514","https://ziweizhang0304.github.io/Stats_learning_trig/img/Stim/FN_009_g.png","post_TD","10","2043.6000003814697","2394.800000190735","slow","6","1","610825130bf4669d1b167efe","","","","","",""
"","image-keyboard-response","33","221730","0.0-5.0-10.0-0.0","2146.5","","","https://ziweizhang0304.github.io/Stats_learning_trig/img/Stim/FN_008_g.png","13","","","","","","","","","","","","","","","","","",""
"","animation","34","226158","0.0-5.0-10.0-1.0","","","","","","[{""stimulus"":""https://ziweizhang0304.github.io/Stats_learning_trig/img/Stim/FN_012_g.png"",""time"":344.80000019073486},{""stimulus"":""blank"",""time"":658.4000000953674},{""stimulus"":""https://ziweizhang0304.github.io/Stats_learning_trig/img/Stim/FN_001_g.png"",""time"":681.9000000953674},{""stimulus"":""blank"",""time"":994},{""stimulus"":""https://ziweizhang0304.github.io/Stats_learning_trig/img/Stim/FN_022_g.png"",""time"":1022.5999999046326},{""stimulus"":""blank"",""time"":1335.5999999046326},{""stimulus"":""https://ziweizhang0304.github.io/Stats_learning_trig/img/Stim/FN_015_g.png"",""time"":1360.9000000953674},{""stimulus"":""blank"",""time"":1668},{""stimulus"":""https://ziweizhang0304.github.io/Stats_learning_trig/img/Stim/FN_003_g.png"",""time"":1714},{""stimulus"":""blank"",""time"":2018.5},{""stimulus"":""https://ziweizhang0304.github.io/Stats_learning_trig/img/Stim/FN_009_g.png"",""time"":2047.0999999046326},{""stimulus"":""blank"",""time"":2362.0999999046326},{""stimulus"":""https://ziweizhang0304.github.io/Stats_learning_trig/img/Stim/FN_008_g.png"",""time"":2381.300000190735},{""stimulus"":""blank"",""time"":2682.5},{""stimulus"":""https://ziweizhang0304.github.io/Stats_learning_trig/img/Stim/FN_005_g.png"",""time"":2721},{""stimulus"":""blank"",""time"":3031.5999999046326},{""stimulus"":""https://ziweizhang0304.github.io/Stats_learning_trig/img/Stim/FN_002_g.png"",""time"":3063},{""stimulus"":""blank"",""time"":3373.4000000953674},{""stimulus"":""https://ziweizhang0304.github.io/Stats_learning_trig/img/Stim/FN_013_g.png"",""time"":3405.9000000953674},{""stimulus"":""blank"",""time"":3715.7000002861023},{""stimulus"":""https://ziweizhang0304.github.io/Stats_learning_trig/img/Stim/FN_004_g.png"",""time"":3745.5},{""stimulus"":""blank"",""time"":4049.5999999046326},{""stimulus"":""https://ziweizhang0304.github.io/Stats_learning_trig/img/Stim/FN_025_g.png"",""time"":4086},{""stimulus"":""blank"",""time"":4396.800000190735}]","[{""key_press"":32,""rt"":2770.5,""stimulus"":""https://ziweizhang0304.github.io/Stats_learning_trig/img/Stim/FN_005_g.png""}]","389.19999980926514","https://ziweizhang0304.github.io/Stats_learning_trig/img/Stim/FN_008_g.png","post_TD","11","2381.300000190735","2770.5","slow","7","2","610825130bf4669d1b167efe","","","","","",""
"","image-keyboard-response","35","226932","0.0-5.0-11.0-0.0","771.3000001907349","","","https://ziweizhang0304.github.io/Stats_learning_trig/img/Stim/FN_006_g.png","13","","","","","","","","","","","","","","","","","",""
"","animation","36","231362","0.0-5.0-11.0-1.0","","","","","","[{""stimulus"":""https://ziweizhang0304.github.io/Stats_learning_trig/img/Stim/FN_001_g.png"",""time"":345.40000009536743},{""stimulus"":""blank"",""time"":659.4000000953674},{""stimulus"":""https://ziweizhang0304.github.io/Stats_learning_trig/img/Stim/FN_003_g.png"",""time"":684.0999999046326},{""stimulus"":""blank"",""time"":990.4000000953674},{""stimulus"":""https://ziweizhang0304.github.io/Stats_learning_trig/img/Stim/FN_022_g.png"",""time"":1024.5999999046326},{""stimulus"":""blank"",""time"":1338.7000002861023},{""stimulus"":""https://ziweizhang0304.github.io/Stats_learning_trig/img/Stim/FN_004_g.png"",""time"":1370.5999999046326},{""stimulus"":""blank"",""time"":1686.4000000953674},{""stimulus"":""https://ziweizhang0304.github.io/Stats_learning_trig/img/Stim/FN_019_g.png"",""time"":1707.8000001907349},{""stimulus"":""blank"",""time"":2011.4000000953674},{""stimulus"":""https://ziweizhang0304.github.io/Stats_learning_trig/img/Stim/FN_006_g.png"",""time"":2049.800000190735},{""stimulus"":""blank"",""time"":2359.300000190735},{""stimulus"":""https://ziweizhang0304.github.io/Stats_learning_trig/img/Stim/FN_016_g.png"",""time"":2388.300000190735},{""stimulus"":""blank"",""time"":2695.2000002861023},{""stimulus"":""https://ziweizhang0304.github.io/Stats_learning_trig/img/Stim/FN_002_g.png"",""time"":2722.7000002861023},{""stimulus"":""blank"",""time"":3034.800000190735},{""stimulus"":""https://ziweizhang0304.github.io/Stats_learning_trig/img/Stim/FN_012_g.png"",""time"":3065.300000190735},{""stimulus"":""blank"",""time"":3366.300000190735},{""stimulus"":""https://ziweizhang0304.github.io/Stats_learning_trig/img/Stim/FN_013_g.png"",""time"":3405.300000190735},{""stimulus"":""blank"",""time"":3721.2000002861023},{""stimulus"":""https://ziweizhang0304.github.io/Stats_learning_trig/img/Stim/FN_025_g.png"",""time"":3754.9000000953674},{""stimulus"":""blank"",""time"":4066.5},{""stimulus"":""https://ziweizhang0304.github.io/Stats_learning_trig/img/Stim/FN_015_g.png"",""time"":4097.700000286102},{""stimulus"":""blank"",""time"":4410.300000190735}]","[{""key_press"":32,""rt"":2411,""stimulus"":""https://ziweizhang0304.github.io/Stats_learning_trig/img/Stim/FN_016_g.png""}]","361.19999980926514","https://ziweizhang0304.github.io/Stats_learning_trig/img/Stim/FN_006_g.png","post_TD","12","2049.800000190735","2411","fast","6","2","610825130bf4669d1b167efe","","","","","",""
"","image-keyboard-response","37","231711","0.0-5.0-12.0-0.0","346.1000003814697","","","https://ziweizhang0304.github.io/Stats_learning_trig/img/Stim/FN_005_g.png","13","","","","","","","","","","","","","","","","","",""
"","animation","38","236141","0.0-5.0-12.0-1.0","","","","","","[{""stimulus"":""https://ziweizhang0304.github.io/Stats_learning_trig/img/Stim/FN_003_g.png"",""time"":354},{""stimulus"":""blank"",""time"":667.5},{""stimulus"":""https://ziweizhang0304.github.io/Stats_learning_trig/img/Stim/FN_013_g.png"",""time"":683.5999999046326},{""stimulus"":""blank"",""time"":994.0999999046326},{""stimulus"":""https://ziweizhang0304.github.io/Stats_learning_trig/img/Stim/FN_001_g.png"",""time"":1024.0999999046326},{""stimulus"":""blank"",""time"":1334.5999999046326},{""stimulus"":""https://ziweizhang0304.github.io/Stats_learning_trig/img/Stim/FN_012_g.png"",""time"":1361.6999998092651},{""stimulus"":""blank"",""time"":1676},{""stimulus"":""https://ziweizhang0304.github.io/Stats_learning_trig/img/Stim/FN_009_g.png"",""time"":1703.1999998092651},{""stimulus"":""blank"",""time"":2015.5999999046326},{""stimulus"":""https://ziweizhang0304.github.io/Stats_learning_trig/img/Stim/FN_008_g.png"",""time"":2041.6999998092651},{""stimulus"":""blank"",""time"":2352.0999999046326},{""stimulus"":""https://ziweizhang0304.github.io/Stats_learning_trig/img/Stim/FN_005_g.png"",""time"":2381.9000000953674},{""stimulus"":""blank"",""time"":2683.300000190735},{""stimulus"":""https://ziweizhang0304.github.io/Stats_learning_trig/img/Stim/FN_002_g.png"",""time"":2721.800000190735},{""stimulus"":""blank"",""time"":3025.5999999046326},{""stimulus"":""https://ziweizhang0304.github.io/Stats_learning_trig/img/Stim/FN_022_g.png"",""time"":3063},{""stimulus"":""blank"",""time"":3363.800000190735},{""stimulus"":""https://ziweizhang0304.github.io/Stats_learning_trig/img/Stim/FN_004_g.png"",""time"":3414},{""stimulus"":""blank"",""time"":3724.4000000953674},{""stimulus"":""https://ziweizhang0304.github.io/Stats_learning_trig/img/Stim/FN_025_g.png"",""time"":3754.199999809265},{""stimulus"":""blank"",""time"":4058.0999999046326},{""stimulus"":""https://ziweizhang0304.github.io/Stats_learning_trig/img/Stim/FN_015_g.png"",""time"":4087.4000000953674},{""stimulus"":""blank"",""time"":4395.599999904633}]","[{""key_press"":32,""rt"":2808.5999999046326,""stimulus"":""https://ziweizhang0304.github.io/Stats_learning_trig/img/Stim/FN_002_g.png""}]","426.69999980926514","https://ziweizhang0304.github.io/Stats_learning_trig/img/Stim/FN_005_g.png","post_TD","13","2381.9000000953674","2808.5999999046326","slow","7","3","610825130bf4669d1b167efe","","","","","",""
"","image-keyboard-response","39","237244","0.0-5.0-13.0-0.0","1100","","","https://ziweizhang0304.github.io/Stats_learning_trig/img/Stim/FN_016_g.png","13","","","","","","","","","","","","","","","","","",""
"","animation","40","241669","0.0-5.0-13.0-1.0","","","","","","[{""stimulus"":""https://ziweizhang0304.github.io/Stats_learning_trig/img/Stim/FN_013_g.png"",""time"":350.30000019073486},{""stimulus"":""blank"",""time"":654.9000000953674},{""stimulus"":""https://ziweizhang0304.github.io/Stats_learning_trig/img/Stim/FN_022_g.png"",""time"":686.0999999046326},{""stimulus"":""blank"",""time"":992.2000002861023},{""stimulus"":""https://ziweizhang0304.github.io/Stats_learning_trig/img/Stim/FN_002_g.png"",""time"":1028.7000002861023},{""stimulus"":""blank"",""time"":1341.5999999046326},{""stimulus"":""https://ziweizhang0304.github.io/Stats_learning_trig/img/Stim/FN_025_g.png"",""time"":1361.7000002861023},{""stimulus"":""blank"",""time"":1674.9000000953674},{""stimulus"":""https://ziweizhang0304.github.io/Stats_learning_trig/img/Stim/FN_015_g.png"",""time"":1701.7000002861023},{""stimulus"":""blank"",""time"":2012.4000000953674},{""stimulus"":""https://ziweizhang0304.github.io/Stats_learning_trig/img/Stim/FN_012_g.png"",""time"":2044.8000001907349},{""stimulus"":""blank"",""time"":2359.9000000953674},{""stimulus"":""https://ziweizhang0304.github.io/Stats_learning_trig/img/Stim/FN_019_g.png"",""time"":2384.5},{""stimulus"":""blank"",""time"":2693.5},{""stimulus"":""https://ziweizhang0304.github.io/Stats_learning_trig/img/Stim/FN_006_g.png"",""time"":2726.9000000953674},{""stimulus"":""blank"",""time"":3042.4000000953674},{""stimulus"":""https://ziweizhang0304.github.io/Stats_learning_trig/img/Stim/FN_016_g.png"",""time"":3066.7000002861023},{""stimulus"":""blank"",""time"":3382.0999999046326},{""stimulus"":""https://ziweizhang0304.github.io/Stats_learning_trig/img/Stim/FN_001_g.png"",""time"":3409.7000002861023},{""stimulus"":""blank"",""time"":3724.5},{""stimulus"":""https://ziweizhang0304.github.io/Stats_learning_trig/img/Stim/FN_003_g.png"",""time"":3749.0999999046326},{""stimulus"":""blank"",""time"":4057.0999999046326},{""stimulus"":""https://ziweizhang0304.github.io/Stats_learning_trig/img/Stim/FN_004_g.png"",""time"":4082.5999999046326},{""stimulus"":""blank"",""time"":4394.400000095367}]","[{""key_press"":32,""rt"":3467.5,""stimulus"":""https://ziweizhang0304.github.io/Stats_learning_trig/img/Stim/FN_001_g.png""}]","400.7999997138977","https://ziweizhang0304.github.io/Stats_learning_trig/img/Stim/FN_016_g.png","post_TD","14","3066.7000002861023","3467.5","fast","9","3","610825130bf4669d1b167efe","","","","","",""
"","image-keyboard-response","41","242376","0.0-5.0-14.0-0.0","704.1999998092651","","","https://ziweizhang0304.github.io/Stats_learning_trig/img/Stim/FN_009_g.png","13","","","","","","","","","","","","","","","","","",""
"","animation","42","246799","0.0-5.0-14.0-1.0","","","","","","[{""stimulus"":""https://ziweizhang0304.github.io/Stats_learning_trig/img/Stim/FN_003_g.png"",""time"":349.6000003814697},{""stimulus"":""blank"",""time"":659.3000001907349},{""stimulus"":""https://ziweizhang0304.github.io/Stats_learning_trig/img/Stim/FN_013_g.png"",""time"":682.8000001907349},{""stimulus"":""blank"",""time"":988.5},{""stimulus"":""https://ziweizhang0304.github.io/Stats_learning_trig/img/Stim/FN_001_g.png"",""time"":1022.8000001907349},{""stimulus"":""blank"",""time"":1334.5},{""stimulus"":""https://ziweizhang0304.github.io/Stats_learning_trig/img/Stim/FN_012_g.png"",""time"":1364.3000001907349},{""stimulus"":""blank"",""time"":1668},{""stimulus"":""https://ziweizhang0304.github.io/Stats_learning_trig/img/Stim/FN_009_g.png"",""time"":1704.4000000953674},{""stimulus"":""blank"",""time"":2008.2000002861023},{""stimulus"":""https://ziweizhang0304.github.io/Stats_learning_trig/img/Stim/FN_008_g.png"",""time"":2047},{""stimulus"":""blank"",""time"":2347.9000000953674},{""stimulus"":""https://ziweizhang0304.github.io/Stats_learning_trig/img/Stim/FN_005_g.png"",""time"":2389.7000002861023},{""stimulus"":""blank"",""time"":2705.1000003814697},{""stimulus"":""https://ziweizhang0304.github.io/Stats_learning_trig/img/Stim/FN_002_g.png"",""time"":2729.4000000953674},{""stimulus"":""blank"",""time"":3030.1000003814697},{""stimulus"":""https://ziweizhang0304.github.io/Stats_learning_trig/img/Stim/FN_022_g.png"",""time"":3062.9000000953674},{""stimulus"":""blank"",""time"":3365.4000000953674},{""stimulus"":""https://ziweizhang0304.github.io/Stats_learning_trig/img/Stim/FN_004_g.png"",""time"":3405.6000003814697},{""stimulus"":""blank"",""time"":3711.4000000953674},{""stimulus"":""https://ziweizhang0304.github.io/Stats_learning_trig/img/Stim/FN_025_g.png"",""time"":3745.1000003814697},{""stimulus"":""blank"",""time"":4058.800000190735},{""stimulus"":""https://ziweizhang0304.github.io/Stats_learning_trig/img/Stim/FN_015_g.png"",""time"":4081.6000003814697},{""stimulus"":""blank"",""time"":4382.700000286102}]","[{""key_press"":32,""rt"":2055.0999999046326,""stimulus"":""https://ziweizhang0304.github.io/Stats_learning_trig/img/Stim/FN_008_g.png""}]","350.69999980926514","https://ziweizhang0304.github.io/Stats_learning_trig/img/Stim/FN_009_g.png","post_TD","15","1704.4000000953674","2055.0999999046326","slow","5","1","610825130bf4669d1b167efe","","","","","",""
"","image-keyboard-response","43","248015","0.0-5.0-15.0-0.0","1212.7999997138977","","","https://ziweizhang0304.github.io/Stats_learning_trig/img/Stim/FN_016_g.png","13","","","","","","","","","","","","","","","","","",""
"","animation","44","252441","0.0-5.0-15.0-1.0","","","","","","[{""stimulus"":""https://ziweizhang0304.github.io/Stats_learning_trig/img/Stim/FN_002_g.png"",""time"":357.09999990463257},{""stimulus"":""blank"",""time"":659.6999998092651},{""stimulus"":""https://ziweizhang0304.github.io/Stats_learning_trig/img/Stim/FN_001_g.png"",""time"":687.6999998092651},{""stimulus"":""blank"",""time"":988.6999998092651},{""stimulus"":""https://ziweizhang0304.github.io/Stats_learning_trig/img/Stim/FN_022_g.png"",""time"":1022.1999998092651},{""stimulus"":""blank"",""time"":1337.5999999046326},{""stimulus"":""https://ziweizhang0304.github.io/Stats_learning_trig/img/Stim/FN_019_g.png"",""time"":1363},{""stimulus"":""blank"",""time"":1673.5},{""stimulus"":""https://ziweizhang0304.github.io/Stats_learning_trig/img/Stim/FN_006_g.png"",""time"":1703.3999996185303},{""stimulus"":""blank"",""time"":2011.5999999046326},{""stimulus"":""https://ziweizhang0304.github.io/Stats_learning_trig/img/Stim/FN_016_g.png"",""time"":2044.1999998092651},{""stimulus"":""blank"",""time"":2357.7999997138977},{""stimulus"":""https://ziweizhang0304.github.io/Stats_learning_trig/img/Stim/FN_012_g.png"",""time"":2385.5999999046326},{""stimulus"":""blank"",""time"":2692.699999809265},{""stimulus"":""https://ziweizhang0304.github.io/Stats_learning_trig/img/Stim/FN_003_g.png"",""time"":2726.3999996185303},{""stimulus"":""blank"",""time"":3035.3999996185303},{""stimulus"":""https://ziweizhang0304.github.io/Stats_learning_trig/img/Stim/FN_013_g.png"",""time"":3068.5999999046326},{""stimulus"":""blank"",""time"":3374.8999996185303},{""stimulus"":""https://ziweizhang0304.github.io/Stats_learning_trig/img/Stim/FN_004_g.png"",""time"":3401.7999997138977},{""stimulus"":""blank"",""time"":3707.7999997138977},{""stimulus"":""https://ziweizhang0304.github.io/Stats_learning_trig/img/Stim/FN_025_g.png"",""time"":3744.2999997138977},{""stimulus"":""blank"",""time"":4057.699999809265},{""stimulus"":""https://ziweizhang0304.github.io/Stats_learning_trig/img/Stim/FN_015_g.png"",""time"":4084.5},{""stimulus"":""blank"",""time"":4397.099999904633}]","[{""key_press"":32,""rt"":2459.699999809265,""stimulus"":""https://ziweizhang0304.github.io/Stats_learning_trig/img/Stim/FN_012_g.png""}]","415.5","https://ziweizhang0304.github.io/Stats_learning_trig/img/Stim/FN_016_g.png","post_TD","16","2044.1999998092651","2459.699999809265","fast","6","3","610825130bf4669d1b167efe","","","","","",""
"","image-keyboard-response","45","253686","0.0-5.0-16.0-0.0","1244.1000003814697","","","https://ziweizhang0304.github.io/Stats_learning_trig/img/Stim/FN_008_g.png","13","","","","","","","","","","","","","","","","","",""
"","animation","46","258123","0.0-5.0-16.0-1.0","","","","","","[{""stimulus"":""https://ziweizhang0304.github.io/Stats_learning_trig/img/Stim/FN_015_g.png"",""time"":352.90000009536743},{""stimulus"":""blank"",""time"":662.2999997138977},{""stimulus"":""https://ziweizhang0304.github.io/Stats_learning_trig/img/Stim/FN_003_g.png"",""time"":686.2999997138977},{""stimulus"":""blank"",""time"":995},{""stimulus"":""https://ziweizhang0304.github.io/Stats_learning_trig/img/Stim/FN_025_g.png"",""time"":1021.5},{""stimulus"":""blank"",""time"":1332.0999999046326},{""stimulus"":""https://ziweizhang0304.github.io/Stats_learning_trig/img/Stim/FN_009_g.png"",""time"":1368.2999997138977},{""stimulus"":""blank"",""time"":1669.5},{""stimulus"":""https://ziweizhang0304.github.io/Stats_learning_trig/img/Stim/FN_008_g.png"",""time"":1716},{""stimulus"":""blank"",""time"":2026.7999997138977},{""stimulus"":""https://ziweizhang0304.github.io/Stats_learning_trig/img/Stim/FN_005_g.png"",""time"":2042.5},{""stimulus"":""blank"",""time"":2354.9000000953674},{""stimulus"":""https://ziweizhang0304.github.io/Stats_learning_trig/img/Stim/FN_002_g.png"",""time"":2381.0999999046326},{""stimulus"":""blank"",""time"":2691.4000000953674},{""stimulus"":""https://ziweizhang0304.github.io/Stats_learning_trig/img/Stim/FN_001_g.png"",""time"":2725.199999809265},{""stimulus"":""blank"",""time"":3040.7999997138977},{""stimulus"":""https://ziweizhang0304.github.io/Stats_learning_trig/img/Stim/FN_022_g.png"",""time"":3068.199999809265},{""stimulus"":""blank"",""time"":3376.2999997138977},{""stimulus"":""https://ziweizhang0304.github.io/Stats_learning_trig/img/Stim/FN_012_g.png"",""time"":3401.199999809265},{""stimulus"":""blank"",""time"":3713.2999997138977},{""stimulus"":""https://ziweizhang0304.github.io/Stats_learning_trig/img/Stim/FN_013_g.png"",""time"":3740.9000000953674},{""stimulus"":""blank"",""time"":4051.9000000953674},{""stimulus"":""https://ziweizhang0304.github.io/Stats_learning_trig/img/Stim/FN_004_g.png"",""time"":4090.5},{""stimulus"":""blank"",""time"":4401}]","[{""key_press"":32,""rt"":2095.300000190735,""stimulus"":""https://ziweizhang0304.github.io/Stats_learning_trig/img/Stim/FN_005_g.png""},{""key_press"":32,""rt"":2366.0999999046326,""stimulus"":""blank""}]","379.30000019073486","https://ziweizhang0304.github.io/Stats_learning_trig/img/Stim/FN_008_g.png","post_TD","17","1716","2095.300000190735","slow","5","2","610825130bf4669d1b167efe","","","","","",""
"","image-keyboard-response","47","259082","0.0-5.0-17.0-0.0","957.0999999046326","","","https://ziweizhang0304.github.io/Stats_learning_trig/img/Stim/FN_016_g.png","13","","","","","","","","","","","","","","","","","",""
"","animation","48","263505","0.0-5.0-17.0-1.0","","","","","","[{""stimulus"":""https://ziweizhang0304.github.io/Stats_learning_trig/img/Stim/FN_001_g.png"",""time"":341.19999980926514},{""stimulus"":""blank"",""time"":648.8999996185303},{""stimulus"":""https://ziweizhang0304.github.io/Stats_learning_trig/img/Stim/FN_003_g.png"",""time"":683.8999996185303},{""stimulus"":""blank"",""time"":998.5999999046326},{""stimulus"":""https://ziweizhang0304.github.io/Stats_learning_trig/img/Stim/FN_022_g.png"",""time"":1025.5},{""stimulus"":""blank"",""time"":1328.8999996185303},{""stimulus"":""https://ziweizhang0304.github.io/Stats_learning_trig/img/Stim/FN_004_g.png"",""time"":1366},{""stimulus"":""blank"",""time"":1670},{""stimulus"":""https://ziweizhang0304.github.io/Stats_learning_trig/img/Stim/FN_019_g.png"",""time"":1700.6999998092651},{""stimulus"":""blank"",""time"":2013.5},{""stimulus"":""https://ziweizhang0304.github.io/Stats_learning_trig/img/Stim/FN_006_g.png"",""time"":2041.3999996185303},{""stimulus"":""blank"",""time"":2342.5999999046326},{""stimulus"":""https://ziweizhang0304.github.io/Stats_learning_trig/img/Stim/FN_016_g.png"",""time"":2390.699999809265},{""stimulus"":""blank"",""time"":2699.5},{""stimulus"":""https://ziweizhang0304.github.io/Stats_learning_trig/img/Stim/FN_002_g.png"",""time"":2724.0999999046326},{""stimulus"":""blank"",""time"":3034.3999996185303},{""stimulus"":""https://ziweizhang0304.github.io/Stats_learning_trig/img/Stim/FN_012_g.png"",""time"":3064.7999997138977},{""stimulus"":""blank"",""time"":3368.5999999046326},{""stimulus"":""https://ziweizhang0304.github.io/Stats_learning_trig/img/Stim/FN_013_g.png"",""time"":3406.5},{""stimulus"":""blank"",""time"":3707},{""stimulus"":""https://ziweizhang0304.github.io/Stats_learning_trig/img/Stim/FN_025_g.png"",""time"":3747.2999997138977},{""stimulus"":""blank"",""time"":4053.5999999046326},{""stimulus"":""https://ziweizhang0304.github.io/Stats_learning_trig/img/Stim/FN_015_g.png"",""time"":4089.2999997138977},{""stimulus"":""blank"",""time"":4399.699999809265}]","[{""key_press"":32,""rt"":2717.4000000953674,""stimulus"":""blank""}]","326.7000002861023","https://ziweizhang0304.github.io/Stats_learning_trig/img/Stim/FN_016_g.png","post_TD","18","2390.699999809265","2717.4000000953674","fast","7","3","610825130bf4669d1b167efe","","","","","",""
"","image-keyboard-response","49","264363","0.0-5.0-18.0-0.0","856.2999997138977","","","https://ziweizhang0304.github.io/Stats_learning_trig/img/Stim/FN_019_g.png","13","","","","","","","","","","","","","","","","","",""
"","animation","50","268791","0.0-5.0-18.0-1.0","","","","","","[{""stimulus"":""https://ziweizhang0304.github.io/Stats_learning_trig/img/Stim/FN_001_g.png"",""time"":350.2000002861023},{""stimulus"":""blank"",""time"":665.2000002861023},{""stimulus"":""https://ziweizhang0304.github.io/Stats_learning_trig/img/Stim/FN_003_g.png"",""time"":682.7000002861023},{""stimulus"":""blank"",""time"":998},{""stimulus"":""https://ziweizhang0304.github.io/Stats_learning_trig/img/Stim/FN_022_g.png"",""time"":1023.0999999046326},{""stimulus"":""blank"",""time"":1323.4000000953674},{""stimulus"":""https://ziweizhang0304.github.io/Stats_learning_trig/img/Stim/FN_004_g.png"",""time"":1363.2000002861023},{""stimulus"":""blank"",""time"":1674.5},{""stimulus"":""https://ziweizhang0304.github.io/Stats_learning_trig/img/Stim/FN_019_g.png"",""time"":1705.5},{""stimulus"":""blank"",""time"":2010.9000000953674},{""stimulus"":""https://ziweizhang0304.github.io/Stats_learning_trig/img/Stim/FN_006_g.png"",""time"":2047},{""stimulus"":""blank"",""time"":2353.300000190735},{""stimulus"":""https://ziweizhang0304.github.io/Stats_learning_trig/img/Stim/FN_016_g.png"",""time"":2388.300000190735},{""stimulus"":""blank"",""time"":2689.5},{""stimulus"":""https://ziweizhang0304.github.io/Stats_learning_trig/img/Stim/FN_002_g.png"",""time"":2721.4000000953674},{""stimulus"":""blank"",""time"":3024.800000190735},{""stimulus"":""https://ziweizhang0304.github.io/Stats_learning_trig/img/Stim/FN_012_g.png"",""time"":3067.300000190735},{""stimulus"":""blank"",""time"":3374.9000000953674},{""stimulus"":""https://ziweizhang0304.github.io/Stats_learning_trig/img/Stim/FN_013_g.png"",""time"":3404.2000002861023},{""stimulus"":""blank"",""time"":3710.9000000953674},{""stimulus"":""https://ziweizhang0304.github.io/Stats_learning_trig/img/Stim/FN_025_g.png"",""time"":3744.4000000953674},{""stimulus"":""blank"",""time"":4057.9000000953674},{""stimulus"":""https://ziweizhang0304.github.io/Stats_learning_trig/img/Stim/FN_015_g.png"",""time"":4086.7000002861023},{""stimulus"":""blank"",""time"":4396.700000286102}]","[{""key_press"":32,""rt"":2029,""stimulus"":""blank""}]","323.5","https://ziweizhang0304.github.io/Stats_learning_trig/img/Stim/FN_019_g.png","post_TD","19","1705.5","2029","fast","5","1","610825130bf4669d1b167efe","","","","","",""
"","image-keyboard-response","51","269793","0.0-5.0-19.0-0.0","998.9000000953674","","","https://ziweizhang0304.github.io/Stats_learning_trig/img/Stim/FN_005_g.png","13","","","","","","","","","","","","","","","","","",""
"","animation","52","274224","0.0-5.0-19.0-1.0","","","","","","[{""stimulus"":""https://ziweizhang0304.github.io/Stats_learning_trig/img/Stim/FN_012_g.png"",""time"":347.8999996185303},{""stimulus"":""blank"",""time"":655.0999999046326},{""stimulus"":""https://ziweizhang0304.github.io/Stats_learning_trig/img/Stim/FN_001_g.png"",""time"":688.1999998092651},{""stimulus"":""blank"",""time"":991.3999996185303},{""stimulus"":""https://ziweizhang0304.github.io/Stats_learning_trig/img/Stim/FN_022_g.png"",""time"":1021.0999999046326},{""stimulus"":""blank"",""time"":1331.1999998092651},{""stimulus"":""https://ziweizhang0304.github.io/Stats_learning_trig/img/Stim/FN_015_g.png"",""time"":1364.0999999046326},{""stimulus"":""blank"",""time"":1675.7999997138977},{""stimulus"":""https://ziweizhang0304.github.io/Stats_learning_trig/img/Stim/FN_003_g.png"",""time"":1704},{""stimulus"":""blank"",""time"":2018.3999996185303},{""stimulus"":""https://ziweizhang0304.github.io/Stats_learning_trig/img/Stim/FN_009_g.png"",""time"":2053.5999999046326},{""stimulus"":""blank"",""time"":2359.7999997138977},{""stimulus"":""https://ziweizhang0304.github.io/Stats_learning_trig/img/Stim/FN_008_g.png"",""time"":2386.7999997138977},{""stimulus"":""blank"",""time"":2689.8999996185303},{""stimulus"":""https://ziweizhang0304.github.io/Stats_learning_trig/img/Stim/FN_005_g.png"",""time"":2727.199999809265},{""stimulus"":""blank"",""time"":3039.199999809265},{""stimulus"":""https://ziweizhang0304.github.io/Stats_learning_trig/img/Stim/FN_002_g.png"",""time"":3062.7999997138977},{""stimulus"":""blank"",""time"":3372.3999996185303},{""stimulus"":""https://ziweizhang0304.github.io/Stats_learning_trig/img/Stim/FN_013_g.png"",""time"":3402.2999997138977},{""stimulus"":""blank"",""time"":3703.3999996185303},{""stimulus"":""https://ziweizhang0304.github.io/Stats_learning_trig/img/Stim/FN_004_g.png"",""time"":3745},{""stimulus"":""blank"",""time"":4057.5},{""stimulus"":""https://ziweizhang0304.github.io/Stats_learning_trig/img/Stim/FN_025_g.png"",""time"":4085.199999809265},{""stimulus"":""blank"",""time"":4386.89999961853}]","[{""key_press"":32,""rt"":3038.5999999046326,""stimulus"":""https://ziweizhang0304.github.io/Stats_learning_trig/img/Stim/FN_005_g.png""}]","311.40000009536743","https://ziweizhang0304.github.io/Stats_learning_trig/img/Stim/FN_005_g.png","post_TD","20","2727.199999809265","3038.5999999046326","slow","8","3","610825130bf4669d1b167efe","","","","","",""
"","image-keyboard-response","53","275403","0.0-5.0-20.0-0.0","1176.7999997138977","","","https://ziweizhang0304.github.io/Stats_learning_trig/img/Stim/FN_008_g.png","13","","","","","","","","","","","","","","","","","",""
"","animation","54","279832","0.0-5.0-20.0-1.0","","","","","","[{""stimulus"":""https://ziweizhang0304.github.io/Stats_learning_trig/img/Stim/FN_003_g.png"",""time"":341.59999990463257},{""stimulus"":""blank"",""time"":645.6999998092651},{""stimulus"":""https://ziweizhang0304.github.io/Stats_learning_trig/img/Stim/FN_013_g.png"",""time"":688.7999997138977},{""stimulus"":""blank"",""time"":992.5},{""stimulus"":""https://ziweizhang0304.github.io/Stats_learning_trig/img/Stim/FN_001_g.png"",""time"":1022},{""stimulus"":""blank"",""time"":1325.0999999046326},{""stimulus"":""https://ziweizhang0304.github.io/Stats_learning_trig/img/Stim/FN_012_g.png"",""time"":1363},{""stimulus"":""blank"",""time"":1667.7999997138977},{""stimulus"":""https://ziweizhang0304.github.io/Stats_learning_trig/img/Stim/FN_009_g.png"",""time"":1704.7999997138977},{""stimulus"":""blank"",""time"":2020.6999998092651},{""stimulus"":""https://ziweizhang0304.github.io/Stats_learning_trig/img/Stim/FN_008_g.png"",""time"":2054.3999996185303},{""stimulus"":""blank"",""time"":2370.199999809265},{""stimulus"":""https://ziweizhang0304.github.io/Stats_learning_trig/img/Stim/FN_005_g.png"",""time"":2387.0999999046326},{""stimulus"":""blank"",""time"":2694.199999809265},{""stimulus"":""https://ziweizhang0304.github.io/Stats_learning_trig/img/Stim/FN_002_g.png"",""time"":2722.2999997138977},{""stimulus"":""blank"",""time"":3030},{""stimulus"":""https://ziweizhang0304.github.io/Stats_learning_trig/img/Stim/FN_022_g.png"",""time"":3063},{""stimulus"":""blank"",""time"":3378.7999997138977},{""stimulus"":""https://ziweizhang0304.github.io/Stats_learning_trig/img/Stim/FN_004_g.png"",""time"":3403},{""stimulus"":""blank"",""time"":3713.3999996185303},{""stimulus"":""https://ziweizhang0304.github.io/Stats_learning_trig/img/Stim/FN_025_g.png"",""time"":3745.5999999046326},{""stimulus"":""blank"",""time"":4058.699999809265},{""stimulus"":""https://ziweizhang0304.github.io/Stats_learning_trig/img/Stim/FN_015_g.png"",""time"":4085.699999809265},{""stimulus"":""blank"",""time"":4389.299999713898}]","[{""key_press"":32,""rt"":2400.0999999046326,""stimulus"":""https://ziweizhang0304.github.io/Stats_learning_trig/img/Stim/FN_005_g.png""}]","345.7000002861023","https://ziweizhang0304.github.io/Stats_learning_trig/img/Stim/FN_008_g.png","post_TD","21","2054.3999996185303","2400.0999999046326","slow","6","2","610825130bf4669d1b167efe","","","","","",""
"","image-keyboard-response","55","280537","0.0-5.0-21.0-0.0","702.0999999046326","","","https://ziweizhang0304.github.io/Stats_learning_trig/img/Stim/FN_006_g.png","13","","","","","","","","","","","","","","","","","",""
"","animation","56","284960","0.0-5.0-21.0-1.0","","","","","","[{""stimulus"":""https://ziweizhang0304.github.io/Stats_learning_trig/img/Stim/FN_013_g.png"",""time"":343.2000002861023},{""stimulus"":""blank"",""time"":657.7000002861023},{""stimulus"":""https://ziweizhang0304.github.io/Stats_learning_trig/img/Stim/FN_022_g.png"",""time"":683.6000003814697},{""stimulus"":""blank"",""time"":987.5},{""stimulus"":""https://ziweizhang0304.github.io/Stats_learning_trig/img/Stim/FN_002_g.png"",""time"":1024.9000000953674},{""stimulus"":""blank"",""time"":1338.1000003814697},{""stimulus"":""https://ziweizhang0304.github.io/Stats_learning_trig/img/Stim/FN_025_g.png"",""time"":1366.7000002861023},{""stimulus"":""blank"",""time"":1673},{""stimulus"":""https://ziweizhang0304.github.io/Stats_learning_trig/img/Stim/FN_015_g.png"",""time"":1701},{""stimulus"":""blank"",""time"":2003.5},{""stimulus"":""https://ziweizhang0304.github.io/Stats_learning_trig/img/Stim/FN_012_g.png"",""time"":2048.7000002861023},{""stimulus"":""blank"",""time"":2349.300000190735},{""stimulus"":""https://ziweizhang0304.github.io/Stats_learning_trig/img/Stim/FN_019_g.png"",""time"":2381.9000000953674},{""stimulus"":""blank"",""time"":2698.300000190735},{""stimulus"":""https://ziweizhang0304.github.io/Stats_learning_trig/img/Stim/FN_006_g.png"",""time"":2725},{""stimulus"":""blank"",""time"":3035.1000003814697},{""stimulus"":""https://ziweizhang0304.github.io/Stats_learning_trig/img/Stim/FN_016_g.png"",""time"":3065.1000003814697},{""stimulus"":""blank"",""time"":3379.1000003814697},{""stimulus"":""https://ziweizhang0304.github.io/Stats_learning_trig/img/Stim/FN_001_g.png"",""time"":3403.1000003814697},{""stimulus"":""blank"",""time"":3716.9000000953674},{""stimulus"":""https://ziweizhang0304.github.io/Stats_learning_trig/img/Stim/FN_003_g.png"",""time"":3742.9000000953674},{""stimulus"":""blank"",""time"":4046.5},{""stimulus"":""https://ziweizhang0304.github.io/Stats_learning_trig/img/Stim/FN_004_g.png"",""time"":4080.7000002861023},{""stimulus"":""blank"",""time"":4390.900000095367}]","[{""key_press"":32,""rt"":3095.5,""stimulus"":""https://ziweizhang0304.github.io/Stats_learning_trig/img/Stim/FN_016_g.png""}]","370.5","https://ziweizhang0304.github.io/Stats_learning_trig/img/Stim/FN_006_g.png","post_TD","22","2725","3095.5","fast","8","2","610825130bf4669d1b167efe","","","","","",""
"","image-keyboard-response","57","285954","0.0-5.0-22.0-0.0","991.2999997138977","","","https://ziweizhang0304.github.io/Stats_learning_trig/img/Stim/FN_019_g.png","13","","","","","","","","","","","","","","","","","",""
"","animation","58","290379","0.0-5.0-22.0-1.0","","","","","","[{""stimulus"":""https://ziweizhang0304.github.io/Stats_learning_trig/img/Stim/FN_013_g.png"",""time"":343},{""stimulus"":""blank"",""time"":656.7000002861023},{""stimulus"":""https://ziweizhang0304.github.io/Stats_learning_trig/img/Stim/FN_022_g.png"",""time"":686.5},{""stimulus"":""blank"",""time"":997.3000001907349},{""stimulus"":""https://ziweizhang0304.github.io/Stats_learning_trig/img/Stim/FN_002_g.png"",""time"":1021.6000003814697},{""stimulus"":""blank"",""time"":1323.5},{""stimulus"":""https://ziweizhang0304.github.io/Stats_learning_trig/img/Stim/FN_025_g.png"",""time"":1361},{""stimulus"":""blank"",""time"":1669.9000000953674},{""stimulus"":""https://ziweizhang0304.github.io/Stats_learning_trig/img/Stim/FN_015_g.png"",""time"":1700.9000000953674},{""stimulus"":""blank"",""time"":2010.1000003814697},{""stimulus"":""https://ziweizhang0304.github.io/Stats_learning_trig/img/Stim/FN_012_g.png"",""time"":2043.6000003814697},{""stimulus"":""blank"",""time"":2353.2000002861023},{""stimulus"":""https://ziweizhang0304.github.io/Stats_learning_trig/img/Stim/FN_019_g.png"",""time"":2381.4000000953674},{""stimulus"":""blank"",""time"":2691.7000002861023},{""stimulus"":""https://ziweizhang0304.github.io/Stats_learning_trig/img/Stim/FN_006_g.png"",""time"":2726.5},{""stimulus"":""blank"",""time"":3030.7000002861023},{""stimulus"":""https://ziweizhang0304.github.io/Stats_learning_trig/img/Stim/FN_016_g.png"",""time"":3066.800000190735},{""stimulus"":""blank"",""time"":3374.800000190735},{""stimulus"":""https://ziweizhang0304.github.io/Stats_learning_trig/img/Stim/FN_001_g.png"",""time"":3408.7000002861023},{""stimulus"":""blank"",""time"":3723.4000000953674},{""stimulus"":""https://ziweizhang0304.github.io/Stats_learning_trig/img/Stim/FN_003_g.png"",""time"":3756},{""stimulus"":""blank"",""time"":4068.7000002861023},{""stimulus"":""https://ziweizhang0304.github.io/Stats_learning_trig/img/Stim/FN_004_g.png"",""time"":4084.6000003814697},{""stimulus"":""blank"",""time"":4390.400000095367}]","[{""key_press"":32,""rt"":2761.7999997138977,""stimulus"":""https://ziweizhang0304.github.io/Stats_learning_trig/img/Stim/FN_006_g.png""}]","380.3999996185303","https://ziweizhang0304.github.io/Stats_learning_trig/img/Stim/FN_019_g.png","post_TD","23","2381.4000000953674","2761.7999997138977","fast","7","1","610825130bf4669d1b167efe","","","","","",""
"","image-keyboard-response","59","291138","0.0-5.0-23.0-0.0","756.5","","","https://ziweizhang0304.github.io/Stats_learning_trig/img/Stim/FN_009_g.png","13","","","","","","","","","","","","","","","","","",""
"","animation","60","295559","0.0-5.0-23.0-1.0","","","","","","[{""stimulus"":""https://ziweizhang0304.github.io/Stats_learning_trig/img/Stim/FN_015_g.png"",""time"":347.3999996185303},{""stimulus"":""blank"",""time"":657.2999997138977},{""stimulus"":""https://ziweizhang0304.github.io/Stats_learning_trig/img/Stim/FN_003_g.png"",""time"":684.7999997138977},{""stimulus"":""blank"",""time"":988.5999999046326},{""stimulus"":""https://ziweizhang0304.github.io/Stats_learning_trig/img/Stim/FN_022_g.png"",""time"":1021.8999996185303},{""stimulus"":""blank"",""time"":1323.7999997138977},{""stimulus"":""https://ziweizhang0304.github.io/Stats_learning_trig/img/Stim/FN_012_g.png"",""time"":1360.8999996185303},{""stimulus"":""blank"",""time"":1661.8999996185303},{""stimulus"":""https://ziweizhang0304.github.io/Stats_learning_trig/img/Stim/FN_025_g.png"",""time"":1707.5999999046326},{""stimulus"":""blank"",""time"":2014.6999998092651},{""stimulus"":""https://ziweizhang0304.github.io/Stats_learning_trig/img/Stim/FN_004_g.png"",""time"":2047.8999996185303},{""stimulus"":""blank"",""time"":2363.5999999046326},{""stimulus"":""https://ziweizhang0304.github.io/Stats_learning_trig/img/Stim/FN_009_g.png"",""time"":2387.5999999046326},{""stimulus"":""blank"",""time"":2694.199999809265},{""stimulus"":""https://ziweizhang0304.github.io/Stats_learning_trig/img/Stim/FN_008_g.png"",""time"":2727.8999996185303},{""stimulus"":""blank"",""time"":3032.5999999046326},{""stimulus"":""https://ziweizhang0304.github.io/Stats_learning_trig/img/Stim/FN_005_g.png"",""time"":3062.8999996185303},{""stimulus"":""blank"",""time"":3373.5},{""stimulus"":""https://ziweizhang0304.github.io/Stats_learning_trig/img/Stim/FN_002_g.png"",""time"":3402.7999997138977},{""stimulus"":""blank"",""time"":3710.5},{""stimulus"":""https://ziweizhang0304.github.io/Stats_learning_trig/img/Stim/FN_001_g.png"",""time"":3743.5999999046326},{""stimulus"":""blank"",""time"":4044.8999996185303},{""stimulus"":""https://ziweizhang0304.github.io/Stats_learning_trig/img/Stim/FN_013_g.png"",""time"":4080.8999996185303},{""stimulus"":""blank"",""time"":4389.699999809265}]","[{""key_press"":32,""rt"":2712.0999999046326,""stimulus"":""blank""}]","324.5","https://ziweizhang0304.github.io/Stats_learning_trig/img/Stim/FN_009_g.png","post_TD","24","2387.5999999046326","2712.0999999046326","slow","7","1","610825130bf4669d1b167efe","41428","","","","",""
"","survey-text","61","328041","0.0-6.0","32459","","","","","","","","","","","","","","","","","","{""Q0"":""I memorized one specific part of the shape and as soon as I saw that in the series of shapes I pressed the space bar. ""}","","","",""
"","survey-text","62","362988","0.0-7.0","34943.800000190735","","","","","","","","","","","","","","","","","","{""[object Object]"":""I noticed the shapes showed up in a certain order in the series, so I knew about when the target shape would show up.""}","","","",""
"","instructions","63","371658","0.0-8.0","8669.200000286102","","[{""page_index"":0,""viewing_time"":8668.900000095367}]","","","","","","","","","","","","","","","","","","","",""
"","free-sort","64","411873","0.0-9.0","40213.699999809265","","","","","","","","","post_drag","","","","fast","","","","","","[{""src"":""https://ziweizhang0304.github.io/Stats_learning_trig/img/Stim/FN_016_g.png"",""x"":475,""y"":0},{""src"":""https://ziweizhang0304.github.io/Stats_learning_trig/img/Stim/FN_006_g.png"",""x"":-225,""y"":50},{""src"":""https://ziweizhang0304.github.io/Stats_learning_trig/img/Stim/FN_019_g.png"",""x"":475,""y"":50}]","[{""src"":""https://ziweizhang0304.github.io/Stats_learning_trig/img/Stim/FN_019_g.png"",""x"":24,""y"":22},{""src"":""https://ziweizhang0304.github.io/Stats_learning_trig/img/Stim/FN_016_g.png"",""x"":129,""y"":17},{""src"":""https://ziweizhang0304.github.io/Stats_learning_trig/img/Stim/FN_006_g.png"",""x"":221,""y"":18}]","[{""src"":""https://ziweizhang0304.github.io/Stats_learning_trig/img/Stim/FN_016_g.png"",""x"":129,""y"":17},{""src"":""https://ziweizhang0304.github.io/Stats_learning_trig/img/Stim/FN_006_g.png"",""x"":221,""y"":18},{""src"":""https://ziweizhang0304.github.io/Stats_learning_trig/img/Stim/FN_019_g.png"",""x"":24,""y"":22}]",""
"","free-sort","65","421020","0.0-10.0","9145.800000190735","","","","","","","","","post_drag","","","","slow","","","","","","[{""src"":""https://ziweizhang0304.github.io/Stats_learning_trig/img/Stim/FN_008_g.png"",""x"":475,""y"":0},{""src"":""https://ziweizhang0304.github.io/Stats_learning_trig/img/Stim/FN_005_g.png"",""x"":-225,""y"":50},{""src"":""https://ziweizhang0304.github.io/Stats_learning_trig/img/Stim/FN_009_g.png"",""x"":475,""y"":50}]","[{""src"":""https://ziweizhang0304.github.io/Stats_learning_trig/img/Stim/FN_005_g.png"",""x"":27,""y"":32},{""src"":""https://ziweizhang0304.github.io/Stats_learning_trig/img/Stim/FN_009_g.png"",""x"":119,""y"":31},{""src"":""https://ziweizhang0304.github.io/Stats_learning_trig/img/Stim/FN_008_g.png"",""x"":218,""y"":28}]","[{""src"":""https://ziweizhang0304.github.io/Stats_learning_trig/img/Stim/FN_008_g.png"",""x"":218,""y"":28},{""src"":""https://ziweizhang0304.github.io/Stats_learning_trig/img/Stim/FN_005_g.png"",""x"":27,""y"":32},{""src"":""https://ziweizhang0304.github.io/Stats_learning_trig/img/Stim/FN_009_g.png"",""x"":119,""y"":31}]",""
"","survey-multi-choice","66","436200","0.0-11.0","15176.800000190735","","","","","","","","","","","","","","","","610825130bf4669d1b167efe","","{""awareness"":""Yes"",""attention_check"":""Press SPACEBAR to a target""}","","","","[0,1]"
