"success","trial_type","trial_index","time_elapsed","internal_node_id","rt","url","view_history","stimulus","key_press","animation_sequence","response","TD_rt","TD_target","test_part","TD_trial_number","onset","offset","attention_state","TD_target_position","TD_within_triplet_counter","participant","yoke_participant","responses","init_locations","moves","final_locations","question_order"
"true","fullscreen","0","4234","0.0-0.0","","","","","","","","","","","","","","","","","","","","","","",""
"","external-html","1","10842","0.0-1.0","5732.299999999814","https://ziweizhang0304.github.io/Stats_learning_trig/content/consent.html","","","","","","","","","","","","","","","","","","","","",""
"","instructions","2","31007","0.0-2.0","20163","","[{""page_index"":0,""viewing_time"":2718},{""page_index"":1,""viewing_time"":4250.799999999814},{""page_index"":2,""viewing_time"":9794.600000000559},{""page_index"":3,""viewing_time"":3398.699999999255}]","","","","","","","","","","","","","","","","","","","",""
"","image-keyboard-response","3","40795","0.0-3.0-0.0-0.0","9786.100000000559","","","https://ziweizhang0304.github.io/Stats_learning_trig/img/Stim/FN_011_g.png","13","","","","","","","","","","","","","","","","","",""
"","animation","4","45224","0.0-3.0-0.0-1.0","","","","","","[{""stimulus"":""https://ziweizhang0304.github.io/Stats_learning_trig/img/Stim/FN_011_g.png"",""time"":356},{""stimulus"":""blank"",""time"":663.8000000007451},{""stimulus"":""https://ziweizhang0304.github.io/Stats_learning_trig/img/Stim/FN_016_g.png"",""time"":685.6000000005588},{""stimulus"":""blank"",""time"":989.3000000007451},{""stimulus"":""https://ziweizhang0304.github.io/Stats_learning_trig/img/Stim/FN_026_g.png"",""time"":1021.5},{""stimulus"":""blank"",""time"":1331.6000000005588},{""stimulus"":""https://ziweizhang0304.github.io/Stats_learning_trig/img/Stim/FN_018_g.png"",""time"":1365.9000000003725},{""stimulus"":""blank"",""time"":1666.4000000003725},{""stimulus"":""https://ziweizhang0304.github.io/Stats_learning_trig/img/Stim/FN_005_g.png"",""time"":1701.7000000001863},{""stimulus"":""blank"",""time"":2011.1000000005588},{""stimulus"":""https://ziweizhang0304.github.io/Stats_learning_trig/img/Stim/FN_020_g.png"",""time"":2041.9000000003725},{""stimulus"":""blank"",""time"":2348.800000000745},{""stimulus"":""https://ziweizhang0304.github.io/Stats_learning_trig/img/Stim/FN_003_g.png"",""time"":2382.7000000001863},{""stimulus"":""blank"",""time"":2685.5},{""stimulus"":""https://ziweizhang0304.github.io/Stats_learning_trig/img/Stim/FN_015_g.png"",""time"":2731.7000000001863},{""stimulus"":""blank"",""time"":3045},{""stimulus"":""https://ziweizhang0304.github.io/Stats_learning_trig/img/Stim/FN_002_g.png"",""time"":3065.600000000559},{""stimulus"":""blank"",""time"":3372.2000000001863},{""stimulus"":""https://ziweizhang0304.github.io/Stats_learning_trig/img/Stim/FN_017_g.png"",""time"":3403.9000000003725},{""stimulus"":""blank"",""time"":3704.5},{""stimulus"":""https://ziweizhang0304.github.io/Stats_learning_trig/img/Stim/FN_024_g.png"",""time"":3746.7000000001863},{""stimulus"":""blank"",""time"":4055.4000000003725},{""stimulus"":""https://ziweizhang0304.github.io/Stats_learning_trig/img/Stim/FN_023_g.png"",""time"":4092.100000000559},{""stimulus"":""blank"",""time"":4395.100000000559}]","[]","NaN","https://ziweizhang0304.github.io/Stats_learning_trig/img/Stim/FN_011_g.png","post_prac","","","","","","","","","","","","",""
"","html-keyboard-response","5","51275","0.0-3.0-0.0-2.0","6045.799999999814","","","<p>Your reaction time for this trial was NaN ms.</p><p>Remember that you should only press the SPACEBAR when you see the shape presented at the beginning of the trial. </b> </p><p>Press enter to move on.</p>","13","","","","","","","","","","","","","","","","","",""
"","image-keyboard-response","6","55386","0.0-3.0-1.0-0.0","4110.5999999996275","","","https://ziweizhang0304.github.io/Stats_learning_trig/img/Stim/FN_025_g.png","13","","","","","","","","","","","","","","","","","",""
"","animation","7","59815","0.0-3.0-1.0-1.0","","","","","","[{""stimulus"":""https://ziweizhang0304.github.io/Stats_learning_trig/img/Stim/FN_023_g.png"",""time"":344.8999999994412},{""stimulus"":""blank"",""time"":650.8999999994412},{""stimulus"":""https://ziweizhang0304.github.io/Stats_learning_trig/img/Stim/FN_016_g.png"",""time"":685},{""stimulus"":""blank"",""time"":1000.3999999994412},{""stimulus"":""https://ziweizhang0304.github.io/Stats_learning_trig/img/Stim/FN_005_g.png"",""time"":1032.699999999255},{""stimulus"":""blank"",""time"":1343.0999999996275},{""stimulus"":""https://ziweizhang0304.github.io/Stats_learning_trig/img/Stim/FN_003_g.png"",""time"":1366.5},{""stimulus"":""blank"",""time"":1672.699999999255},{""stimulus"":""https://ziweizhang0304.github.io/Stats_learning_trig/img/Stim/FN_025_g.png"",""time"":1704.5},{""stimulus"":""blank"",""time"":2011.699999999255},{""stimulus"":""https://ziweizhang0304.github.io/Stats_learning_trig/img/Stim/FN_022_g.png"",""time"":2043.0999999996275},{""stimulus"":""blank"",""time"":2347.699999999255},{""stimulus"":""https://ziweizhang0304.github.io/Stats_learning_trig/img/Stim/FN_010_g.png"",""time"":2382},{""stimulus"":""blank"",""time"":2688.5},{""stimulus"":""https://ziweizhang0304.github.io/Stats_learning_trig/img/Stim/FN_018_g.png"",""time"":2729.399999999441},{""stimulus"":""blank"",""time"":3030.199999999255},{""stimulus"":""https://ziweizhang0304.github.io/Stats_learning_trig/img/Stim/FN_015_g.png"",""time"":3066.399999999441},{""stimulus"":""blank"",""time"":3379.399999999441},{""stimulus"":""https://ziweizhang0304.github.io/Stats_learning_trig/img/Stim/FN_020_g.png"",""time"":3409.5},{""stimulus"":""blank"",""time"":3712.5},{""stimulus"":""https://ziweizhang0304.github.io/Stats_learning_trig/img/Stim/FN_002_g.png"",""time"":3746.5999999996275},{""stimulus"":""blank"",""time"":4053.699999999255},{""stimulus"":""https://ziweizhang0304.github.io/Stats_learning_trig/img/Stim/FN_017_g.png"",""time"":4085.2999999998137},{""stimulus"":""blank"",""time"":4393.399999999441}]","[{""key_press"":32,""rt"":2095.9000000003725,""stimulus"":""https://ziweizhang0304.github.io/Stats_learning_trig/img/Stim/FN_022_g.png""}]","391.40000000037253","https://ziweizhang0304.github.io/Stats_learning_trig/img/Stim/FN_025_g.png","post_prac","","","","","","","","","","","","",""
"","html-keyboard-response","8","63483","0.0-3.0-1.0-2.0","3663.2999999998137","","","<p>Your reaction time for this trial was 391.4 ms.</p><p>Remember that you should only press the SPACEBAR when you see the shape presented at the beginning of the trial. </b> </p><p>Press enter to move on.</p>","13","","","","","","","","","","","","","","","","","",""
"","image-keyboard-response","9","66066","0.0-3.0-2.0-0.0","2583","","","https://ziweizhang0304.github.io/Stats_learning_trig/img/Stim/FN_010_g.png","13","","","","","","","","","","","","","","","","","",""
"","animation","10","70490","0.0-3.0-2.0-1.0","","","","","","[{""stimulus"":""https://ziweizhang0304.github.io/Stats_learning_trig/img/Stim/FN_020_g.png"",""time"":343.5},{""stimulus"":""blank"",""time"":651.1000000005588},{""stimulus"":""https://ziweizhang0304.github.io/Stats_learning_trig/img/Stim/FN_015_g.png"",""time"":684.9000000003725},{""stimulus"":""blank"",""time"":985.5},{""stimulus"":""https://ziweizhang0304.github.io/Stats_learning_trig/img/Stim/FN_018_g.png"",""time"":1027},{""stimulus"":""blank"",""time"":1332.9000000003725},{""stimulus"":""https://ziweizhang0304.github.io/Stats_learning_trig/img/Stim/FN_017_g.png"",""time"":1366.9000000003725},{""stimulus"":""blank"",""time"":1682.9000000003725},{""stimulus"":""https://ziweizhang0304.github.io/Stats_learning_trig/img/Stim/FN_005_g.png"",""time"":1717.1000000005588},{""stimulus"":""blank"",""time"":2024.4000000003725},{""stimulus"":""https://ziweizhang0304.github.io/Stats_learning_trig/img/Stim/FN_003_g.png"",""time"":2040.9000000003725},{""stimulus"":""blank"",""time"":2342.5},{""stimulus"":""https://ziweizhang0304.github.io/Stats_learning_trig/img/Stim/FN_025_g.png"",""time"":2381.7999999998137},{""stimulus"":""blank"",""time"":2685.100000000559},{""stimulus"":""https://ziweizhang0304.github.io/Stats_learning_trig/img/Stim/FN_022_g.png"",""time"":2729.2000000001863},{""stimulus"":""blank"",""time"":3030.5},{""stimulus"":""https://ziweizhang0304.github.io/Stats_learning_trig/img/Stim/FN_010_g.png"",""time"":3064.2999999998137},{""stimulus"":""blank"",""time"":3379.100000000559},{""stimulus"":""https://ziweizhang0304.github.io/Stats_learning_trig/img/Stim/FN_002_g.png"",""time"":3411.7999999998137},{""stimulus"":""blank"",""time"":3712},{""stimulus"":""https://ziweizhang0304.github.io/Stats_learning_trig/img/Stim/FN_023_g.png"",""time"":3740.9000000003725},{""stimulus"":""blank"",""time"":4044.2999999998137},{""stimulus"":""https://ziweizhang0304.github.io/Stats_learning_trig/img/Stim/FN_016_g.png"",""time"":4093.5},{""stimulus"":""blank"",""time"":4393.799999999814}]","[{""key_press"":32,""rt"":3559.2000000001863,""stimulus"":""https://ziweizhang0304.github.io/Stats_learning_trig/img/Stim/FN_002_g.png""}]","494.90000000037253","https://ziweizhang0304.github.io/Stats_learning_trig/img/Stim/FN_010_g.png","post_prac","","","","","","","","","","","","",""
"","html-keyboard-response","11","72674","0.0-3.0-2.0-2.0","2179.7999999998137","","","<p>Your reaction time for this trial was 494.9 ms.</p><p>Remember that you should only press the SPACEBAR when you see the shape presented at the beginning of the trial. </b> </p><p>Press enter to move on.</p>","13","","","","","","","","","","","","","","","","","",""
"","instructions","12","75473","0.0-4.0","2797.800000000745","","[{""page_index"":0,""viewing_time"":2797.4000000003725}]","","","","","","","","","","","","","","","","","","","",""
"","image-keyboard-response","13","78818","0.0-5.0-0.0-0.0","3344.4000000003725","","","https://ziweizhang0304.github.io/Stats_learning_trig/img/Stim/FN_022_g.png","13","","","","","","","","","","","","","","","","","",""
"","animation","14","83240","0.0-5.0-0.0-1.0","","","","","","[{""stimulus"":""https://ziweizhang0304.github.io/Stats_learning_trig/img/Stim/FN_015_g.png"",""time"":343.29999999981374},{""stimulus"":""blank"",""time"":647.2999999998137},{""stimulus"":""https://ziweizhang0304.github.io/Stats_learning_trig/img/Stim/FN_002_g.png"",""time"":691.5},{""stimulus"":""blank"",""time"":991.6999999992549},{""stimulus"":""https://ziweizhang0304.github.io/Stats_learning_trig/img/Stim/FN_020_g.png"",""time"":1027.7999999998137},{""stimulus"":""blank"",""time"":1337.2999999998137},{""stimulus"":""https://ziweizhang0304.github.io/Stats_learning_trig/img/Stim/FN_025_g.png"",""time"":1369.699999999255},{""stimulus"":""blank"",""time"":1673.199999999255},{""stimulus"":""https://ziweizhang0304.github.io/Stats_learning_trig/img/Stim/FN_022_g.png"",""time"":1708.199999999255},{""stimulus"":""blank"",""time"":2009.3999999994412},{""stimulus"":""https://ziweizhang0304.github.io/Stats_learning_trig/img/Stim/FN_010_g.png"",""time"":2041.199999999255},{""stimulus"":""blank"",""time"":2354.2999999998137},{""stimulus"":""https://ziweizhang0304.github.io/Stats_learning_trig/img/Stim/FN_003_g.png"",""time"":2385.2999999998137},{""stimulus"":""blank"",""time"":2688.399999999441},{""stimulus"":""https://ziweizhang0304.github.io/Stats_learning_trig/img/Stim/FN_018_g.png"",""time"":2723},{""stimulus"":""blank"",""time"":3030.399999999441},{""stimulus"":""https://ziweizhang0304.github.io/Stats_learning_trig/img/Stim/FN_005_g.png"",""time"":3061.199999999255},{""stimulus"":""blank"",""time"":3370.199999999255},{""stimulus"":""https://ziweizhang0304.github.io/Stats_learning_trig/img/Stim/FN_017_g.png"",""time"":3404.2999999998137},{""stimulus"":""blank"",""time"":3718.399999999441},{""stimulus"":""https://ziweizhang0304.github.io/Stats_learning_trig/img/Stim/FN_023_g.png"",""time"":3749.699999999255},{""stimulus"":""blank"",""time"":4052.199999999255},{""stimulus"":""https://ziweizhang0304.github.io/Stats_learning_trig/img/Stim/FN_016_g.png"",""time"":4087},{""stimulus"":""blank"",""time"":4388.299999999814}]","[{""key_press"":32,""rt"":2127,""stimulus"":""https://ziweizhang0304.github.io/Stats_learning_trig/img/Stim/FN_010_g.png""}]","418.80000000074506","https://ziweizhang0304.github.io/Stats_learning_trig/img/Stim/FN_022_g.png","post_TD","1","1708.199999999255","2127","slow","5","2","60c2b160526d0ae3b07ca006","","","","","",""
"","image-keyboard-response","15","85435","0.0-5.0-1.0-0.0","2190.800000000745","","","https://ziweizhang0304.github.io/Stats_learning_trig/img/Stim/FN_010_g.png","13","","","","","","","","","","","","","","","","","",""
"","animation","16","89860","0.0-5.0-1.0-1.0","","","","","","[{""stimulus"":""https://ziweizhang0304.github.io/Stats_learning_trig/img/Stim/FN_023_g.png"",""time"":347.09999999962747},{""stimulus"":""blank"",""time"":648.5999999996275},{""stimulus"":""https://ziweizhang0304.github.io/Stats_learning_trig/img/Stim/FN_016_g.png"",""time"":682.0999999996275},{""stimulus"":""blank"",""time"":985.1999999992549},{""stimulus"":""https://ziweizhang0304.github.io/Stats_learning_trig/img/Stim/FN_005_g.png"",""time"":1029.199999999255},{""stimulus"":""blank"",""time"":1330.5},{""stimulus"":""https://ziweizhang0304.github.io/Stats_learning_trig/img/Stim/FN_003_g.png"",""time"":1363.8999999994412},{""stimulus"":""blank"",""time"":1676},{""stimulus"":""https://ziweizhang0304.github.io/Stats_learning_trig/img/Stim/FN_025_g.png"",""time"":1707.3999999994412},{""stimulus"":""blank"",""time"":2011.0999999996275},{""stimulus"":""https://ziweizhang0304.github.io/Stats_learning_trig/img/Stim/FN_022_g.png"",""time"":2041.2999999998137},{""stimulus"":""blank"",""time"":2343.5},{""stimulus"":""https://ziweizhang0304.github.io/Stats_learning_trig/img/Stim/FN_010_g.png"",""time"":2383.899999999441},{""stimulus"":""blank"",""time"":2688.2999999998137},{""stimulus"":""https://ziweizhang0304.github.io/Stats_learning_trig/img/Stim/FN_018_g.png"",""time"":2726.0999999996275},{""stimulus"":""blank"",""time"":3031.0999999996275},{""stimulus"":""https://ziweizhang0304.github.io/Stats_learning_trig/img/Stim/FN_015_g.png"",""time"":3060.7999999998137},{""stimulus"":""blank"",""time"":3375.199999999255},{""stimulus"":""https://ziweizhang0304.github.io/Stats_learning_trig/img/Stim/FN_020_g.png"",""time"":3407.699999999255},{""stimulus"":""blank"",""time"":3708.399999999441},{""stimulus"":""https://ziweizhang0304.github.io/Stats_learning_trig/img/Stim/FN_002_g.png"",""time"":3742.5},{""stimulus"":""blank"",""time"":4050.0999999996275},{""stimulus"":""https://ziweizhang0304.github.io/Stats_learning_trig/img/Stim/FN_017_g.png"",""time"":4081.399999999441},{""stimulus"":""blank"",""time"":4389.799999999814}]","[{""key_press"":32,""rt"":2774.7999999998137,""stimulus"":""https://ziweizhang0304.github.io/Stats_learning_trig/img/Stim/FN_018_g.png""}]","390.90000000037253","https://ziweizhang0304.github.io/Stats_learning_trig/img/Stim/FN_010_g.png","post_TD","2","2383.899999999441","2774.7999999998137","slow","7","3","60c2b160526d0ae3b07ca006","","","","","",""
"","image-keyboard-response","17","91674","0.0-5.0-2.0-0.0","1811.2999999998137","","","https://ziweizhang0304.github.io/Stats_learning_trig/img/Stim/FN_026_g.png","13","","","","","","","","","","","","","","","","","",""
"","animation","18","96098","0.0-5.0-2.0-1.0","","","","","","[{""stimulus"":""https://ziweizhang0304.github.io/Stats_learning_trig/img/Stim/FN_020_g.png"",""time"":344.79999999981374},{""stimulus"":""blank"",""time"":646.5},{""stimulus"":""https://ziweizhang0304.github.io/Stats_learning_trig/img/Stim/FN_002_g.png"",""time"":681.0999999996275},{""stimulus"":""blank"",""time"":989.2999999998137},{""stimulus"":""https://ziweizhang0304.github.io/Stats_learning_trig/img/Stim/FN_016_g.png"",""time"":1021.0999999996275},{""stimulus"":""blank"",""time"":1328.5},{""stimulus"":""https://ziweizhang0304.github.io/Stats_learning_trig/img/Stim/FN_017_g.png"",""time"":1362.5999999996275},{""stimulus"":""blank"",""time"":1677.8999999994412},{""stimulus"":""https://ziweizhang0304.github.io/Stats_learning_trig/img/Stim/FN_003_g.png"",""time"":1709.5999999996275},{""stimulus"":""blank"",""time"":2010.5999999996275},{""stimulus"":""https://ziweizhang0304.github.io/Stats_learning_trig/img/Stim/FN_024_g.png"",""time"":2043.7000000001863},{""stimulus"":""blank"",""time"":2346.399999999441},{""stimulus"":""https://ziweizhang0304.github.io/Stats_learning_trig/img/Stim/FN_026_g.png"",""time"":2392.5},{""stimulus"":""blank"",""time"":2693.0999999996275},{""stimulus"":""https://ziweizhang0304.github.io/Stats_learning_trig/img/Stim/FN_011_g.png"",""time"":2727.0999999996275},{""stimulus"":""blank"",""time"":3030.0999999996275},{""stimulus"":""https://ziweizhang0304.github.io/Stats_learning_trig/img/Stim/FN_018_g.png"",""time"":3062.5},{""stimulus"":""blank"",""time"":3367.2000000001863},{""stimulus"":""https://ziweizhang0304.github.io/Stats_learning_trig/img/Stim/FN_015_g.png"",""time"":3407},{""stimulus"":""blank"",""time"":3714.2999999998137},{""stimulus"":""https://ziweizhang0304.github.io/Stats_learning_trig/img/Stim/FN_005_g.png"",""time"":3741.899999999441},{""stimulus"":""blank"",""time"":4045.2999999998137},{""stimulus"":""https://ziweizhang0304.github.io/Stats_learning_trig/img/Stim/FN_023_g.png"",""time"":4090.2000000001863},{""stimulus"":""blank"",""time"":4406.799999999814}]","[{""key_press"":32,""rt"":2951.7000000001863,""stimulus"":""https://ziweizhang0304.github.io/Stats_learning_trig/img/Stim/FN_011_g.png""}]","559.2000000001863","https://ziweizhang0304.github.io/Stats_learning_trig/img/Stim/FN_026_g.png","post_TD","3","2392.5","2951.7000000001863","fast","7","2","60c2b160526d0ae3b07ca006","","","","","",""
"","image-keyboard-response","19","97363","0.0-5.0-3.0-0.0","1262.5","","","https://ziweizhang0304.github.io/Stats_learning_trig/img/Stim/FN_025_g.png","13","","","","","","","","","","","","","","","","","",""
"","animation","20","101788","0.0-5.0-3.0-1.0","","","","","","[{""stimulus"":""https://ziweizhang0304.github.io/Stats_learning_trig/img/Stim/FN_023_g.png"",""time"":349.09999999962747},{""stimulus"":""blank"",""time"":656.0999999996275},{""stimulus"":""https://ziweizhang0304.github.io/Stats_learning_trig/img/Stim/FN_016_g.png"",""time"":681.6999999992549},{""stimulus"":""blank"",""time"":993.1999999992549},{""stimulus"":""https://ziweizhang0304.github.io/Stats_learning_trig/img/Stim/FN_005_g.png"",""time"":1026.0999999996275},{""stimulus"":""blank"",""time"":1330.199999999255},{""stimulus"":""https://ziweizhang0304.github.io/Stats_learning_trig/img/Stim/FN_003_g.png"",""time"":1364.2999999998137},{""stimulus"":""blank"",""time"":1671.3999999994412},{""stimulus"":""https://ziweizhang0304.github.io/Stats_learning_trig/img/Stim/FN_025_g.png"",""time"":1702.7999999998137},{""stimulus"":""blank"",""time"":2011.5999999996275},{""stimulus"":""https://ziweizhang0304.github.io/Stats_learning_trig/img/Stim/FN_022_g.png"",""time"":2046.5999999996275},{""stimulus"":""blank"",""time"":2361},{""stimulus"":""https://ziweizhang0304.github.io/Stats_learning_trig/img/Stim/FN_010_g.png"",""time"":2395.7999999998137},{""stimulus"":""blank"",""time"":2705.199999999255},{""stimulus"":""https://ziweizhang0304.github.io/Stats_learning_trig/img/Stim/FN_018_g.png"",""time"":2721.199999999255},{""stimulus"":""blank"",""time"":3027.2999999998137},{""stimulus"":""https://ziweizhang0304.github.io/Stats_learning_trig/img/Stim/FN_015_g.png"",""time"":3061.399999999441},{""stimulus"":""blank"",""time"":3368.2999999998137},{""stimulus"":""https://ziweizhang0304.github.io/Stats_learning_trig/img/Stim/FN_020_g.png"",""time"":3408.2999999998137},{""stimulus"":""blank"",""time"":3709.5},{""stimulus"":""https://ziweizhang0304.github.io/Stats_learning_trig/img/Stim/FN_002_g.png"",""time"":3743.399999999441},{""stimulus"":""blank"",""time"":4053.0999999996275},{""stimulus"":""https://ziweizhang0304.github.io/Stats_learning_trig/img/Stim/FN_017_g.png"",""time"":4084.399999999441},{""stimulus"":""blank"",""time"":4390.799999999814}]","[{""key_press"":32,""rt"":2087.4000000003725,""stimulus"":""https://ziweizhang0304.github.io/Stats_learning_trig/img/Stim/FN_022_g.png""}]","384.6000000005588","https://ziweizhang0304.github.io/Stats_learning_trig/img/Stim/FN_025_g.png","post_TD","4","1702.7999999998137","2087.4000000003725","slow","5","1","60c2b160526d0ae3b07ca006","","","","","",""
"","image-keyboard-response","21","102898","0.0-5.0-4.0-0.0","1107.800000000745","","","https://ziweizhang0304.github.io/Stats_learning_trig/img/Stim/FN_022_g.png","13","","","","","","","","","","","","","","","","","",""
"","animation","22","107324","0.0-5.0-4.0-1.0","","","","","","[{""stimulus"":""https://ziweizhang0304.github.io/Stats_learning_trig/img/Stim/FN_020_g.png"",""time"":342.90000000037253},{""stimulus"":""blank"",""time"":651.8000000007451},{""stimulus"":""https://ziweizhang0304.github.io/Stats_learning_trig/img/Stim/FN_017_g.png"",""time"":687},{""stimulus"":""blank"",""time"":997},{""stimulus"":""https://ziweizhang0304.github.io/Stats_learning_trig/img/Stim/FN_016_g.png"",""time"":1028.6000000005588},{""stimulus"":""blank"",""time"":1333.7000000001863},{""stimulus"":""https://ziweizhang0304.github.io/Stats_learning_trig/img/Stim/FN_018_g.png"",""time"":1367.7000000001863},{""stimulus"":""blank"",""time"":1672.6000000005588},{""stimulus"":""https://ziweizhang0304.github.io/Stats_learning_trig/img/Stim/FN_005_g.png"",""time"":1701.1000000005588},{""stimulus"":""blank"",""time"":2004.1000000005588},{""stimulus"":""https://ziweizhang0304.github.io/Stats_learning_trig/img/Stim/FN_025_g.png"",""time"":2048.300000000745},{""stimulus"":""blank"",""time"":2348.5},{""stimulus"":""https://ziweizhang0304.github.io/Stats_learning_trig/img/Stim/FN_022_g.png"",""time"":2382.4000000003725},{""stimulus"":""blank"",""time"":2694.100000000559},{""stimulus"":""https://ziweizhang0304.github.io/Stats_learning_trig/img/Stim/FN_010_g.png"",""time"":2725.7000000001863},{""stimulus"":""blank"",""time"":3030.5},{""stimulus"":""https://ziweizhang0304.github.io/Stats_learning_trig/img/Stim/FN_003_g.png"",""time"":3064.5},{""stimulus"":""blank"",""time"":3370},{""stimulus"":""https://ziweizhang0304.github.io/Stats_learning_trig/img/Stim/FN_015_g.png"",""time"":3401.600000000559},{""stimulus"":""blank"",""time"":3712.600000000559},{""stimulus"":""https://ziweizhang0304.github.io/Stats_learning_trig/img/Stim/FN_002_g.png"",""time"":3746.4000000003725},{""stimulus"":""blank"",""time"":4060.9000000003725},{""stimulus"":""https://ziweizhang0304.github.io/Stats_learning_trig/img/Stim/FN_023_g.png"",""time"":4091.5},{""stimulus"":""blank"",""time"":4392.100000000559}]","[{""key_press"":32,""rt"":2751.5999999996275,""stimulus"":""https://ziweizhang0304.github.io/Stats_learning_trig/img/Stim/FN_010_g.png""}]","369.19999999925494","https://ziweizhang0304.github.io/Stats_learning_trig/img/Stim/FN_022_g.png","post_TD","5","2382.4000000003725","2751.5999999996275","slow","7","2","60c2b160526d0ae3b07ca006","","","","","",""
"","image-keyboard-response","23","108331","0.0-5.0-5.0-0.0","1002.7999999998137","","","https://ziweizhang0304.github.io/Stats_learning_trig/img/Stim/FN_025_g.png","13","","","","","","","","","","","","","","","","","",""
"","animation","24","112752","0.0-5.0-5.0-1.0","","","","","","[{""stimulus"":""https://ziweizhang0304.github.io/Stats_learning_trig/img/Stim/FN_020_g.png"",""time"":343.79999999981374},{""stimulus"":""blank"",""time"":652.2000000001863},{""stimulus"":""https://ziweizhang0304.github.io/Stats_learning_trig/img/Stim/FN_017_g.png"",""time"":691.1000000005588},{""stimulus"":""blank"",""time"":991.9000000003725},{""stimulus"":""https://ziweizhang0304.github.io/Stats_learning_trig/img/Stim/FN_016_g.png"",""time"":1026.7999999998137},{""stimulus"":""blank"",""time"":1330.4000000003725},{""stimulus"":""https://ziweizhang0304.github.io/Stats_learning_trig/img/Stim/FN_018_g.png"",""time"":1362.7999999998137},{""stimulus"":""blank"",""time"":1665.4000000003725},{""stimulus"":""https://ziweizhang0304.github.io/Stats_learning_trig/img/Stim/FN_005_g.png"",""time"":1706.5},{""stimulus"":""blank"",""time"":2007.1000000005588},{""stimulus"":""https://ziweizhang0304.github.io/Stats_learning_trig/img/Stim/FN_025_g.png"",""time"":2041.1000000005588},{""stimulus"":""blank"",""time"":2356.600000000559},{""stimulus"":""https://ziweizhang0304.github.io/Stats_learning_trig/img/Stim/FN_022_g.png"",""time"":2387.2999999998137},{""stimulus"":""blank"",""time"":2688.9000000003725},{""stimulus"":""https://ziweizhang0304.github.io/Stats_learning_trig/img/Stim/FN_010_g.png"",""time"":2722.7999999998137},{""stimulus"":""blank"",""time"":3033.4000000003725},{""stimulus"":""https://ziweizhang0304.github.io/Stats_learning_trig/img/Stim/FN_003_g.png"",""time"":3064.4000000003725},{""stimulus"":""blank"",""time"":3370.7999999998137},{""stimulus"":""https://ziweizhang0304.github.io/Stats_learning_trig/img/Stim/FN_015_g.png"",""time"":3406.9000000003725},{""stimulus"":""blank"",""time"":3711.4000000003725},{""stimulus"":""https://ziweizhang0304.github.io/Stats_learning_trig/img/Stim/FN_002_g.png"",""time"":3742.7999999998137},{""stimulus"":""blank"",""time"":4044},{""stimulus"":""https://ziweizhang0304.github.io/Stats_learning_trig/img/Stim/FN_023_g.png"",""time"":4085.9000000003725},{""stimulus"":""blank"",""time"":4386.600000000559}]","[{""key_press"":32,""rt"":2415.399999999441,""stimulus"":""https://ziweizhang0304.github.io/Stats_learning_trig/img/Stim/FN_022_g.png""}]","374.2999999988824","https://ziweizhang0304.github.io/Stats_learning_trig/img/Stim/FN_025_g.png","post_TD","6","2041.1000000005588","2415.399999999441","slow","6","1","60c2b160526d0ae3b07ca006","","","","","",""
"","image-keyboard-response","25","113954","0.0-5.0-6.0-0.0","1198.2999999998137","","","https://ziweizhang0304.github.io/Stats_learning_trig/img/Stim/FN_010_g.png","13","","","","","","","","","","","","","","","","","",""
"","animation","26","118387","0.0-5.0-6.0-1.0","","","","","","[{""stimulus"":""https://ziweizhang0304.github.io/Stats_learning_trig/img/Stim/FN_020_g.png"",""time"":343.29999999981374},{""stimulus"":""blank"",""time"":645.9000000003725},{""stimulus"":""https://ziweizhang0304.github.io/Stats_learning_trig/img/Stim/FN_017_g.png"",""time"":692.2999999998137},{""stimulus"":""blank"",""time"":1007.7999999998137},{""stimulus"":""https://ziweizhang0304.github.io/Stats_learning_trig/img/Stim/FN_016_g.png"",""time"":1023.5999999996275},{""stimulus"":""blank"",""time"":1325.5},{""stimulus"":""https://ziweizhang0304.github.io/Stats_learning_trig/img/Stim/FN_018_g.png"",""time"":1366.4000000003725},{""stimulus"":""blank"",""time"":1669.5999999996275},{""stimulus"":""https://ziweizhang0304.github.io/Stats_learning_trig/img/Stim/FN_005_g.png"",""time"":1706.2000000001863},{""stimulus"":""blank"",""time"":2006.7000000001863},{""stimulus"":""https://ziweizhang0304.github.io/Stats_learning_trig/img/Stim/FN_025_g.png"",""time"":2041.7000000001863},{""stimulus"":""blank"",""time"":2349},{""stimulus"":""https://ziweizhang0304.github.io/Stats_learning_trig/img/Stim/FN_022_g.png"",""time"":2387.9000000003725},{""stimulus"":""blank"",""time"":2688.2999999998137},{""stimulus"":""https://ziweizhang0304.github.io/Stats_learning_trig/img/Stim/FN_010_g.png"",""time"":2722.5},{""stimulus"":""blank"",""time"":3022.9000000003725},{""stimulus"":""https://ziweizhang0304.github.io/Stats_learning_trig/img/Stim/FN_003_g.png"",""time"":3070.2999999998137},{""stimulus"":""blank"",""time"":3370.9000000003725},{""stimulus"":""https://ziweizhang0304.github.io/Stats_learning_trig/img/Stim/FN_015_g.png"",""time"":3405},{""stimulus"":""blank"",""time"":3710},{""stimulus"":""https://ziweizhang0304.github.io/Stats_learning_trig/img/Stim/FN_002_g.png"",""time"":3742.2000000001863},{""stimulus"":""blank"",""time"":4052.0999999996275},{""stimulus"":""https://ziweizhang0304.github.io/Stats_learning_trig/img/Stim/FN_023_g.png"",""time"":4085.7000000001863},{""stimulus"":""blank"",""time"":4385.9000000003725}]","[{""key_press"":32,""rt"":3199.7000000001863,""stimulus"":""https://ziweizhang0304.github.io/Stats_learning_trig/img/Stim/FN_003_g.png""}]","477.20000000018626","https://ziweizhang0304.github.io/Stats_learning_trig/img/Stim/FN_010_g.png","post_TD","7","2722.5","3199.7000000001863","slow","8","3","60c2b160526d0ae3b07ca006","","","","","",""
"","image-keyboard-response","27","119771","0.0-5.0-7.0-0.0","1379.5","","","https://ziweizhang0304.github.io/Stats_learning_trig/img/Stim/FN_026_g.png","13","","","","","","","","","","","","","","","","","",""
"","animation","28","124192","0.0-5.0-7.0-1.0","","","","","","[{""stimulus"":""https://ziweizhang0304.github.io/Stats_learning_trig/img/Stim/FN_023_g.png"",""time"":349.29999999981374},{""stimulus"":""blank"",""time"":649.9000000003725},{""stimulus"":""https://ziweizhang0304.github.io/Stats_learning_trig/img/Stim/FN_017_g.png"",""time"":682.7999999998137},{""stimulus"":""blank"",""time"":994.1000000005588},{""stimulus"":""https://ziweizhang0304.github.io/Stats_learning_trig/img/Stim/FN_015_g.png"",""time"":1025.7000000001863},{""stimulus"":""blank"",""time"":1330.6000000005588},{""stimulus"":""https://ziweizhang0304.github.io/Stats_learning_trig/img/Stim/FN_018_g.png"",""time"":1364.4000000003725},{""stimulus"":""blank"",""time"":1671.7999999998137},{""stimulus"":""https://ziweizhang0304.github.io/Stats_learning_trig/img/Stim/FN_024_g.png"",""time"":1703.2999999998137},{""stimulus"":""blank"",""time"":2012.9000000003725},{""stimulus"":""https://ziweizhang0304.github.io/Stats_learning_trig/img/Stim/FN_026_g.png"",""time"":2046.7999999998137},{""stimulus"":""blank"",""time"":2361.9000000003725},{""stimulus"":""https://ziweizhang0304.github.io/Stats_learning_trig/img/Stim/FN_011_g.png"",""time"":2393.600000000559},{""stimulus"":""blank"",""time"":2695.100000000559},{""stimulus"":""https://ziweizhang0304.github.io/Stats_learning_trig/img/Stim/FN_003_g.png"",""time"":2729.2000000001863},{""stimulus"":""blank"",""time"":3044},{""stimulus"":""https://ziweizhang0304.github.io/Stats_learning_trig/img/Stim/FN_020_g.png"",""time"":3061.5},{""stimulus"":""blank"",""time"":3375.600000000559},{""stimulus"":""https://ziweizhang0304.github.io/Stats_learning_trig/img/Stim/FN_005_g.png"",""time"":3406.7999999998137},{""stimulus"":""blank"",""time"":3709.7000000001863},{""stimulus"":""https://ziweizhang0304.github.io/Stats_learning_trig/img/Stim/FN_002_g.png"",""time"":3743.600000000559},{""stimulus"":""blank"",""time"":4045.2999999998137},{""stimulus"":""https://ziweizhang0304.github.io/Stats_learning_trig/img/Stim/FN_016_g.png"",""time"":4091.2999999998137},{""stimulus"":""blank"",""time"":4392}]","[{""key_press"":32,""rt"":2511.2000000001863,""stimulus"":""https://ziweizhang0304.github.io/Stats_learning_trig/img/Stim/FN_011_g.png""}]","464.40000000037253","https://ziweizhang0304.github.io/Stats_learning_trig/img/Stim/FN_026_g.png","post_TD","8","2046.7999999998137","2511.2000000001863","fast","6","2","60c2b160526d0ae3b07ca006","","","","","",""
"","image-keyboard-response","29","125506","0.0-5.0-8.0-0.0","1311","","","https://ziweizhang0304.github.io/Stats_learning_trig/img/Stim/FN_011_g.png","13","","","","","","","","","","","","","","","","","",""
"","animation","30","129928","0.0-5.0-8.0-1.0","","","","","","[{""stimulus"":""https://ziweizhang0304.github.io/Stats_learning_trig/img/Stim/FN_005_g.png"",""time"":354.1000000005588},{""stimulus"":""blank"",""time"":664.2000000001863},{""stimulus"":""https://ziweizhang0304.github.io/Stats_learning_trig/img/Stim/FN_017_g.png"",""time"":686.9000000003725},{""stimulus"":""blank"",""time"":987.7999999998137},{""stimulus"":""https://ziweizhang0304.github.io/Stats_learning_trig/img/Stim/FN_020_g.png"",""time"":1034.6000000005588},{""stimulus"":""blank"",""time"":1349.2999999998137},{""stimulus"":""https://ziweizhang0304.github.io/Stats_learning_trig/img/Stim/FN_024_g.png"",""time"":1364.2000000001863},{""stimulus"":""blank"",""time"":1667.7000000001863},{""stimulus"":""https://ziweizhang0304.github.io/Stats_learning_trig/img/Stim/FN_026_g.png"",""time"":1701.7999999998137},{""stimulus"":""blank"",""time"":2003.1000000005588},{""stimulus"":""https://ziweizhang0304.github.io/Stats_learning_trig/img/Stim/FN_011_g.png"",""time"":2049.100000000559},{""stimulus"":""blank"",""time"":2349.7999999998137},{""stimulus"":""https://ziweizhang0304.github.io/Stats_learning_trig/img/Stim/FN_003_g.png"",""time"":2381.5},{""stimulus"":""blank"",""time"":2682},{""stimulus"":""https://ziweizhang0304.github.io/Stats_learning_trig/img/Stim/FN_018_g.png"",""time"":2732.2000000001863},{""stimulus"":""blank"",""time"":3035.2000000001863},{""stimulus"":""https://ziweizhang0304.github.io/Stats_learning_trig/img/Stim/FN_015_g.png"",""time"":3066},{""stimulus"":""blank"",""time"":3370.4000000003725},{""stimulus"":""https://ziweizhang0304.github.io/Stats_learning_trig/img/Stim/FN_002_g.png"",""time"":3402.7999999998137},{""stimulus"":""blank"",""time"":3713.600000000559},{""stimulus"":""https://ziweizhang0304.github.io/Stats_learning_trig/img/Stim/FN_023_g.png"",""time"":3747.7999999998137},{""stimulus"":""blank"",""time"":4063.4000000003725},{""stimulus"":""https://ziweizhang0304.github.io/Stats_learning_trig/img/Stim/FN_016_g.png"",""time"":4095},{""stimulus"":""blank"",""time"":4395.5}]","[{""key_press"":32,""rt"":2391.699999999255,""stimulus"":""https://ziweizhang0304.github.io/Stats_learning_trig/img/Stim/FN_003_g.png""}]","342.59999999869615","https://ziweizhang0304.github.io/Stats_learning_trig/img/Stim/FN_011_g.png","post_TD","9","2049.100000000559","2391.699999999255","fast","6","3","60c2b160526d0ae3b07ca006","","","","","",""
"","image-keyboard-response","31","131266","0.0-5.0-9.0-0.0","1334.9000000003725","","","https://ziweizhang0304.github.io/Stats_learning_trig/img/Stim/FN_024_g.png","13","","","","","","","","","","","","","","","","","",""
"","animation","32","135692","0.0-5.0-9.0-1.0","","","","","","[{""stimulus"":""https://ziweizhang0304.github.io/Stats_learning_trig/img/Stim/FN_020_g.png"",""time"":350},{""stimulus"":""blank"",""time"":654.8999999994412},{""stimulus"":""https://ziweizhang0304.github.io/Stats_learning_trig/img/Stim/FN_002_g.png"",""time"":682.5999999996275},{""stimulus"":""blank"",""time"":984.2999999998137},{""stimulus"":""https://ziweizhang0304.github.io/Stats_learning_trig/img/Stim/FN_016_g.png"",""time"":1030.5},{""stimulus"":""blank"",""time"":1345.3999999994412},{""stimulus"":""https://ziweizhang0304.github.io/Stats_learning_trig/img/Stim/FN_017_g.png"",""time"":1361},{""stimulus"":""blank"",""time"":1663.5999999996275},{""stimulus"":""https://ziweizhang0304.github.io/Stats_learning_trig/img/Stim/FN_003_g.png"",""time"":1705.5999999996275},{""stimulus"":""blank"",""time"":2012.8999999994412},{""stimulus"":""https://ziweizhang0304.github.io/Stats_learning_trig/img/Stim/FN_024_g.png"",""time"":2046.699999999255},{""stimulus"":""blank"",""time"":2359.5},{""stimulus"":""https://ziweizhang0304.github.io/Stats_learning_trig/img/Stim/FN_026_g.png"",""time"":2391.5999999996275},{""stimulus"":""blank"",""time"":2694.5999999996275},{""stimulus"":""https://ziweizhang0304.github.io/Stats_learning_trig/img/Stim/FN_011_g.png"",""time"":2728.5999999996275},{""stimulus"":""blank"",""time"":3031.899999999441},{""stimulus"":""https://ziweizhang0304.github.io/Stats_learning_trig/img/Stim/FN_018_g.png"",""time"":3061.5999999996275},{""stimulus"":""blank"",""time"":3367.699999999255},{""stimulus"":""https://ziweizhang0304.github.io/Stats_learning_trig/img/Stim/FN_015_g.png"",""time"":3409.2999999998137},{""stimulus"":""blank"",""time"":3709.5999999996275},{""stimulus"":""https://ziweizhang0304.github.io/Stats_learning_trig/img/Stim/FN_005_g.png"",""time"":3743.5},{""stimulus"":""blank"",""time"":4053.2999999998137},{""stimulus"":""https://ziweizhang0304.github.io/Stats_learning_trig/img/Stim/FN_023_g.png"",""time"":4085},{""stimulus"":""blank"",""time"":4391.799999999814}]","[{""key_press"":32,""rt"":2423.5,""stimulus"":""https://ziweizhang0304.github.io/Stats_learning_trig/img/Stim/FN_026_g.png""}]","376.80000000074506","https://ziweizhang0304.github.io/Stats_learning_trig/img/Stim/FN_024_g.png","post_TD","10","2046.699999999255","2423.5","fast","6","1","60c2b160526d0ae3b07ca006","","","","","",""
"","image-keyboard-response","33","136794","0.0-5.0-10.0-0.0","1099","","","https://ziweizhang0304.github.io/Stats_learning_trig/img/Stim/FN_011_g.png","13","","","","","","","","","","","","","","","","","",""
"","animation","34","141215","0.0-5.0-10.0-1.0","","","","","","[{""stimulus"":""https://ziweizhang0304.github.io/Stats_learning_trig/img/Stim/FN_020_g.png"",""time"":344.5},{""stimulus"":""blank"",""time"":646.7999999998137},{""stimulus"":""https://ziweizhang0304.github.io/Stats_learning_trig/img/Stim/FN_002_g.png"",""time"":692.7000000001863},{""stimulus"":""blank"",""time"":993.2000000001863},{""stimulus"":""https://ziweizhang0304.github.io/Stats_learning_trig/img/Stim/FN_016_g.png"",""time"":1021.7000000001863},{""stimulus"":""blank"",""time"":1325.5999999996275},{""stimulus"":""https://ziweizhang0304.github.io/Stats_learning_trig/img/Stim/FN_017_g.png"",""time"":1367.7000000001863},{""stimulus"":""blank"",""time"":1675.0999999996275},{""stimulus"":""https://ziweizhang0304.github.io/Stats_learning_trig/img/Stim/FN_003_g.png"",""time"":1709.0999999996275},{""stimulus"":""blank"",""time"":2009.3999999994412},{""stimulus"":""https://ziweizhang0304.github.io/Stats_learning_trig/img/Stim/FN_024_g.png"",""time"":2042},{""stimulus"":""blank"",""time"":2350.399999999441},{""stimulus"":""https://ziweizhang0304.github.io/Stats_learning_trig/img/Stim/FN_026_g.png"",""time"":2381.899999999441},{""stimulus"":""blank"",""time"":2689.899999999441},{""stimulus"":""https://ziweizhang0304.github.io/Stats_learning_trig/img/Stim/FN_011_g.png"",""time"":2723.7000000001863},{""stimulus"":""blank"",""time"":3035},{""stimulus"":""https://ziweizhang0304.github.io/Stats_learning_trig/img/Stim/FN_018_g.png"",""time"":3071.899999999441},{""stimulus"":""blank"",""time"":3372.5},{""stimulus"":""https://ziweizhang0304.github.io/Stats_learning_trig/img/Stim/FN_015_g.png"",""time"":3406.5},{""stimulus"":""blank"",""time"":3721.5},{""stimulus"":""https://ziweizhang0304.github.io/Stats_learning_trig/img/Stim/FN_005_g.png"",""time"":3755.2999999998137},{""stimulus"":""blank"",""time"":4069.2999999998137},{""stimulus"":""https://ziweizhang0304.github.io/Stats_learning_trig/img/Stim/FN_023_g.png"",""time"":4084.7999999998137},{""stimulus"":""blank"",""time"":4386.299999999814}]","[{""key_press"":32,""rt"":2783.600000000559,""stimulus"":""https://ziweizhang0304.github.io/Stats_learning_trig/img/Stim/FN_011_g.png""}]","59.90000000037253","https://ziweizhang0304.github.io/Stats_learning_trig/img/Stim/FN_011_g.png","post_TD","11","2723.7000000001863","2783.600000000559","fast","8","3","60c2b160526d0ae3b07ca006","","","","","",""
"","image-keyboard-response","35","142242","0.0-5.0-11.0-0.0","1023.7000000001863","","","https://ziweizhang0304.github.io/Stats_learning_trig/img/Stim/FN_024_g.png","13","","","","","","","","","","","","","","","","","",""
"","animation","36","146668","0.0-5.0-11.0-1.0","","","","","","[{""stimulus"":""https://ziweizhang0304.github.io/Stats_learning_trig/img/Stim/FN_018_g.png"",""time"":353.40000000037253},{""stimulus"":""blank"",""time"":668.4000000003725},{""stimulus"":""https://ziweizhang0304.github.io/Stats_learning_trig/img/Stim/FN_003_g.png"",""time"":683.7000000001863},{""stimulus"":""blank"",""time"":985},{""stimulus"":""https://ziweizhang0304.github.io/Stats_learning_trig/img/Stim/FN_016_g.png"",""time"":1026.9000000003725},{""stimulus"":""blank"",""time"":1331.5},{""stimulus"":""https://ziweizhang0304.github.io/Stats_learning_trig/img/Stim/FN_002_g.png"",""time"":1362.7000000001863},{""stimulus"":""blank"",""time"":1666.9000000003725},{""stimulus"":""https://ziweizhang0304.github.io/Stats_learning_trig/img/Stim/FN_017_g.png"",""time"":1701.0999999996275},{""stimulus"":""blank"",""time"":2016.5},{""stimulus"":""https://ziweizhang0304.github.io/Stats_learning_trig/img/Stim/FN_015_g.png"",""time"":2048.5},{""stimulus"":""blank"",""time"":2349},{""stimulus"":""https://ziweizhang0304.github.io/Stats_learning_trig/img/Stim/FN_024_g.png"",""time"":2382.9000000003725},{""stimulus"":""blank"",""time"":2689.4000000003725},{""stimulus"":""https://ziweizhang0304.github.io/Stats_learning_trig/img/Stim/FN_026_g.png"",""time"":2730.4000000003725},{""stimulus"":""blank"",""time"":3031.0999999996275},{""stimulus"":""https://ziweizhang0304.github.io/Stats_learning_trig/img/Stim/FN_011_g.png"",""time"":3064.9000000003725},{""stimulus"":""blank"",""time"":3377.7000000001863},{""stimulus"":""https://ziweizhang0304.github.io/Stats_learning_trig/img/Stim/FN_020_g.png"",""time"":3409.4000000003725},{""stimulus"":""blank"",""time"":3710.9000000003725},{""stimulus"":""https://ziweizhang0304.github.io/Stats_learning_trig/img/Stim/FN_005_g.png"",""time"":3744.2999999998137},{""stimulus"":""blank"",""time"":4045.5},{""stimulus"":""https://ziweizhang0304.github.io/Stats_learning_trig/img/Stim/FN_023_g.png"",""time"":4084.5},{""stimulus"":""blank"",""time"":4393.799999999814}]","[{""key_press"":32,""rt"":2751.2000000001863,""stimulus"":""https://ziweizhang0304.github.io/Stats_learning_trig/img/Stim/FN_026_g.png""}]","368.29999999981374","https://ziweizhang0304.github.io/Stats_learning_trig/img/Stim/FN_024_g.png","post_TD","12","2382.9000000003725","2751.2000000001863","fast","7","1","60c2b160526d0ae3b07ca006","","","","","",""
"","image-keyboard-response","37","147986","0.0-5.0-12.0-0.0","1313.2000000001863","","","https://ziweizhang0304.github.io/Stats_learning_trig/img/Stim/FN_010_g.png","13","","","","","","","","","","","","","","","","","",""
"","animation","38","152409","0.0-5.0-12.0-1.0","","","","","","[{""stimulus"":""https://ziweizhang0304.github.io/Stats_learning_trig/img/Stim/FN_015_g.png"",""time"":348.59999999962747},{""stimulus"":""blank"",""time"":660.6999999992549},{""stimulus"":""https://ziweizhang0304.github.io/Stats_learning_trig/img/Stim/FN_002_g.png"",""time"":682.1999999992549},{""stimulus"":""blank"",""time"":994.5999999996275},{""stimulus"":""https://ziweizhang0304.github.io/Stats_learning_trig/img/Stim/FN_020_g.png"",""time"":1023.3999999994412},{""stimulus"":""blank"",""time"":1330.199999999255},{""stimulus"":""https://ziweizhang0304.github.io/Stats_learning_trig/img/Stim/FN_025_g.png"",""time"":1364.0999999996275},{""stimulus"":""blank"",""time"":1671.3999999994412},{""stimulus"":""https://ziweizhang0304.github.io/Stats_learning_trig/img/Stim/FN_022_g.png"",""time"":1702.699999999255},{""stimulus"":""blank"",""time"":2010.2999999998137},{""stimulus"":""https://ziweizhang0304.github.io/Stats_learning_trig/img/Stim/FN_010_g.png"",""time"":2041.199999999255},{""stimulus"":""blank"",""time"":2344.2999999998137},{""stimulus"":""https://ziweizhang0304.github.io/Stats_learning_trig/img/Stim/FN_003_g.png"",""time"":2392.0999999996275},{""stimulus"":""blank"",""time"":2695.0999999996275},{""stimulus"":""https://ziweizhang0304.github.io/Stats_learning_trig/img/Stim/FN_018_g.png"",""time"":2727.899999999441},{""stimulus"":""blank"",""time"":3034.5999999996275},{""stimulus"":""https://ziweizhang0304.github.io/Stats_learning_trig/img/Stim/FN_005_g.png"",""time"":3067},{""stimulus"":""blank"",""time"":3376.199999999255},{""stimulus"":""https://ziweizhang0304.github.io/Stats_learning_trig/img/Stim/FN_017_g.png"",""time"":3410.0999999996275},{""stimulus"":""blank"",""time"":3716.5},{""stimulus"":""https://ziweizhang0304.github.io/Stats_learning_trig/img/Stim/FN_023_g.png"",""time"":3742.399999999441},{""stimulus"":""blank"",""time"":4046.699999999255},{""stimulus"":""https://ziweizhang0304.github.io/Stats_learning_trig/img/Stim/FN_016_g.png"",""time"":4081.0999999996275},{""stimulus"":""blank"",""time"":4382.199999999255}]","[{""key_press"":32,""rt"":2687.4000000003725,""stimulus"":""https://ziweizhang0304.github.io/Stats_learning_trig/img/Stim/FN_003_g.png""}]","646.2000000011176","https://ziweizhang0304.github.io/Stats_learning_trig/img/Stim/FN_010_g.png","post_TD","13","2041.199999999255","2687.4000000003725","slow","6","3","60c2b160526d0ae3b07ca006","","","","","",""
"","image-keyboard-response","39","154417","0.0-5.0-13.0-0.0","2004.5999999996275","","","https://ziweizhang0304.github.io/Stats_learning_trig/img/Stim/FN_025_g.png","13","","","","","","","","","","","","","","","","","",""
"","animation","40","158847","0.0-5.0-13.0-1.0","","","","","","[{""stimulus"":""https://ziweizhang0304.github.io/Stats_learning_trig/img/Stim/FN_015_g.png"",""time"":344.30000000074506},{""stimulus"":""blank"",""time"":647.8000000007451},{""stimulus"":""https://ziweizhang0304.github.io/Stats_learning_trig/img/Stim/FN_002_g.png"",""time"":681.4000000003725},{""stimulus"":""blank"",""time"":982.1000000005588},{""stimulus"":""https://ziweizhang0304.github.io/Stats_learning_trig/img/Stim/FN_020_g.png"",""time"":1021.6000000005588},{""stimulus"":""blank"",""time"":1330.7000000001863},{""stimulus"":""https://ziweizhang0304.github.io/Stats_learning_trig/img/Stim/FN_025_g.png"",""time"":1362.2000000001863},{""stimulus"":""blank"",""time"":1668.800000000745},{""stimulus"":""https://ziweizhang0304.github.io/Stats_learning_trig/img/Stim/FN_022_g.png"",""time"":1702.7000000001863},{""stimulus"":""blank"",""time"":2012.2000000001863},{""stimulus"":""https://ziweizhang0304.github.io/Stats_learning_trig/img/Stim/FN_010_g.png"",""time"":2043.5},{""stimulus"":""blank"",""time"":2351.2000000001863},{""stimulus"":""https://ziweizhang0304.github.io/Stats_learning_trig/img/Stim/FN_003_g.png"",""time"":2385.100000000559},{""stimulus"":""blank"",""time"":2687.9000000003725},{""stimulus"":""https://ziweizhang0304.github.io/Stats_learning_trig/img/Stim/FN_018_g.png"",""time"":2725.4000000003725},{""stimulus"":""blank"",""time"":3034.100000000559},{""stimulus"":""https://ziweizhang0304.github.io/Stats_learning_trig/img/Stim/FN_005_g.png"",""time"":3067.4000000003725},{""stimulus"":""blank"",""time"":3367.7000000001863},{""stimulus"":""https://ziweizhang0304.github.io/Stats_learning_trig/img/Stim/FN_017_g.png"",""time"":3414.7000000001863},{""stimulus"":""blank"",""time"":3717.100000000559},{""stimulus"":""https://ziweizhang0304.github.io/Stats_learning_trig/img/Stim/FN_023_g.png"",""time"":3749.600000000559},{""stimulus"":""blank"",""time"":4062.7000000001863},{""stimulus"":""https://ziweizhang0304.github.io/Stats_learning_trig/img/Stim/FN_016_g.png"",""time"":4081.9000000003725},{""stimulus"":""blank"",""time"":4382}]","[{""key_press"":32,""rt"":1791.5,""stimulus"":""https://ziweizhang0304.github.io/Stats_learning_trig/img/Stim/FN_022_g.png""}]","429.29999999981374","https://ziweizhang0304.github.io/Stats_learning_trig/img/Stim/FN_025_g.png","post_TD","14","1362.2000000001863","1791.5","slow","4","1","60c2b160526d0ae3b07ca006","","","","","",""
"","image-keyboard-response","41","160161","0.0-5.0-14.0-0.0","1310.2000000001863","","","https://ziweizhang0304.github.io/Stats_learning_trig/img/Stim/FN_024_g.png","13","","","","","","","","","","","","","","","","","",""
"","animation","42","164588","0.0-5.0-14.0-1.0","","","","","","[{""stimulus"":""https://ziweizhang0304.github.io/Stats_learning_trig/img/Stim/FN_005_g.png"",""time"":351},{""stimulus"":""blank"",""time"":664.3000000007451},{""stimulus"":""https://ziweizhang0304.github.io/Stats_learning_trig/img/Stim/FN_017_g.png"",""time"":680.7000000001863},{""stimulus"":""blank"",""time"":982},{""stimulus"":""https://ziweizhang0304.github.io/Stats_learning_trig/img/Stim/FN_020_g.png"",""time"":1022.7000000001863},{""stimulus"":""blank"",""time"":1327.9000000003725},{""stimulus"":""https://ziweizhang0304.github.io/Stats_learning_trig/img/Stim/FN_024_g.png"",""time"":1363.4000000003725},{""stimulus"":""blank"",""time"":1664.5},{""stimulus"":""https://ziweizhang0304.github.io/Stats_learning_trig/img/Stim/FN_026_g.png"",""time"":1710},{""stimulus"":""blank"",""time"":2013.6000000005588},{""stimulus"":""https://ziweizhang0304.github.io/Stats_learning_trig/img/Stim/FN_011_g.png"",""time"":2047.7000000001863},{""stimulus"":""blank"",""time"":2360.800000000745},{""stimulus"":""https://ziweizhang0304.github.io/Stats_learning_trig/img/Stim/FN_003_g.png"",""time"":2381},{""stimulus"":""blank"",""time"":2687.800000000745},{""stimulus"":""https://ziweizhang0304.github.io/Stats_learning_trig/img/Stim/FN_018_g.png"",""time"":2728.4000000003725},{""stimulus"":""blank"",""time"":3033.600000000559},{""stimulus"":""https://ziweizhang0304.github.io/Stats_learning_trig/img/Stim/FN_015_g.png"",""time"":3062.100000000559},{""stimulus"":""blank"",""time"":3365.7000000001863},{""stimulus"":""https://ziweizhang0304.github.io/Stats_learning_trig/img/Stim/FN_002_g.png"",""time"":3401.300000000745},{""stimulus"":""blank"",""time"":3702.7000000001863},{""stimulus"":""https://ziweizhang0304.github.io/Stats_learning_trig/img/Stim/FN_023_g.png"",""time"":3742.600000000559},{""stimulus"":""blank"",""time"":4043.5},{""stimulus"":""https://ziweizhang0304.github.io/Stats_learning_trig/img/Stim/FN_016_g.png"",""time"":4082.4000000003725},{""stimulus"":""blank"",""time"":4393.600000000559}]","[{""key_press"":32,""rt"":2063.5,""stimulus"":""https://ziweizhang0304.github.io/Stats_learning_trig/img/Stim/FN_011_g.png""}]","700.0999999996275","https://ziweizhang0304.github.io/Stats_learning_trig/img/Stim/FN_024_g.png","post_TD","15","1363.4000000003725","2063.5","fast","4","1","60c2b160526d0ae3b07ca006","","","","","",""
"","image-keyboard-response","43","165609","0.0-5.0-15.0-0.0","1018.4000000003725","","","https://ziweizhang0304.github.io/Stats_learning_trig/img/Stim/FN_024_g.png","13","","","","","","","","","","","","","","","","","",""
"","animation","44","170036","0.0-5.0-15.0-1.0","","","","","","[{""stimulus"":""https://ziweizhang0304.github.io/Stats_learning_trig/img/Stim/FN_023_g.png"",""time"":342.20000000018626},{""stimulus"":""blank"",""time"":642.5},{""stimulus"":""https://ziweizhang0304.github.io/Stats_learning_trig/img/Stim/FN_017_g.png"",""time"":690.5},{""stimulus"":""blank"",""time"":991.2000000001863},{""stimulus"":""https://ziweizhang0304.github.io/Stats_learning_trig/img/Stim/FN_015_g.png"",""time"":1025},{""stimulus"":""blank"",""time"":1332.9000000003725},{""stimulus"":""https://ziweizhang0304.github.io/Stats_learning_trig/img/Stim/FN_018_g.png"",""time"":1364.300000000745},{""stimulus"":""blank"",""time"":1664.9000000003725},{""stimulus"":""https://ziweizhang0304.github.io/Stats_learning_trig/img/Stim/FN_024_g.png"",""time"":1705.1000000005588},{""stimulus"":""blank"",""time"":2005.300000000745},{""stimulus"":""https://ziweizhang0304.github.io/Stats_learning_trig/img/Stim/FN_026_g.png"",""time"":2041.5},{""stimulus"":""blank"",""time"":2355.4000000003725},{""stimulus"":""https://ziweizhang0304.github.io/Stats_learning_trig/img/Stim/FN_011_g.png"",""time"":2388.2000000001863},{""stimulus"":""blank"",""time"":2696.300000000745},{""stimulus"":""https://ziweizhang0304.github.io/Stats_learning_trig/img/Stim/FN_003_g.png"",""time"":2722.800000000745},{""stimulus"":""blank"",""time"":3032.9000000003725},{""stimulus"":""https://ziweizhang0304.github.io/Stats_learning_trig/img/Stim/FN_020_g.png"",""time"":3064.9000000003725},{""stimulus"":""blank"",""time"":3369.9000000003725},{""stimulus"":""https://ziweizhang0304.github.io/Stats_learning_trig/img/Stim/FN_005_g.png"",""time"":3404},{""stimulus"":""blank"",""time"":3709.2000000001863},{""stimulus"":""https://ziweizhang0304.github.io/Stats_learning_trig/img/Stim/FN_002_g.png"",""time"":3741.5},{""stimulus"":""blank"",""time"":4051.4000000003725},{""stimulus"":""https://ziweizhang0304.github.io/Stats_learning_trig/img/Stim/FN_016_g.png"",""time"":4085.4000000003725},{""stimulus"":""blank"",""time"":4394.300000000745}]","[{""key_press"":32,""rt"":2103.399999999441,""stimulus"":""https://ziweizhang0304.github.io/Stats_learning_trig/img/Stim/FN_026_g.png""}]","398.2999999988824","https://ziweizhang0304.github.io/Stats_learning_trig/img/Stim/FN_024_g.png","post_TD","16","1705.1000000005588","2103.399999999441","fast","5","1","60c2b160526d0ae3b07ca006","","","","","",""
"","image-keyboard-response","45","170961","0.0-5.0-16.0-0.0","921.0999999996275","","","https://ziweizhang0304.github.io/Stats_learning_trig/img/Stim/FN_026_g.png","13","","","","","","","","","","","","","","","","","",""
"","animation","46","175385","0.0-5.0-16.0-1.0","","","","","","[{""stimulus"":""https://ziweizhang0304.github.io/Stats_learning_trig/img/Stim/FN_005_g.png"",""time"":345.29999999981374},{""stimulus"":""blank"",""time"":647.2000000001863},{""stimulus"":""https://ziweizhang0304.github.io/Stats_learning_trig/img/Stim/FN_017_g.png"",""time"":681.5},{""stimulus"":""blank"",""time"":996.1000000005588},{""stimulus"":""https://ziweizhang0304.github.io/Stats_learning_trig/img/Stim/FN_020_g.png"",""time"":1030.9000000003725},{""stimulus"":""blank"",""time"":1335.1000000005588},{""stimulus"":""https://ziweizhang0304.github.io/Stats_learning_trig/img/Stim/FN_024_g.png"",""time"":1362.9000000003725},{""stimulus"":""blank"",""time"":1672},{""stimulus"":""https://ziweizhang0304.github.io/Stats_learning_trig/img/Stim/FN_026_g.png"",""time"":1703.6000000005588},{""stimulus"":""blank"",""time"":2011.4000000003725},{""stimulus"":""https://ziweizhang0304.github.io/Stats_learning_trig/img/Stim/FN_011_g.png"",""time"":2043.1000000005588},{""stimulus"":""blank"",""time"":2356.2999999998137},{""stimulus"":""https://ziweizhang0304.github.io/Stats_learning_trig/img/Stim/FN_003_g.png"",""time"":2387.9000000003725},{""stimulus"":""blank"",""time"":2688.7000000001863},{""stimulus"":""https://ziweizhang0304.github.io/Stats_learning_trig/img/Stim/FN_018_g.png"",""time"":2724.9000000003725},{""stimulus"":""blank"",""time"":3025.5},{""stimulus"":""https://ziweizhang0304.github.io/Stats_learning_trig/img/Stim/FN_015_g.png"",""time"":3068.600000000559},{""stimulus"":""blank"",""time"":3375.2000000001863},{""stimulus"":""https://ziweizhang0304.github.io/Stats_learning_trig/img/Stim/FN_002_g.png"",""time"":3407},{""stimulus"":""blank"",""time"":3707.4000000003725},{""stimulus"":""https://ziweizhang0304.github.io/Stats_learning_trig/img/Stim/FN_023_g.png"",""time"":3741.4000000003725},{""stimulus"":""blank"",""time"":4048.2000000001863},{""stimulus"":""https://ziweizhang0304.github.io/Stats_learning_trig/img/Stim/FN_016_g.png"",""time"":4089.5},{""stimulus"":""blank"",""time"":4396.5}]","[{""key_press"":32,""rt"":2111.699999999255,""stimulus"":""https://ziweizhang0304.github.io/Stats_learning_trig/img/Stim/FN_011_g.png""}]","408.09999999869615","https://ziweizhang0304.github.io/Stats_learning_trig/img/Stim/FN_026_g.png","post_TD","17","1703.6000000005588","2111.699999999255","fast","5","2","60c2b160526d0ae3b07ca006","","","","","",""
"","image-keyboard-response","47","177969","0.0-5.0-17.0-0.0","2580.399999999441","","","https://ziweizhang0304.github.io/Stats_learning_trig/img/Stim/FN_011_g.png","13","","","","","","","","","","","","","","","","","",""
"","animation","48","182392","0.0-5.0-17.0-1.0","","","","","","[{""stimulus"":""https://ziweizhang0304.github.io/Stats_learning_trig/img/Stim/FN_023_g.png"",""time"":343.6000000005588},{""stimulus"":""blank"",""time"":643.9000000003725},{""stimulus"":""https://ziweizhang0304.github.io/Stats_learning_trig/img/Stim/FN_017_g.png"",""time"":691.6000000005588},{""stimulus"":""blank"",""time"":992.7000000001863},{""stimulus"":""https://ziweizhang0304.github.io/Stats_learning_trig/img/Stim/FN_015_g.png"",""time"":1026.6000000005588},{""stimulus"":""blank"",""time"":1334.2999999998137},{""stimulus"":""https://ziweizhang0304.github.io/Stats_learning_trig/img/Stim/FN_018_g.png"",""time"":1366.5},{""stimulus"":""blank"",""time"":1673.7000000001863},{""stimulus"":""https://ziweizhang0304.github.io/Stats_learning_trig/img/Stim/FN_024_g.png"",""time"":1707.7999999998137},{""stimulus"":""blank"",""time"":2011.6000000005588},{""stimulus"":""https://ziweizhang0304.github.io/Stats_learning_trig/img/Stim/FN_026_g.png"",""time"":2044.9000000003725},{""stimulus"":""blank"",""time"":2345.2000000001863},{""stimulus"":""https://ziweizhang0304.github.io/Stats_learning_trig/img/Stim/FN_011_g.png"",""time"":2388},{""stimulus"":""blank"",""time"":2689.2999999998137},{""stimulus"":""https://ziweizhang0304.github.io/Stats_learning_trig/img/Stim/FN_003_g.png"",""time"":2722.2000000001863},{""stimulus"":""blank"",""time"":3026.5},{""stimulus"":""https://ziweizhang0304.github.io/Stats_learning_trig/img/Stim/FN_020_g.png"",""time"":3060.7999999998137},{""stimulus"":""blank"",""time"":3366},{""stimulus"":""https://ziweizhang0304.github.io/Stats_learning_trig/img/Stim/FN_005_g.png"",""time"":3402.600000000559},{""stimulus"":""blank"",""time"":3703.100000000559},{""stimulus"":""https://ziweizhang0304.github.io/Stats_learning_trig/img/Stim/FN_002_g.png"",""time"":3743.2000000001863},{""stimulus"":""blank"",""time"":4052.7000000001863},{""stimulus"":""https://ziweizhang0304.github.io/Stats_learning_trig/img/Stim/FN_016_g.png"",""time"":4086.9000000003725},{""stimulus"":""blank"",""time"":4392.799999999814}]","[{""key_press"":32,""rt"":2735.5,""stimulus"":""https://ziweizhang0304.github.io/Stats_learning_trig/img/Stim/FN_003_g.png""}]","347.5","https://ziweizhang0304.github.io/Stats_learning_trig/img/Stim/FN_011_g.png","post_TD","18","2388","2735.5","fast","7","3","60c2b160526d0ae3b07ca006","","","","","",""
"","image-keyboard-response","49","184097","0.0-5.0-18.0-0.0","1701.2000000001863","","","https://ziweizhang0304.github.io/Stats_learning_trig/img/Stim/FN_025_g.png","13","","","","","","","","","","","","","","","","","",""
"","animation","50","188518","0.0-5.0-18.0-1.0","","","","","","[{""stimulus"":""https://ziweizhang0304.github.io/Stats_learning_trig/img/Stim/FN_020_g.png"",""time"":352.80000000074506},{""stimulus"":""blank"",""time"":653.8000000007451},{""stimulus"":""https://ziweizhang0304.github.io/Stats_learning_trig/img/Stim/FN_015_g.png"",""time"":687.5},{""stimulus"":""blank"",""time"":994.2000000001863},{""stimulus"":""https://ziweizhang0304.github.io/Stats_learning_trig/img/Stim/FN_018_g.png"",""time"":1026},{""stimulus"":""blank"",""time"":1328.7000000001863},{""stimulus"":""https://ziweizhang0304.github.io/Stats_learning_trig/img/Stim/FN_017_g.png"",""time"":1367.4000000003725},{""stimulus"":""blank"",""time"":1668.1000000005588},{""stimulus"":""https://ziweizhang0304.github.io/Stats_learning_trig/img/Stim/FN_005_g.png"",""time"":1702.2000000001863},{""stimulus"":""blank"",""time"":2017.9000000003725},{""stimulus"":""https://ziweizhang0304.github.io/Stats_learning_trig/img/Stim/FN_003_g.png"",""time"":2049.7000000001863},{""stimulus"":""blank"",""time"":2350.4000000003725},{""stimulus"":""https://ziweizhang0304.github.io/Stats_learning_trig/img/Stim/FN_025_g.png"",""time"":2384.100000000559},{""stimulus"":""blank"",""time"":2690.9000000003725},{""stimulus"":""https://ziweizhang0304.github.io/Stats_learning_trig/img/Stim/FN_022_g.png"",""time"":2722.4000000003725},{""stimulus"":""blank"",""time"":3031.800000000745},{""stimulus"":""https://ziweizhang0304.github.io/Stats_learning_trig/img/Stim/FN_010_g.png"",""time"":3066.600000000559},{""stimulus"":""blank"",""time"":3369.800000000745},{""stimulus"":""https://ziweizhang0304.github.io/Stats_learning_trig/img/Stim/FN_002_g.png"",""time"":3402},{""stimulus"":""blank"",""time"":3702.100000000559},{""stimulus"":""https://ziweizhang0304.github.io/Stats_learning_trig/img/Stim/FN_023_g.png"",""time"":3746.300000000745},{""stimulus"":""blank"",""time"":4047.100000000559},{""stimulus"":""https://ziweizhang0304.github.io/Stats_learning_trig/img/Stim/FN_016_g.png"",""time"":4081},{""stimulus"":""blank"",""time"":4387.600000000559}]","[{""key_press"":32,""rt"":2703.5999999996275,""stimulus"":""blank""}]","319.4999999990687","https://ziweizhang0304.github.io/Stats_learning_trig/img/Stim/FN_025_g.png","post_TD","19","2384.100000000559","2703.5999999996275","slow","7","1","60c2b160526d0ae3b07ca006","","","","","",""
"","image-keyboard-response","51","190665","0.0-5.0-19.0-0.0","2143.899999999441","","","https://ziweizhang0304.github.io/Stats_learning_trig/img/Stim/FN_022_g.png","13","","","","","","","","","","","","","","","","","",""
"","animation","52","195091","0.0-5.0-19.0-1.0","","","","","","[{""stimulus"":""https://ziweizhang0304.github.io/Stats_learning_trig/img/Stim/FN_023_g.png"",""time"":341},{""stimulus"":""blank"",""time"":654.2000000001863},{""stimulus"":""https://ziweizhang0304.github.io/Stats_learning_trig/img/Stim/FN_016_g.png"",""time"":686.3999999994412},{""stimulus"":""blank"",""time"":988.8999999994412},{""stimulus"":""https://ziweizhang0304.github.io/Stats_learning_trig/img/Stim/FN_005_g.png"",""time"":1023.5},{""stimulus"":""blank"",""time"":1335.2999999998137},{""stimulus"":""https://ziweizhang0304.github.io/Stats_learning_trig/img/Stim/FN_003_g.png"",""time"":1368.5},{""stimulus"":""blank"",""time"":1671},{""stimulus"":""https://ziweizhang0304.github.io/Stats_learning_trig/img/Stim/FN_025_g.png"",""time"":1700.8999999994412},{""stimulus"":""blank"",""time"":2003.7000000001863},{""stimulus"":""https://ziweizhang0304.github.io/Stats_learning_trig/img/Stim/FN_022_g.png"",""time"":2049.7000000001863},{""stimulus"":""blank"",""time"":2352.899999999441},{""stimulus"":""https://ziweizhang0304.github.io/Stats_learning_trig/img/Stim/FN_010_g.png"",""time"":2384.7999999998137},{""stimulus"":""blank"",""time"":2686.2000000001863},{""stimulus"":""https://ziweizhang0304.github.io/Stats_learning_trig/img/Stim/FN_018_g.png"",""time"":2726.399999999441},{""stimulus"":""blank"",""time"":3035.2999999998137},{""stimulus"":""https://ziweizhang0304.github.io/Stats_learning_trig/img/Stim/FN_015_g.png"",""time"":3069.2999999998137},{""stimulus"":""blank"",""time"":3384.5999999996275},{""stimulus"":""https://ziweizhang0304.github.io/Stats_learning_trig/img/Stim/FN_020_g.png"",""time"":3402},{""stimulus"":""blank"",""time"":3717.5},{""stimulus"":""https://ziweizhang0304.github.io/Stats_learning_trig/img/Stim/FN_002_g.png"",""time"":3752.399999999441},{""stimulus"":""blank"",""time"":4063.2999999998137},{""stimulus"":""https://ziweizhang0304.github.io/Stats_learning_trig/img/Stim/FN_017_g.png"",""time"":4084.7000000001863},{""stimulus"":""blank"",""time"":4394.799999999814}]","[{""key_press"":32,""rt"":2439.5,""stimulus"":""https://ziweizhang0304.github.io/Stats_learning_trig/img/Stim/FN_010_g.png""}]","389.79999999981374","https://ziweizhang0304.github.io/Stats_learning_trig/img/Stim/FN_022_g.png","post_TD","20","2049.7000000001863","2439.5","slow","6","2","60c2b160526d0ae3b07ca006","","","","","",""
"","image-keyboard-response","53","197104","0.0-5.0-20.0-0.0","2010.2000000001863","","","https://ziweizhang0304.github.io/Stats_learning_trig/img/Stim/FN_011_g.png","13","","","","","","","","","","","","","","","","","",""
"","animation","54","201531","0.0-5.0-20.0-1.0","","","","","","[{""stimulus"":""https://ziweizhang0304.github.io/Stats_learning_trig/img/Stim/FN_018_g.png"",""time"":347.69999999925494},{""stimulus"":""blank"",""time"":654.5},{""stimulus"":""https://ziweizhang0304.github.io/Stats_learning_trig/img/Stim/FN_003_g.png"",""time"":688.5},{""stimulus"":""blank"",""time"":1003.7999999998137},{""stimulus"":""https://ziweizhang0304.github.io/Stats_learning_trig/img/Stim/FN_016_g.png"",""time"":1022.1999999992549},{""stimulus"":""blank"",""time"":1337.0999999996275},{""stimulus"":""https://ziweizhang0304.github.io/Stats_learning_trig/img/Stim/FN_002_g.png"",""time"":1368.7999999998137},{""stimulus"":""blank"",""time"":1669.699999999255},{""stimulus"":""https://ziweizhang0304.github.io/Stats_learning_trig/img/Stim/FN_017_g.png"",""time"":1703.7999999998137},{""stimulus"":""blank"",""time"":2007.8999999994412},{""stimulus"":""https://ziweizhang0304.github.io/Stats_learning_trig/img/Stim/FN_015_g.png"",""time"":2051.5},{""stimulus"":""blank"",""time"":2351.899999999441},{""stimulus"":""https://ziweizhang0304.github.io/Stats_learning_trig/img/Stim/FN_024_g.png"",""time"":2385.0999999996275},{""stimulus"":""blank"",""time"":2700.699999999255},{""stimulus"":""https://ziweizhang0304.github.io/Stats_learning_trig/img/Stim/FN_026_g.png"",""time"":2732},{""stimulus"":""blank"",""time"":3034.199999999255},{""stimulus"":""https://ziweizhang0304.github.io/Stats_learning_trig/img/Stim/FN_011_g.png"",""time"":3068.0999999996275},{""stimulus"":""blank"",""time"":3376.0999999996275},{""stimulus"":""https://ziweizhang0304.github.io/Stats_learning_trig/img/Stim/FN_020_g.png"",""time"":3407.399999999441},{""stimulus"":""blank"",""time"":3710.5},{""stimulus"":""https://ziweizhang0304.github.io/Stats_learning_trig/img/Stim/FN_005_g.png"",""time"":3742.699999999255},{""stimulus"":""blank"",""time"":4048.0999999996275},{""stimulus"":""https://ziweizhang0304.github.io/Stats_learning_trig/img/Stim/FN_023_g.png"",""time"":4083},{""stimulus"":""blank"",""time"":4394.5999999996275}]","[{""key_press"":32,""rt"":3463.7000000001863,""stimulus"":""https://ziweizhang0304.github.io/Stats_learning_trig/img/Stim/FN_020_g.png""}]","395.6000000005588","https://ziweizhang0304.github.io/Stats_learning_trig/img/Stim/FN_011_g.png","post_TD","21","3068.0999999996275","3463.7000000001863","fast","9","3","60c2b160526d0ae3b07ca006","","","","","",""
"","image-keyboard-response","55","202441","0.0-5.0-21.0-0.0","906.7999999998137","","","https://ziweizhang0304.github.io/Stats_learning_trig/img/Stim/FN_022_g.png","13","","","","","","","","","","","","","","","","","",""
"","animation","56","206863","0.0-5.0-21.0-1.0","","","","","","[{""stimulus"":""https://ziweizhang0304.github.io/Stats_learning_trig/img/Stim/FN_020_g.png"",""time"":344},{""stimulus"":""blank"",""time"":650.7000000001863},{""stimulus"":""https://ziweizhang0304.github.io/Stats_learning_trig/img/Stim/FN_015_g.png"",""time"":682.1000000005588},{""stimulus"":""blank"",""time"":991.2000000001863},{""stimulus"":""https://ziweizhang0304.github.io/Stats_learning_trig/img/Stim/FN_018_g.png"",""time"":1026.2000000001863},{""stimulus"":""blank"",""time"":1340.5},{""stimulus"":""https://ziweizhang0304.github.io/Stats_learning_trig/img/Stim/FN_017_g.png"",""time"":1372.5},{""stimulus"":""blank"",""time"":1673.9000000003725},{""stimulus"":""https://ziweizhang0304.github.io/Stats_learning_trig/img/Stim/FN_005_g.png"",""time"":1701.800000000745},{""stimulus"":""blank"",""time"":2006},{""stimulus"":""https://ziweizhang0304.github.io/Stats_learning_trig/img/Stim/FN_003_g.png"",""time"":2042.800000000745},{""stimulus"":""blank"",""time"":2355.5},{""stimulus"":""https://ziweizhang0304.github.io/Stats_learning_trig/img/Stim/FN_025_g.png"",""time"":2390.2000000001863},{""stimulus"":""blank"",""time"":2694.9000000003725},{""stimulus"":""https://ziweizhang0304.github.io/Stats_learning_trig/img/Stim/FN_022_g.png"",""time"":2722.5},{""stimulus"":""blank"",""time"":3036.2000000001863},{""stimulus"":""https://ziweizhang0304.github.io/Stats_learning_trig/img/Stim/FN_010_g.png"",""time"":3068.7000000001863},{""stimulus"":""blank"",""time"":3370.4000000003725},{""stimulus"":""https://ziweizhang0304.github.io/Stats_learning_trig/img/Stim/FN_002_g.png"",""time"":3404.5},{""stimulus"":""blank"",""time"":3707.9000000003725},{""stimulus"":""https://ziweizhang0304.github.io/Stats_learning_trig/img/Stim/FN_023_g.png"",""time"":3749.300000000745},{""stimulus"":""blank"",""time"":4052.5},{""stimulus"":""https://ziweizhang0304.github.io/Stats_learning_trig/img/Stim/FN_016_g.png"",""time"":4086.4000000003725},{""stimulus"":""blank"",""time"":4391}]","[{""key_press"":32,""rt"":3103.5,""stimulus"":""https://ziweizhang0304.github.io/Stats_learning_trig/img/Stim/FN_010_g.png""}]","381","https://ziweizhang0304.github.io/Stats_learning_trig/img/Stim/FN_022_g.png","post_TD","22","2722.5","3103.5","slow","8","2","60c2b160526d0ae3b07ca006","","","","","",""
"","image-keyboard-response","57","209320","0.0-5.0-22.0-0.0","2453.899999999441","","","https://ziweizhang0304.github.io/Stats_learning_trig/img/Stim/FN_010_g.png","13","","","","","","","","","","","","","","","","","",""
"","animation","58","213747","0.0-5.0-22.0-1.0","","","","","","[{""stimulus"":""https://ziweizhang0304.github.io/Stats_learning_trig/img/Stim/FN_020_g.png"",""time"":341.1000000005588},{""stimulus"":""blank"",""time"":649.3000000007451},{""stimulus"":""https://ziweizhang0304.github.io/Stats_learning_trig/img/Stim/FN_015_g.png"",""time"":684.2000000001863},{""stimulus"":""blank"",""time"":998.5},{""stimulus"":""https://ziweizhang0304.github.io/Stats_learning_trig/img/Stim/FN_018_g.png"",""time"":1032.800000000745},{""stimulus"":""blank"",""time"":1345},{""stimulus"":""https://ziweizhang0304.github.io/Stats_learning_trig/img/Stim/FN_017_g.png"",""time"":1360.7000000001863},{""stimulus"":""blank"",""time"":1664.300000000745},{""stimulus"":""https://ziweizhang0304.github.io/Stats_learning_trig/img/Stim/FN_005_g.png"",""time"":1705},{""stimulus"":""blank"",""time"":2013.5},{""stimulus"":""https://ziweizhang0304.github.io/Stats_learning_trig/img/Stim/FN_003_g.png"",""time"":2047.5},{""stimulus"":""blank"",""time"":2353.600000000559},{""stimulus"":""https://ziweizhang0304.github.io/Stats_learning_trig/img/Stim/FN_025_g.png"",""time"":2385.2000000001863},{""stimulus"":""blank"",""time"":2695.9000000003725},{""stimulus"":""https://ziweizhang0304.github.io/Stats_learning_trig/img/Stim/FN_022_g.png"",""time"":2729.800000000745},{""stimulus"":""blank"",""time"":3040.100000000559},{""stimulus"":""https://ziweizhang0304.github.io/Stats_learning_trig/img/Stim/FN_010_g.png"",""time"":3061.800000000745},{""stimulus"":""blank"",""time"":3369},{""stimulus"":""https://ziweizhang0304.github.io/Stats_learning_trig/img/Stim/FN_002_g.png"",""time"":3410},{""stimulus"":""blank"",""time"":3710.7000000001863},{""stimulus"":""https://ziweizhang0304.github.io/Stats_learning_trig/img/Stim/FN_023_g.png"",""time"":3745.100000000559},{""stimulus"":""blank"",""time"":4059.9000000003725},{""stimulus"":""https://ziweizhang0304.github.io/Stats_learning_trig/img/Stim/FN_016_g.png"",""time"":4093.800000000745},{""stimulus"":""blank"",""time"":4409.700000000186}]","[{""key_press"":32,""rt"":3479.7999999998137,""stimulus"":""https://ziweizhang0304.github.io/Stats_learning_trig/img/Stim/FN_002_g.png""}]","417.9999999990687","https://ziweizhang0304.github.io/Stats_learning_trig/img/Stim/FN_010_g.png","post_TD","23","3061.800000000745","3479.7999999998137","slow","9","3","60c2b160526d0ae3b07ca006","","","","","",""
"","image-keyboard-response","59","214712","0.0-5.0-23.0-0.0","962.0999999996275","","","https://ziweizhang0304.github.io/Stats_learning_trig/img/Stim/FN_026_g.png","13","","","","","","","","","","","","","","","","","",""
"","animation","60","219137","0.0-5.0-23.0-1.0","","","","","","[{""stimulus"":""https://ziweizhang0304.github.io/Stats_learning_trig/img/Stim/FN_018_g.png"",""time"":343.29999999981374},{""stimulus"":""blank"",""time"":643.4000000003725},{""stimulus"":""https://ziweizhang0304.github.io/Stats_learning_trig/img/Stim/FN_003_g.png"",""time"":681.7000000001863},{""stimulus"":""blank"",""time"":990.2999999998137},{""stimulus"":""https://ziweizhang0304.github.io/Stats_learning_trig/img/Stim/FN_016_g.png"",""time"":1021.5},{""stimulus"":""blank"",""time"":1330.7999999998137},{""stimulus"":""https://ziweizhang0304.github.io/Stats_learning_trig/img/Stim/FN_002_g.png"",""time"":1363.5},{""stimulus"":""blank"",""time"":1670},{""stimulus"":""https://ziweizhang0304.github.io/Stats_learning_trig/img/Stim/FN_017_g.png"",""time"":1704.5},{""stimulus"":""blank"",""time"":2005.5},{""stimulus"":""https://ziweizhang0304.github.io/Stats_learning_trig/img/Stim/FN_015_g.png"",""time"":2044.2999999998137},{""stimulus"":""blank"",""time"":2344.7000000001863},{""stimulus"":""https://ziweizhang0304.github.io/Stats_learning_trig/img/Stim/FN_024_g.png"",""time"":2384.7000000001863},{""stimulus"":""blank"",""time"":2685.9000000003725},{""stimulus"":""https://ziweizhang0304.github.io/Stats_learning_trig/img/Stim/FN_026_g.png"",""time"":2727.4000000003725},{""stimulus"":""blank"",""time"":3035.600000000559},{""stimulus"":""https://ziweizhang0304.github.io/Stats_learning_trig/img/Stim/FN_011_g.png"",""time"":3061.4000000003725},{""stimulus"":""blank"",""time"":3366},{""stimulus"":""https://ziweizhang0304.github.io/Stats_learning_trig/img/Stim/FN_020_g.png"",""time"":3401.600000000559},{""stimulus"":""blank"",""time"":3705.100000000559},{""stimulus"":""https://ziweizhang0304.github.io/Stats_learning_trig/img/Stim/FN_005_g.png"",""time"":3740.9000000003725},{""stimulus"":""blank"",""time"":4041.4000000003725},{""stimulus"":""https://ziweizhang0304.github.io/Stats_learning_trig/img/Stim/FN_023_g.png"",""time"":4090.5},{""stimulus"":""blank"",""time"":4392.4000000003725}]","[{""key_press"":32,""rt"":3135.7000000001863,""stimulus"":""https://ziweizhang0304.github.io/Stats_learning_trig/img/Stim/FN_011_g.png""}]","408.29999999981374","https://ziweizhang0304.github.io/Stats_learning_trig/img/Stim/FN_026_g.png","post_TD","24","2727.4000000003725","3135.7000000001863","fast","8","2","60c2b160526d0ae3b07ca006","5880e","","","","",""
"","survey-text","61","223197","0.0-6.0","4044.7999999998137","","","","","","","","","","","","","","","","","","{""Q0"":""any""}","","","",""
"","survey-text","62","227261","0.0-7.0","4060.2999999998137","","","","","","","","","","","","","","","","","","{""[object Object]"":""any""}","","","",""
"","instructions","63","233146","0.0-8.0","5884.399999999441","","[{""page_index"":0,""viewing_time"":5883.899999999441}]","","","","","","","","","","","","","","","","","","","",""
"","free-sort","64","259050","0.0-9.0","25902.10000000056","","","","","","","","","post_drag","","","","fast","","","","","","[{""src"":""https://ziweizhang0304.github.io/Stats_learning_trig/img/Stim/FN_026_g.png"",""x"":475,""y"":0},{""src"":""https://ziweizhang0304.github.io/Stats_learning_trig/img/Stim/FN_011_g.png"",""x"":-225,""y"":50},{""src"":""https://ziweizhang0304.github.io/Stats_learning_trig/img/Stim/FN_024_g.png"",""x"":475,""y"":50}]","[{""src"":""https://ziweizhang0304.github.io/Stats_learning_trig/img/Stim/FN_011_g.png"",""x"":36,""y"":32},{""src"":""https://ziweizhang0304.github.io/Stats_learning_trig/img/Stim/FN_024_g.png"",""x"":400,""y"":75},{""src"":""https://ziweizhang0304.github.io/Stats_learning_trig/img/Stim/FN_024_g.png"",""x"":137,""y"":22},{""src"":""https://ziweizhang0304.github.io/Stats_learning_trig/img/Stim/FN_026_g.png"",""x"":223,""y"":35}]","[{""src"":""https://ziweizhang0304.github.io/Stats_learning_trig/img/Stim/FN_026_g.png"",""x"":223,""y"":35},{""src"":""https://ziweizhang0304.github.io/Stats_learning_trig/img/Stim/FN_011_g.png"",""x"":36,""y"":32},{""src"":""https://ziweizhang0304.github.io/Stats_learning_trig/img/Stim/FN_024_g.png"",""x"":137,""y"":22}]",""
"","free-sort","65","277361","0.0-10.0","18309.10000000056","","","","","","","","","post_drag","","","","slow","","","","","","[{""src"":""https://ziweizhang0304.github.io/Stats_learning_trig/img/Stim/FN_010_g.png"",""x"":475,""y"":0},{""src"":""https://ziweizhang0304.github.io/Stats_learning_trig/img/Stim/FN_022_g.png"",""x"":-225,""y"":50},{""src"":""https://ziweizhang0304.github.io/Stats_learning_trig/img/Stim/FN_025_g.png"",""x"":475,""y"":50}]","[{""src"":""https://ziweizhang0304.github.io/Stats_learning_trig/img/Stim/FN_022_g.png"",""x"":33,""y"":18},{""src"":""https://ziweizhang0304.github.io/Stats_learning_trig/img/Stim/FN_010_g.png"",""x"":116,""y"":23},{""src"":""https://ziweizhang0304.github.io/Stats_learning_trig/img/Stim/FN_010_g.png"",""x"":219,""y"":25},{""src"":""https://ziweizhang0304.github.io/Stats_learning_trig/img/Stim/FN_025_g.png"",""x"":117,""y"":34}]","[{""src"":""https://ziweizhang0304.github.io/Stats_learning_trig/img/Stim/FN_010_g.png"",""x"":219,""y"":25},{""src"":""https://ziweizhang0304.github.io/Stats_learning_trig/img/Stim/FN_022_g.png"",""x"":33,""y"":18},{""src"":""https://ziweizhang0304.github.io/Stats_learning_trig/img/Stim/FN_025_g.png"",""x"":117,""y"":34}]",""
"","survey-multi-choice","66","288952","0.0-11.0","11585.799999999814","","","","","","","","","","","","","","","","60c2b160526d0ae3b07ca006","","{""awareness"":""No"",""attention_check"":""Press SPACEBAR to a target""}","","","","[0,1]"
