"success","trial_type","trial_index","time_elapsed","internal_node_id","rt","url","view_history","stimulus","key_press","animation_sequence","response","TD_rt","TD_target","test_part","TD_trial_number","onset","offset","attention_state","TD_target_position","TD_within_triplet_counter","participant","yoke_participant","responses","init_locations","moves","final_locations","question_order"
"true","fullscreen","0","274565","0.0-0.0","","","","","","","","","","","","","","","","","","","","","","",""
"","external-html","1","281430","0.0-1.0","6325","https://ziweizhang0304.github.io/Stats_learning_trig/content/consent.html","","","","","","","","","","","","","","","","","","","","",""
"","instructions","2","298239","0.0-2.0","16804","","[{""page_index"":0,""viewing_time"":3405},{""page_index"":1,""viewing_time"":6087},{""page_index"":2,""viewing_time"":5936},{""page_index"":3,""viewing_time"":1376}]","","","","","","","","","","","","","","","","","","","",""
"","image-keyboard-response","3","302245","0.0-3.0-0.0-0.0","4005","","","https://ziweizhang0304.github.io/Stats_learning_trig/img/Stim/FN_015_g.png","13","","","","","","","","","","","","","","","","","",""
"","animation","4","306770","0.0-3.0-0.0-1.0","","","","","","[{""stimulus"":""https://ziweizhang0304.github.io/Stats_learning_trig/img/Stim/FN_008_g.png"",""time"":346},{""stimulus"":""blank"",""time"":656},{""stimulus"":""https://ziweizhang0304.github.io/Stats_learning_trig/img/Stim/FN_010_g.png"",""time"":696},{""stimulus"":""blank"",""time"":1015},{""stimulus"":""https://ziweizhang0304.github.io/Stats_learning_trig/img/Stim/FN_020_g.png"",""time"":1057},{""stimulus"":""blank"",""time"":1376},{""stimulus"":""https://ziweizhang0304.github.io/Stats_learning_trig/img/Stim/FN_009_g.png"",""time"":1397},{""stimulus"":""blank"",""time"":1716},{""stimulus"":""https://ziweizhang0304.github.io/Stats_learning_trig/img/Stim/FN_016_g.png"",""time"":1756},{""stimulus"":""blank"",""time"":2075},{""stimulus"":""https://ziweizhang0304.github.io/Stats_learning_trig/img/Stim/FN_001_g.png"",""time"":2111},{""stimulus"":""blank"",""time"":2415},{""stimulus"":""https://ziweizhang0304.github.io/Stats_learning_trig/img/Stim/FN_012_g.png"",""time"":2456},{""stimulus"":""blank"",""time"":2776},{""stimulus"":""https://ziweizhang0304.github.io/Stats_learning_trig/img/Stim/FN_005_g.png"",""time"":2796},{""stimulus"":""blank"",""time"":3116},{""stimulus"":""https://ziweizhang0304.github.io/Stats_learning_trig/img/Stim/FN_015_g.png"",""time"":3136},{""stimulus"":""blank"",""time"":3455},{""stimulus"":""https://ziweizhang0304.github.io/Stats_learning_trig/img/Stim/FN_003_g.png"",""time"":3476},{""stimulus"":""blank"",""time"":3785},{""stimulus"":""https://ziweizhang0304.github.io/Stats_learning_trig/img/Stim/FN_011_g.png"",""time"":3826},{""stimulus"":""blank"",""time"":4146},{""stimulus"":""https://ziweizhang0304.github.io/Stats_learning_trig/img/Stim/FN_014_g.png"",""time"":4186},{""stimulus"":""blank"",""time"":4485}]","[{""key_press"":32,""rt"":3522,""stimulus"":""https://ziweizhang0304.github.io/Stats_learning_trig/img/Stim/FN_003_g.png""}]","386","https://ziweizhang0304.github.io/Stats_learning_trig/img/Stim/FN_015_g.png","post_prac","","","","","","","","","","","","",""
"","html-keyboard-response","5","312258","0.0-3.0-0.0-2.0","5486","","","<p>Your reaction time for this trial was 386 ms.</p><p>Remember that you should only press the SPACEBAR when you see the shape presented at the beginning of the trial. </b> </p><p>Press enter to move on.</p>","13","","","","","","","","","","","","","","","","","",""
"","image-keyboard-response","6","315326","0.0-3.0-1.0-0.0","3067","","","https://ziweizhang0304.github.io/Stats_learning_trig/img/Stim/FN_015_g.png","13","","","","","","","","","","","","","","","","","",""
"","animation","7","319822","0.0-3.0-1.0-1.0","","","","","","[{""stimulus"":""https://ziweizhang0304.github.io/Stats_learning_trig/img/Stim/FN_009_g.png"",""time"":355},{""stimulus"":""blank"",""time"":656},{""stimulus"":""https://ziweizhang0304.github.io/Stats_learning_trig/img/Stim/FN_016_g.png"",""time"":696},{""stimulus"":""blank"",""time"":1016},{""stimulus"":""https://ziweizhang0304.github.io/Stats_learning_trig/img/Stim/FN_020_g.png"",""time"":1036},{""stimulus"":""blank"",""time"":1355},{""stimulus"":""https://ziweizhang0304.github.io/Stats_learning_trig/img/Stim/FN_011_g.png"",""time"":1396},{""stimulus"":""blank"",""time"":1713},{""stimulus"":""https://ziweizhang0304.github.io/Stats_learning_trig/img/Stim/FN_010_g.png"",""time"":1756},{""stimulus"":""blank"",""time"":2065},{""stimulus"":""https://ziweizhang0304.github.io/Stats_learning_trig/img/Stim/FN_012_g.png"",""time"":2105},{""stimulus"":""blank"",""time"":2425},{""stimulus"":""https://ziweizhang0304.github.io/Stats_learning_trig/img/Stim/FN_003_g.png"",""time"":2446},{""stimulus"":""blank"",""time"":2765},{""stimulus"":""https://ziweizhang0304.github.io/Stats_learning_trig/img/Stim/FN_005_g.png"",""time"":2786},{""stimulus"":""blank"",""time"":3106},{""stimulus"":""https://ziweizhang0304.github.io/Stats_learning_trig/img/Stim/FN_015_g.png"",""time"":3126},{""stimulus"":""blank"",""time"":3435},{""stimulus"":""https://ziweizhang0304.github.io/Stats_learning_trig/img/Stim/FN_008_g.png"",""time"":3476},{""stimulus"":""blank"",""time"":3796},{""stimulus"":""https://ziweizhang0304.github.io/Stats_learning_trig/img/Stim/FN_014_g.png"",""time"":3816},{""stimulus"":""blank"",""time"":4136},{""stimulus"":""https://ziweizhang0304.github.io/Stats_learning_trig/img/Stim/FN_001_g.png"",""time"":4156},{""stimulus"":""blank"",""time"":4475}]","[{""key_press"":32,""rt"":3527,""stimulus"":""https://ziweizhang0304.github.io/Stats_learning_trig/img/Stim/FN_008_g.png""}]","401","https://ziweizhang0304.github.io/Stats_learning_trig/img/Stim/FN_015_g.png","post_prac","","","","","","","","","","","","",""
"","html-keyboard-response","8","322281","0.0-3.0-1.0-2.0","2457","","","<p>Your reaction time for this trial was 401 ms.</p><p>Remember that you should only press the SPACEBAR when you see the shape presented at the beginning of the trial. </b> </p><p>Press enter to move on.</p>","13","","","","","","","","","","","","","","","","","",""
"","image-keyboard-response","9","324346","0.0-3.0-2.0-0.0","2064","","","https://ziweizhang0304.github.io/Stats_learning_trig/img/Stim/FN_007_g.png","13","","","","","","","","","","","","","","","","","",""
"","animation","10","328882","0.0-3.0-2.0-1.0","","","","","","[{""stimulus"":""https://ziweizhang0304.github.io/Stats_learning_trig/img/Stim/FN_020_g.png"",""time"":348},{""stimulus"":""blank"",""time"":666},{""stimulus"":""https://ziweizhang0304.github.io/Stats_learning_trig/img/Stim/FN_001_g.png"",""time"":706},{""stimulus"":""blank"",""time"":1007},{""stimulus"":""https://ziweizhang0304.github.io/Stats_learning_trig/img/Stim/FN_012_g.png"",""time"":1047},{""stimulus"":""blank"",""time"":1347},{""stimulus"":""https://ziweizhang0304.github.io/Stats_learning_trig/img/Stim/FN_014_g.png"",""time"":1387},{""stimulus"":""blank"",""time"":1707},{""stimulus"":""https://ziweizhang0304.github.io/Stats_learning_trig/img/Stim/FN_008_g.png"",""time"":1746},{""stimulus"":""blank"",""time"":2056},{""stimulus"":""https://ziweizhang0304.github.io/Stats_learning_trig/img/Stim/FN_009_g.png"",""time"":2097},{""stimulus"":""blank"",""time"":2416},{""stimulus"":""https://ziweizhang0304.github.io/Stats_learning_trig/img/Stim/FN_002_g.png"",""time"":2437},{""stimulus"":""blank"",""time"":2756},{""stimulus"":""https://ziweizhang0304.github.io/Stats_learning_trig/img/Stim/FN_007_g.png"",""time"":2777},{""stimulus"":""blank"",""time"":3097},{""stimulus"":""https://ziweizhang0304.github.io/Stats_learning_trig/img/Stim/FN_022_g.png"",""time"":3138},{""stimulus"":""blank"",""time"":3457},{""stimulus"":""https://ziweizhang0304.github.io/Stats_learning_trig/img/Stim/FN_010_g.png"",""time"":3477},{""stimulus"":""blank"",""time"":3797},{""stimulus"":""https://ziweizhang0304.github.io/Stats_learning_trig/img/Stim/FN_011_g.png"",""time"":3817},{""stimulus"":""blank"",""time"":4136},{""stimulus"":""https://ziweizhang0304.github.io/Stats_learning_trig/img/Stim/FN_016_g.png"",""time"":4177},{""stimulus"":""blank"",""time"":4496}]","[{""key_press"":32,""rt"":3248,""stimulus"":""https://ziweizhang0304.github.io/Stats_learning_trig/img/Stim/FN_022_g.png""}]","471","https://ziweizhang0304.github.io/Stats_learning_trig/img/Stim/FN_007_g.png","post_prac","","","","","","","","","","","","",""
"","html-keyboard-response","11","329698","0.0-3.0-2.0-2.0","815","","","<p>Your reaction time for this trial was 471 ms.</p><p>Remember that you should only press the SPACEBAR when you see the shape presented at the beginning of the trial. </b> </p><p>Press enter to move on.</p>","13","","","","","","","","","","","","","","","","","",""
"","instructions","12","334011","0.0-4.0","4311","","[{""page_index"":0,""viewing_time"":4311}]","","","","","","","","","","","","","","","","","","","",""
"","image-keyboard-response","13","335957","0.0-5.0-0.0-0.0","1946","","","https://ziweizhang0304.github.io/Stats_learning_trig/img/Stim/FN_007_g.png","13","","","","","","","","","","","","","","","","","",""
"","animation","14","340463","0.0-5.0-0.0-1.0","","","","","","[{""stimulus"":""https://ziweizhang0304.github.io/Stats_learning_trig/img/Stim/FN_010_g.png"",""time"":356},{""stimulus"":""blank"",""time"":674},{""stimulus"":""https://ziweizhang0304.github.io/Stats_learning_trig/img/Stim/FN_008_g.png"",""time"":715},{""stimulus"":""blank"",""time"":1015},{""stimulus"":""https://ziweizhang0304.github.io/Stats_learning_trig/img/Stim/FN_009_g.png"",""time"":1056},{""stimulus"":""blank"",""time"":1376},{""stimulus"":""https://ziweizhang0304.github.io/Stats_learning_trig/img/Stim/FN_002_g.png"",""time"":1416},{""stimulus"":""blank"",""time"":1735},{""stimulus"":""https://ziweizhang0304.github.io/Stats_learning_trig/img/Stim/FN_007_g.png"",""time"":1755},{""stimulus"":""blank"",""time"":2076},{""stimulus"":""https://ziweizhang0304.github.io/Stats_learning_trig/img/Stim/FN_022_g.png"",""time"":2095},{""stimulus"":""blank"",""time"":2415},{""stimulus"":""https://ziweizhang0304.github.io/Stats_learning_trig/img/Stim/FN_020_g.png"",""time"":2436},{""stimulus"":""blank"",""time"":2756},{""stimulus"":""https://ziweizhang0304.github.io/Stats_learning_trig/img/Stim/FN_014_g.png"",""time"":2776},{""stimulus"":""blank"",""time"":3096},{""stimulus"":""https://ziweizhang0304.github.io/Stats_learning_trig/img/Stim/FN_011_g.png"",""time"":3117},{""stimulus"":""blank"",""time"":3436},{""stimulus"":""https://ziweizhang0304.github.io/Stats_learning_trig/img/Stim/FN_016_g.png"",""time"":3476},{""stimulus"":""blank"",""time"":3785},{""stimulus"":""https://ziweizhang0304.github.io/Stats_learning_trig/img/Stim/FN_001_g.png"",""time"":3825},{""stimulus"":""blank"",""time"":4125},{""stimulus"":""https://ziweizhang0304.github.io/Stats_learning_trig/img/Stim/FN_012_g.png"",""time"":4166},{""stimulus"":""blank"",""time"":4486}]","[{""key_press"":32,""rt"":2174,""stimulus"":""https://ziweizhang0304.github.io/Stats_learning_trig/img/Stim/FN_022_g.png""}]","419","https://ziweizhang0304.github.io/Stats_learning_trig/img/Stim/FN_007_g.png","post_TD","1","1755","2174","fast","5","2","5d9c67b131544d00101daef1","","","","","",""
"","image-keyboard-response","15","342793","0.0-5.0-1.0-0.0","2329","","","https://ziweizhang0304.github.io/Stats_learning_trig/img/Stim/FN_005_g.png","13","","","","","","","","","","","","","","","","","",""
"","animation","16","347314","0.0-5.0-1.0-1.0","","","","","","[{""stimulus"":""https://ziweizhang0304.github.io/Stats_learning_trig/img/Stim/FN_010_g.png"",""time"":359},{""stimulus"":""blank"",""time"":660},{""stimulus"":""https://ziweizhang0304.github.io/Stats_learning_trig/img/Stim/FN_011_g.png"",""time"":720},{""stimulus"":""blank"",""time"":1039},{""stimulus"":""https://ziweizhang0304.github.io/Stats_learning_trig/img/Stim/FN_009_g.png"",""time"":1060},{""stimulus"":""blank"",""time"":1380},{""stimulus"":""https://ziweizhang0304.github.io/Stats_learning_trig/img/Stim/FN_014_g.png"",""time"":1420},{""stimulus"":""blank"",""time"":1737},{""stimulus"":""https://ziweizhang0304.github.io/Stats_learning_trig/img/Stim/FN_003_g.png"",""time"":1779},{""stimulus"":""blank"",""time"":2080},{""stimulus"":""https://ziweizhang0304.github.io/Stats_learning_trig/img/Stim/FN_005_g.png"",""time"":2119},{""stimulus"":""blank"",""time"":2439},{""stimulus"":""https://ziweizhang0304.github.io/Stats_learning_trig/img/Stim/FN_015_g.png"",""time"":2460},{""stimulus"":""blank"",""time"":2780},{""stimulus"":""https://ziweizhang0304.github.io/Stats_learning_trig/img/Stim/FN_008_g.png"",""time"":2801},{""stimulus"":""blank"",""time"":3119},{""stimulus"":""https://ziweizhang0304.github.io/Stats_learning_trig/img/Stim/FN_020_g.png"",""time"":3159},{""stimulus"":""blank"",""time"":3459},{""stimulus"":""https://ziweizhang0304.github.io/Stats_learning_trig/img/Stim/FN_016_g.png"",""time"":3499},{""stimulus"":""blank"",""time"":3800},{""stimulus"":""https://ziweizhang0304.github.io/Stats_learning_trig/img/Stim/FN_001_g.png"",""time"":3840},{""stimulus"":""blank"",""time"":4160},{""stimulus"":""https://ziweizhang0304.github.io/Stats_learning_trig/img/Stim/FN_012_g.png"",""time"":4181},{""stimulus"":""blank"",""time"":4500}]","[{""key_press"":32,""rt"":2419,""stimulus"":""https://ziweizhang0304.github.io/Stats_learning_trig/img/Stim/FN_005_g.png""}]","300","https://ziweizhang0304.github.io/Stats_learning_trig/img/Stim/FN_005_g.png","post_TD","2","2119","2419","slow","6","2","5d9c67b131544d00101daef1","","","","","",""
"","image-keyboard-response","17","348100","0.0-5.0-2.0-0.0","785","","","https://ziweizhang0304.github.io/Stats_learning_trig/img/Stim/FN_015_g.png","13","","","","","","","","","","","","","","","","","",""
"","animation","18","352653","0.0-5.0-2.0-1.0","","","","","","[{""stimulus"":""https://ziweizhang0304.github.io/Stats_learning_trig/img/Stim/FN_008_g.png"",""time"":344},{""stimulus"":""blank"",""time"":664},{""stimulus"":""https://ziweizhang0304.github.io/Stats_learning_trig/img/Stim/FN_009_g.png"",""time"":704},{""stimulus"":""blank"",""time"":1022},{""stimulus"":""https://ziweizhang0304.github.io/Stats_learning_trig/img/Stim/FN_020_g.png"",""time"":1063},{""stimulus"":""blank"",""time"":1364},{""stimulus"":""https://ziweizhang0304.github.io/Stats_learning_trig/img/Stim/FN_016_g.png"",""time"":1404},{""stimulus"":""blank"",""time"":1724},{""stimulus"":""https://ziweizhang0304.github.io/Stats_learning_trig/img/Stim/FN_012_g.png"",""time"":1764},{""stimulus"":""blank"",""time"":2084},{""stimulus"":""https://ziweizhang0304.github.io/Stats_learning_trig/img/Stim/FN_003_g.png"",""time"":2104},{""stimulus"":""blank"",""time"":2423},{""stimulus"":""https://ziweizhang0304.github.io/Stats_learning_trig/img/Stim/FN_005_g.png"",""time"":2464},{""stimulus"":""blank"",""time"":2783},{""stimulus"":""https://ziweizhang0304.github.io/Stats_learning_trig/img/Stim/FN_015_g.png"",""time"":2824},{""stimulus"":""blank"",""time"":3123},{""stimulus"":""https://ziweizhang0304.github.io/Stats_learning_trig/img/Stim/FN_010_g.png"",""time"":3163},{""stimulus"":""blank"",""time"":3483},{""stimulus"":""https://ziweizhang0304.github.io/Stats_learning_trig/img/Stim/FN_014_g.png"",""time"":3505},{""stimulus"":""blank"",""time"":3824},{""stimulus"":""https://ziweizhang0304.github.io/Stats_learning_trig/img/Stim/FN_011_g.png"",""time"":3863},{""stimulus"":""blank"",""time"":4164},{""stimulus"":""https://ziweizhang0304.github.io/Stats_learning_trig/img/Stim/FN_001_g.png"",""time"":4204},{""stimulus"":""blank"",""time"":4513}]","[{""key_press"":32,""rt"":3205,""stimulus"":""https://ziweizhang0304.github.io/Stats_learning_trig/img/Stim/FN_010_g.png""}]","381","https://ziweizhang0304.github.io/Stats_learning_trig/img/Stim/FN_015_g.png","post_TD","3","2824","3205","slow","8","3","5d9c67b131544d00101daef1","","","","","",""
"","image-keyboard-response","19","353081","0.0-5.0-3.0-0.0","428","","","https://ziweizhang0304.github.io/Stats_learning_trig/img/Stim/FN_022_g.png","13","","","","","","","","","","","","","","","","","",""
"","animation","20","357633","0.0-5.0-3.0-1.0","","","","","","[{""stimulus"":""https://ziweizhang0304.github.io/Stats_learning_trig/img/Stim/FN_020_g.png"",""time"":352},{""stimulus"":""blank"",""time"":672},{""stimulus"":""https://ziweizhang0304.github.io/Stats_learning_trig/img/Stim/FN_001_g.png"",""time"":712},{""stimulus"":""blank"",""time"":1031},{""stimulus"":""https://ziweizhang0304.github.io/Stats_learning_trig/img/Stim/FN_012_g.png"",""time"":1072},{""stimulus"":""blank"",""time"":1371},{""stimulus"":""https://ziweizhang0304.github.io/Stats_learning_trig/img/Stim/FN_014_g.png"",""time"":1412},{""stimulus"":""blank"",""time"":1712},{""stimulus"":""https://ziweizhang0304.github.io/Stats_learning_trig/img/Stim/FN_008_g.png"",""time"":1752},{""stimulus"":""blank"",""time"":2072},{""stimulus"":""https://ziweizhang0304.github.io/Stats_learning_trig/img/Stim/FN_009_g.png"",""time"":2112},{""stimulus"":""blank"",""time"":2431},{""stimulus"":""https://ziweizhang0304.github.io/Stats_learning_trig/img/Stim/FN_002_g.png"",""time"":2472},{""stimulus"":""blank"",""time"":2772},{""stimulus"":""https://ziweizhang0304.github.io/Stats_learning_trig/img/Stim/FN_007_g.png"",""time"":2812},{""stimulus"":""blank"",""time"":3131},{""stimulus"":""https://ziweizhang0304.github.io/Stats_learning_trig/img/Stim/FN_022_g.png"",""time"":3152},{""stimulus"":""blank"",""time"":3472},{""stimulus"":""https://ziweizhang0304.github.io/Stats_learning_trig/img/Stim/FN_010_g.png"",""time"":3512},{""stimulus"":""blank"",""time"":3832},{""stimulus"":""https://ziweizhang0304.github.io/Stats_learning_trig/img/Stim/FN_011_g.png"",""time"":3852},{""stimulus"":""blank"",""time"":4166},{""stimulus"":""https://ziweizhang0304.github.io/Stats_learning_trig/img/Stim/FN_016_g.png"",""time"":4211},{""stimulus"":""blank"",""time"":4512}]","[{""key_press"":32,""rt"":2755,""stimulus"":""https://ziweizhang0304.github.io/Stats_learning_trig/img/Stim/FN_002_g.png""},{""key_press"":32,""rt"":3577,""stimulus"":""https://ziweizhang0304.github.io/Stats_learning_trig/img/Stim/FN_010_g.png""}]","425","https://ziweizhang0304.github.io/Stats_learning_trig/img/Stim/FN_022_g.png","post_TD","4","3152","3577","fast","9","3","5d9c67b131544d00101daef1","","","","","",""
"","image-keyboard-response","21","360107","0.0-5.0-4.0-0.0","2472","","","https://ziweizhang0304.github.io/Stats_learning_trig/img/Stim/FN_007_g.png","13","","","","","","","","","","","","","","","","","",""
"","animation","22","364634","0.0-5.0-4.0-1.0","","","","","","[{""stimulus"":""https://ziweizhang0304.github.io/Stats_learning_trig/img/Stim/FN_016_g.png"",""time"":351},{""stimulus"":""blank"",""time"":666},{""stimulus"":""https://ziweizhang0304.github.io/Stats_learning_trig/img/Stim/FN_011_g.png"",""time"":707},{""stimulus"":""blank"",""time"":1026},{""stimulus"":""https://ziweizhang0304.github.io/Stats_learning_trig/img/Stim/FN_020_g.png"",""time"":1047},{""stimulus"":""blank"",""time"":1346},{""stimulus"":""https://ziweizhang0304.github.io/Stats_learning_trig/img/Stim/FN_001_g.png"",""time"":1387},{""stimulus"":""blank"",""time"":1707},{""stimulus"":""https://ziweizhang0304.github.io/Stats_learning_trig/img/Stim/FN_002_g.png"",""time"":1747},{""stimulus"":""blank"",""time"":2066},{""stimulus"":""https://ziweizhang0304.github.io/Stats_learning_trig/img/Stim/FN_007_g.png"",""time"":2106},{""stimulus"":""blank"",""time"":2407},{""stimulus"":""https://ziweizhang0304.github.io/Stats_learning_trig/img/Stim/FN_022_g.png"",""time"":2447},{""stimulus"":""blank"",""time"":2747},{""stimulus"":""https://ziweizhang0304.github.io/Stats_learning_trig/img/Stim/FN_008_g.png"",""time"":2807},{""stimulus"":""blank"",""time"":3107},{""stimulus"":""https://ziweizhang0304.github.io/Stats_learning_trig/img/Stim/FN_009_g.png"",""time"":3147},{""stimulus"":""blank"",""time"":3466},{""stimulus"":""https://ziweizhang0304.github.io/Stats_learning_trig/img/Stim/FN_010_g.png"",""time"":3487},{""stimulus"":""blank"",""time"":3806},{""stimulus"":""https://ziweizhang0304.github.io/Stats_learning_trig/img/Stim/FN_014_g.png"",""time"":3847},{""stimulus"":""blank"",""time"":4146},{""stimulus"":""https://ziweizhang0304.github.io/Stats_learning_trig/img/Stim/FN_012_g.png"",""time"":4187},{""stimulus"":""blank"",""time"":4506}]","[{""key_press"":32,""rt"":2490,""stimulus"":""https://ziweizhang0304.github.io/Stats_learning_trig/img/Stim/FN_022_g.png""}]","384","https://ziweizhang0304.github.io/Stats_learning_trig/img/Stim/FN_007_g.png","post_TD","5","2106","2490","fast","6","2","5d9c67b131544d00101daef1","","","","","",""
"","image-keyboard-response","23","367859","0.0-5.0-5.0-0.0","3224","","","https://ziweizhang0304.github.io/Stats_learning_trig/img/Stim/FN_007_g.png","13","","","","","","","","","","","","","","","","","",""
"","animation","24","372355","0.0-5.0-5.0-1.0","","","","","","[{""stimulus"":""https://ziweizhang0304.github.io/Stats_learning_trig/img/Stim/FN_020_g.png"",""time"":345},{""stimulus"":""blank"",""time"":664},{""stimulus"":""https://ziweizhang0304.github.io/Stats_learning_trig/img/Stim/FN_008_g.png"",""time"":705},{""stimulus"":""blank"",""time"":1014},{""stimulus"":""https://ziweizhang0304.github.io/Stats_learning_trig/img/Stim/FN_012_g.png"",""time"":1052},{""stimulus"":""blank"",""time"":1354},{""stimulus"":""https://ziweizhang0304.github.io/Stats_learning_trig/img/Stim/FN_001_g.png"",""time"":1395},{""stimulus"":""blank"",""time"":1695},{""stimulus"":""https://ziweizhang0304.github.io/Stats_learning_trig/img/Stim/FN_010_g.png"",""time"":1735},{""stimulus"":""blank"",""time"":2054},{""stimulus"":""https://ziweizhang0304.github.io/Stats_learning_trig/img/Stim/FN_002_g.png"",""time"":2075},{""stimulus"":""blank"",""time"":2394},{""stimulus"":""https://ziweizhang0304.github.io/Stats_learning_trig/img/Stim/FN_007_g.png"",""time"":2435},{""stimulus"":""blank"",""time"":2754},{""stimulus"":""https://ziweizhang0304.github.io/Stats_learning_trig/img/Stim/FN_022_g.png"",""time"":2775},{""stimulus"":""blank"",""time"":3094},{""stimulus"":""https://ziweizhang0304.github.io/Stats_learning_trig/img/Stim/FN_009_g.png"",""time"":3115},{""stimulus"":""blank"",""time"":3435},{""stimulus"":""https://ziweizhang0304.github.io/Stats_learning_trig/img/Stim/FN_014_g.png"",""time"":3455},{""stimulus"":""blank"",""time"":3775},{""stimulus"":""https://ziweizhang0304.github.io/Stats_learning_trig/img/Stim/FN_011_g.png"",""time"":3815},{""stimulus"":""blank"",""time"":4135},{""stimulus"":""https://ziweizhang0304.github.io/Stats_learning_trig/img/Stim/FN_016_g.png"",""time"":4155},{""stimulus"":""blank"",""time"":4475}]","[{""key_press"":32,""rt"":2857,""stimulus"":""https://ziweizhang0304.github.io/Stats_learning_trig/img/Stim/FN_022_g.png""},{""key_press"":32,""rt"":3532,""stimulus"":""https://ziweizhang0304.github.io/Stats_learning_trig/img/Stim/FN_014_g.png""}]","422","https://ziweizhang0304.github.io/Stats_learning_trig/img/Stim/FN_007_g.png","post_TD","6","2435","2857","fast","7","2","5d9c67b131544d00101daef1","","","","","",""
"","image-keyboard-response","25","373336","0.0-5.0-6.0-0.0","980","","","https://ziweizhang0304.github.io/Stats_learning_trig/img/Stim/FN_022_g.png","13","","","","","","","","","","","","","","","","","",""
"","animation","26","377904","0.0-5.0-6.0-1.0","","","","","","[{""stimulus"":""https://ziweizhang0304.github.io/Stats_learning_trig/img/Stim/FN_020_g.png"",""time"":349},{""stimulus"":""blank"",""time"":659},{""stimulus"":""https://ziweizhang0304.github.io/Stats_learning_trig/img/Stim/FN_008_g.png"",""time"":699},{""stimulus"":""blank"",""time"":1019},{""stimulus"":""https://ziweizhang0304.github.io/Stats_learning_trig/img/Stim/FN_012_g.png"",""time"":1059},{""stimulus"":""blank"",""time"":1378},{""stimulus"":""https://ziweizhang0304.github.io/Stats_learning_trig/img/Stim/FN_001_g.png"",""time"":1414},{""stimulus"":""blank"",""time"":1728},{""stimulus"":""https://ziweizhang0304.github.io/Stats_learning_trig/img/Stim/FN_010_g.png"",""time"":1769},{""stimulus"":""blank"",""time"":2088},{""stimulus"":""https://ziweizhang0304.github.io/Stats_learning_trig/img/Stim/FN_002_g.png"",""time"":2129},{""stimulus"":""blank"",""time"":2429},{""stimulus"":""https://ziweizhang0304.github.io/Stats_learning_trig/img/Stim/FN_007_g.png"",""time"":2469},{""stimulus"":""blank"",""time"":2789},{""stimulus"":""https://ziweizhang0304.github.io/Stats_learning_trig/img/Stim/FN_022_g.png"",""time"":2809},{""stimulus"":""blank"",""time"":3128},{""stimulus"":""https://ziweizhang0304.github.io/Stats_learning_trig/img/Stim/FN_009_g.png"",""time"":3168},{""stimulus"":""blank"",""time"":3488},{""stimulus"":""https://ziweizhang0304.github.io/Stats_learning_trig/img/Stim/FN_014_g.png"",""time"":3509},{""stimulus"":""blank"",""time"":3823},{""stimulus"":""https://ziweizhang0304.github.io/Stats_learning_trig/img/Stim/FN_011_g.png"",""time"":3849},{""stimulus"":""blank"",""time"":4168},{""stimulus"":""https://ziweizhang0304.github.io/Stats_learning_trig/img/Stim/FN_016_g.png"",""time"":4210},{""stimulus"":""blank"",""time"":4528}]","[{""key_press"":32,""rt"":3178,""stimulus"":""https://ziweizhang0304.github.io/Stats_learning_trig/img/Stim/FN_009_g.png""}]","369","https://ziweizhang0304.github.io/Stats_learning_trig/img/Stim/FN_022_g.png","post_TD","7","2809","3178","fast","8","3","5d9c67b131544d00101daef1","","","","","",""
"","image-keyboard-response","27","378338","0.0-5.0-7.0-0.0","432","","","https://ziweizhang0304.github.io/Stats_learning_trig/img/Stim/FN_005_g.png","13","","","","","","","","","","","","","","","","","",""
"","animation","28","382905","0.0-5.0-7.0-1.0","","","","","","[{""stimulus"":""https://ziweizhang0304.github.io/Stats_learning_trig/img/Stim/FN_009_g.png"",""time"":347},{""stimulus"":""blank"",""time"":666},{""stimulus"":""https://ziweizhang0304.github.io/Stats_learning_trig/img/Stim/FN_016_g.png"",""time"":707},{""stimulus"":""blank"",""time"":1027},{""stimulus"":""https://ziweizhang0304.github.io/Stats_learning_trig/img/Stim/FN_020_g.png"",""time"":1047},{""stimulus"":""blank"",""time"":1365},{""stimulus"":""https://ziweizhang0304.github.io/Stats_learning_trig/img/Stim/FN_011_g.png"",""time"":1387},{""stimulus"":""blank"",""time"":1703},{""stimulus"":""https://ziweizhang0304.github.io/Stats_learning_trig/img/Stim/FN_010_g.png"",""time"":1747},{""stimulus"":""blank"",""time"":2067},{""stimulus"":""https://ziweizhang0304.github.io/Stats_learning_trig/img/Stim/FN_012_g.png"",""time"":2087},{""stimulus"":""blank"",""time"":2407},{""stimulus"":""https://ziweizhang0304.github.io/Stats_learning_trig/img/Stim/FN_003_g.png"",""time"":2447},{""stimulus"":""blank"",""time"":2766},{""stimulus"":""https://ziweizhang0304.github.io/Stats_learning_trig/img/Stim/FN_005_g.png"",""time"":2806},{""stimulus"":""blank"",""time"":3126},{""stimulus"":""https://ziweizhang0304.github.io/Stats_learning_trig/img/Stim/FN_015_g.png"",""time"":3147},{""stimulus"":""blank"",""time"":3466},{""stimulus"":""https://ziweizhang0304.github.io/Stats_learning_trig/img/Stim/FN_008_g.png"",""time"":3508},{""stimulus"":""blank"",""time"":3827},{""stimulus"":""https://ziweizhang0304.github.io/Stats_learning_trig/img/Stim/FN_014_g.png"",""time"":3847},{""stimulus"":""blank"",""time"":4167},{""stimulus"":""https://ziweizhang0304.github.io/Stats_learning_trig/img/Stim/FN_001_g.png"",""time"":4207},{""stimulus"":""blank"",""time"":4527}]","[{""key_press"":32,""rt"":2840,""stimulus"":""https://ziweizhang0304.github.io/Stats_learning_trig/img/Stim/FN_005_g.png""},{""key_press"":32,""rt"":3388,""stimulus"":""https://ziweizhang0304.github.io/Stats_learning_trig/img/Stim/FN_015_g.png""}]","34","https://ziweizhang0304.github.io/Stats_learning_trig/img/Stim/FN_005_g.png","post_TD","8","2806","2840","slow","8","2","5d9c67b131544d00101daef1","","","","","",""
"","image-keyboard-response","29","383856","0.0-5.0-8.0-0.0","950","","","https://ziweizhang0304.github.io/Stats_learning_trig/img/Stim/FN_022_g.png","13","","","","","","","","","","","","","","","","","",""
"","animation","30","388395","0.0-5.0-8.0-1.0","","","","","","[{""stimulus"":""https://ziweizhang0304.github.io/Stats_learning_trig/img/Stim/FN_016_g.png"",""time"":359},{""stimulus"":""blank"",""time"":659},{""stimulus"":""https://ziweizhang0304.github.io/Stats_learning_trig/img/Stim/FN_011_g.png"",""time"":719},{""stimulus"":""blank"",""time"":1029},{""stimulus"":""https://ziweizhang0304.github.io/Stats_learning_trig/img/Stim/FN_020_g.png"",""time"":1069},{""stimulus"":""blank"",""time"":1388},{""stimulus"":""https://ziweizhang0304.github.io/Stats_learning_trig/img/Stim/FN_001_g.png"",""time"":1430},{""stimulus"":""blank"",""time"":1749},{""stimulus"":""https://ziweizhang0304.github.io/Stats_learning_trig/img/Stim/FN_002_g.png"",""time"":1769},{""stimulus"":""blank"",""time"":2088},{""stimulus"":""https://ziweizhang0304.github.io/Stats_learning_trig/img/Stim/FN_007_g.png"",""time"":2109},{""stimulus"":""blank"",""time"":2429},{""stimulus"":""https://ziweizhang0304.github.io/Stats_learning_trig/img/Stim/FN_022_g.png"",""time"":2469},{""stimulus"":""blank"",""time"":2778},{""stimulus"":""https://ziweizhang0304.github.io/Stats_learning_trig/img/Stim/FN_008_g.png"",""time"":2818},{""stimulus"":""blank"",""time"":3119},{""stimulus"":""https://ziweizhang0304.github.io/Stats_learning_trig/img/Stim/FN_009_g.png"",""time"":3159},{""stimulus"":""blank"",""time"":3459},{""stimulus"":""https://ziweizhang0304.github.io/Stats_learning_trig/img/Stim/FN_010_g.png"",""time"":3519},{""stimulus"":""blank"",""time"":3839},{""stimulus"":""https://ziweizhang0304.github.io/Stats_learning_trig/img/Stim/FN_014_g.png"",""time"":3859},{""stimulus"":""blank"",""time"":4178},{""stimulus"":""https://ziweizhang0304.github.io/Stats_learning_trig/img/Stim/FN_012_g.png"",""time"":4200},{""stimulus"":""blank"",""time"":4518}]","[{""key_press"":32,""rt"":2490,""stimulus"":""https://ziweizhang0304.github.io/Stats_learning_trig/img/Stim/FN_022_g.png""}]","21","https://ziweizhang0304.github.io/Stats_learning_trig/img/Stim/FN_022_g.png","post_TD","9","2469","2490","fast","7","3","5d9c67b131544d00101daef1","","","","","",""
"","image-keyboard-response","31","389143","0.0-5.0-9.0-0.0","747","","","https://ziweizhang0304.github.io/Stats_learning_trig/img/Stim/FN_005_g.png","13","","","","","","","","","","","","","","","","","",""
"","animation","32","393666","0.0-5.0-9.0-1.0","","","","","","[{""stimulus"":""https://ziweizhang0304.github.io/Stats_learning_trig/img/Stim/FN_011_g.png"",""time"":342},{""stimulus"":""blank"",""time"":651},{""stimulus"":""https://ziweizhang0304.github.io/Stats_learning_trig/img/Stim/FN_014_g.png"",""time"":691},{""stimulus"":""blank"",""time"":992},{""stimulus"":""https://ziweizhang0304.github.io/Stats_learning_trig/img/Stim/FN_016_g.png"",""time"":1032},{""stimulus"":""blank"",""time"":1351},{""stimulus"":""https://ziweizhang0304.github.io/Stats_learning_trig/img/Stim/FN_003_g.png"",""time"":1372},{""stimulus"":""blank"",""time"":1692},{""stimulus"":""https://ziweizhang0304.github.io/Stats_learning_trig/img/Stim/FN_005_g.png"",""time"":1732},{""stimulus"":""blank"",""time"":2046},{""stimulus"":""https://ziweizhang0304.github.io/Stats_learning_trig/img/Stim/FN_015_g.png"",""time"":2081},{""stimulus"":""blank"",""time"":2381},{""stimulus"":""https://ziweizhang0304.github.io/Stats_learning_trig/img/Stim/FN_008_g.png"",""time"":2423},{""stimulus"":""blank"",""time"":2737},{""stimulus"":""https://ziweizhang0304.github.io/Stats_learning_trig/img/Stim/FN_020_g.png"",""time"":2782},{""stimulus"":""blank"",""time"":3102},{""stimulus"":""https://ziweizhang0304.github.io/Stats_learning_trig/img/Stim/FN_009_g.png"",""time"":3123},{""stimulus"":""blank"",""time"":3439},{""stimulus"":""https://ziweizhang0304.github.io/Stats_learning_trig/img/Stim/FN_010_g.png"",""time"":3481},{""stimulus"":""blank"",""time"":3782},{""stimulus"":""https://ziweizhang0304.github.io/Stats_learning_trig/img/Stim/FN_001_g.png"",""time"":3822},{""stimulus"":""blank"",""time"":4142},{""stimulus"":""https://ziweizhang0304.github.io/Stats_learning_trig/img/Stim/FN_012_g.png"",""time"":4163},{""stimulus"":""blank"",""time"":4482}]","[{""key_press"":32,""rt"":2329,""stimulus"":""https://ziweizhang0304.github.io/Stats_learning_trig/img/Stim/FN_015_g.png""}]","597","https://ziweizhang0304.github.io/Stats_learning_trig/img/Stim/FN_005_g.png","post_TD","10","1732","2329","slow","5","2","5d9c67b131544d00101daef1","","","","","",""
"","image-keyboard-response","33","395107","0.0-5.0-10.0-0.0","1440","","","https://ziweizhang0304.github.io/Stats_learning_trig/img/Stim/FN_015_g.png","13","","","","","","","","","","","","","","","","","",""
"","animation","34","399636","0.0-5.0-10.0-1.0","","","","","","[{""stimulus"":""https://ziweizhang0304.github.io/Stats_learning_trig/img/Stim/FN_010_g.png"",""time"":359},{""stimulus"":""blank"",""time"":679},{""stimulus"":""https://ziweizhang0304.github.io/Stats_learning_trig/img/Stim/FN_011_g.png"",""time"":719},{""stimulus"":""blank"",""time"":1039},{""stimulus"":""https://ziweizhang0304.github.io/Stats_learning_trig/img/Stim/FN_009_g.png"",""time"":1059},{""stimulus"":""blank"",""time"":1368},{""stimulus"":""https://ziweizhang0304.github.io/Stats_learning_trig/img/Stim/FN_014_g.png"",""time"":1409},{""stimulus"":""blank"",""time"":1728},{""stimulus"":""https://ziweizhang0304.github.io/Stats_learning_trig/img/Stim/FN_003_g.png"",""time"":1768},{""stimulus"":""blank"",""time"":2070},{""stimulus"":""https://ziweizhang0304.github.io/Stats_learning_trig/img/Stim/FN_005_g.png"",""time"":2109},{""stimulus"":""blank"",""time"":2409},{""stimulus"":""https://ziweizhang0304.github.io/Stats_learning_trig/img/Stim/FN_015_g.png"",""time"":2449},{""stimulus"":""blank"",""time"":2758},{""stimulus"":""https://ziweizhang0304.github.io/Stats_learning_trig/img/Stim/FN_008_g.png"",""time"":2798},{""stimulus"":""blank"",""time"":3098},{""stimulus"":""https://ziweizhang0304.github.io/Stats_learning_trig/img/Stim/FN_020_g.png"",""time"":3139},{""stimulus"":""blank"",""time"":3459},{""stimulus"":""https://ziweizhang0304.github.io/Stats_learning_trig/img/Stim/FN_016_g.png"",""time"":3495},{""stimulus"":""blank"",""time"":3796},{""stimulus"":""https://ziweizhang0304.github.io/Stats_learning_trig/img/Stim/FN_001_g.png"",""time"":3838},{""stimulus"":""blank"",""time"":4148},{""stimulus"":""https://ziweizhang0304.github.io/Stats_learning_trig/img/Stim/FN_012_g.png"",""time"":4188},{""stimulus"":""blank"",""time"":4489}]","[{""key_press"":32,""rt"":2754,""stimulus"":""https://ziweizhang0304.github.io/Stats_learning_trig/img/Stim/FN_015_g.png""}]","305","https://ziweizhang0304.github.io/Stats_learning_trig/img/Stim/FN_015_g.png","post_TD","11","2449","2754","slow","7","3","5d9c67b131544d00101daef1","","","","","",""
"","image-keyboard-response","35","400464","0.0-5.0-11.0-0.0","826","","","https://ziweizhang0304.github.io/Stats_learning_trig/img/Stim/FN_002_g.png","13","","","","","","","","","","","","","","","","","",""
"","animation","36","404946","0.0-5.0-11.0-1.0","","","","","","[{""stimulus"":""https://ziweizhang0304.github.io/Stats_learning_trig/img/Stim/FN_020_g.png"",""time"":352},{""stimulus"":""blank"",""time"":653},{""stimulus"":""https://ziweizhang0304.github.io/Stats_learning_trig/img/Stim/FN_008_g.png"",""time"":692},{""stimulus"":""blank"",""time"":992},{""stimulus"":""https://ziweizhang0304.github.io/Stats_learning_trig/img/Stim/FN_012_g.png"",""time"":1033},{""stimulus"":""blank"",""time"":1333},{""stimulus"":""https://ziweizhang0304.github.io/Stats_learning_trig/img/Stim/FN_001_g.png"",""time"":1373},{""stimulus"":""blank"",""time"":1692},{""stimulus"":""https://ziweizhang0304.github.io/Stats_learning_trig/img/Stim/FN_010_g.png"",""time"":1713},{""stimulus"":""blank"",""time"":2027},{""stimulus"":""https://ziweizhang0304.github.io/Stats_learning_trig/img/Stim/FN_002_g.png"",""time"":2062},{""stimulus"":""blank"",""time"":2362},{""stimulus"":""https://ziweizhang0304.github.io/Stats_learning_trig/img/Stim/FN_007_g.png"",""time"":2403},{""stimulus"":""blank"",""time"":2722},{""stimulus"":""https://ziweizhang0304.github.io/Stats_learning_trig/img/Stim/FN_022_g.png"",""time"":2763},{""stimulus"":""blank"",""time"":3082},{""stimulus"":""https://ziweizhang0304.github.io/Stats_learning_trig/img/Stim/FN_009_g.png"",""time"":3103},{""stimulus"":""blank"",""time"":3422},{""stimulus"":""https://ziweizhang0304.github.io/Stats_learning_trig/img/Stim/FN_014_g.png"",""time"":3462},{""stimulus"":""blank"",""time"":3777},{""stimulus"":""https://ziweizhang0304.github.io/Stats_learning_trig/img/Stim/FN_011_g.png"",""time"":3802},{""stimulus"":""blank"",""time"":4103},{""stimulus"":""https://ziweizhang0304.github.io/Stats_learning_trig/img/Stim/FN_016_g.png"",""time"":4142},{""stimulus"":""blank"",""time"":4463}]","[{""key_press"":32,""rt"":2405,""stimulus"":""https://ziweizhang0304.github.io/Stats_learning_trig/img/Stim/FN_007_g.png""}]","343","https://ziweizhang0304.github.io/Stats_learning_trig/img/Stim/FN_002_g.png","post_TD","12","2062","2405","fast","6","1","5d9c67b131544d00101daef1","","","","","",""
"","image-keyboard-response","37","405654","0.0-5.0-12.0-0.0","707","","","https://ziweizhang0304.github.io/Stats_learning_trig/img/Stim/FN_003_g.png","13","","","","","","","","","","","","","","","","","",""
"","animation","38","410196","0.0-5.0-12.0-1.0","","","","","","[{""stimulus"":""https://ziweizhang0304.github.io/Stats_learning_trig/img/Stim/FN_010_g.png"",""time"":352},{""stimulus"":""blank"",""time"":671},{""stimulus"":""https://ziweizhang0304.github.io/Stats_learning_trig/img/Stim/FN_011_g.png"",""time"":692},{""stimulus"":""blank"",""time"":1011},{""stimulus"":""https://ziweizhang0304.github.io/Stats_learning_trig/img/Stim/FN_009_g.png"",""time"":1052},{""stimulus"":""blank"",""time"":1351},{""stimulus"":""https://ziweizhang0304.github.io/Stats_learning_trig/img/Stim/FN_014_g.png"",""time"":1406},{""stimulus"":""blank"",""time"":1722},{""stimulus"":""https://ziweizhang0304.github.io/Stats_learning_trig/img/Stim/FN_003_g.png"",""time"":1762},{""stimulus"":""blank"",""time"":2082},{""stimulus"":""https://ziweizhang0304.github.io/Stats_learning_trig/img/Stim/FN_005_g.png"",""time"":2122},{""stimulus"":""blank"",""time"":2442},{""stimulus"":""https://ziweizhang0304.github.io/Stats_learning_trig/img/Stim/FN_015_g.png"",""time"":2462},{""stimulus"":""blank"",""time"":2782},{""stimulus"":""https://ziweizhang0304.github.io/Stats_learning_trig/img/Stim/FN_008_g.png"",""time"":2823},{""stimulus"":""blank"",""time"":3141},{""stimulus"":""https://ziweizhang0304.github.io/Stats_learning_trig/img/Stim/FN_020_g.png"",""time"":3163},{""stimulus"":""blank"",""time"":3481},{""stimulus"":""https://ziweizhang0304.github.io/Stats_learning_trig/img/Stim/FN_016_g.png"",""time"":3521},{""stimulus"":""blank"",""time"":3821},{""stimulus"":""https://ziweizhang0304.github.io/Stats_learning_trig/img/Stim/FN_001_g.png"",""time"":3862},{""stimulus"":""blank"",""time"":4162},{""stimulus"":""https://ziweizhang0304.github.io/Stats_learning_trig/img/Stim/FN_012_g.png"",""time"":4202},{""stimulus"":""blank"",""time"":4522}]","[{""key_press"":32,""rt"":2176,""stimulus"":""https://ziweizhang0304.github.io/Stats_learning_trig/img/Stim/FN_005_g.png""}]","414","https://ziweizhang0304.github.io/Stats_learning_trig/img/Stim/FN_003_g.png","post_TD","13","1762","2176","slow","5","1","5d9c67b131544d00101daef1","","","","","",""
"","image-keyboard-response","39","410838","0.0-5.0-13.0-0.0","642","","","https://ziweizhang0304.github.io/Stats_learning_trig/img/Stim/FN_003_g.png","13","","","","","","","","","","","","","","","","","",""
"","animation","40","415347","0.0-5.0-13.0-1.0","","","","","","[{""stimulus"":""https://ziweizhang0304.github.io/Stats_learning_trig/img/Stim/FN_008_g.png"",""time"":347},{""stimulus"":""blank"",""time"":648},{""stimulus"":""https://ziweizhang0304.github.io/Stats_learning_trig/img/Stim/FN_009_g.png"",""time"":688},{""stimulus"":""blank"",""time"":1007},{""stimulus"":""https://ziweizhang0304.github.io/Stats_learning_trig/img/Stim/FN_020_g.png"",""time"":1048},{""stimulus"":""blank"",""time"":1367},{""stimulus"":""https://ziweizhang0304.github.io/Stats_learning_trig/img/Stim/FN_016_g.png"",""time"":1405},{""stimulus"":""blank"",""time"":1705},{""stimulus"":""https://ziweizhang0304.github.io/Stats_learning_trig/img/Stim/FN_012_g.png"",""time"":1747},{""stimulus"":""blank"",""time"":2047},{""stimulus"":""https://ziweizhang0304.github.io/Stats_learning_trig/img/Stim/FN_003_g.png"",""time"":2087},{""stimulus"":""blank"",""time"":2388},{""stimulus"":""https://ziweizhang0304.github.io/Stats_learning_trig/img/Stim/FN_005_g.png"",""time"":2428},{""stimulus"":""blank"",""time"":2747},{""stimulus"":""https://ziweizhang0304.github.io/Stats_learning_trig/img/Stim/FN_015_g.png"",""time"":2768},{""stimulus"":""blank"",""time"":3088},{""stimulus"":""https://ziweizhang0304.github.io/Stats_learning_trig/img/Stim/FN_010_g.png"",""time"":3108},{""stimulus"":""blank"",""time"":3427},{""stimulus"":""https://ziweizhang0304.github.io/Stats_learning_trig/img/Stim/FN_014_g.png"",""time"":3467},{""stimulus"":""blank"",""time"":3768},{""stimulus"":""https://ziweizhang0304.github.io/Stats_learning_trig/img/Stim/FN_011_g.png"",""time"":3808},{""stimulus"":""blank"",""time"":4127},{""stimulus"":""https://ziweizhang0304.github.io/Stats_learning_trig/img/Stim/FN_001_g.png"",""time"":4168},{""stimulus"":""blank"",""time"":4487}]","[{""key_press"":32,""rt"":2423,""stimulus"":""blank""}]","336","https://ziweizhang0304.github.io/Stats_learning_trig/img/Stim/FN_003_g.png","post_TD","14","2087","2423","slow","6","1","5d9c67b131544d00101daef1","","","","","",""
"","image-keyboard-response","41","416265","0.0-5.0-14.0-0.0","916","","","https://ziweizhang0304.github.io/Stats_learning_trig/img/Stim/FN_003_g.png","13","","","","","","","","","","","","","","","","","",""
"","animation","42","420777","0.0-5.0-14.0-1.0","","","","","","[{""stimulus"":""https://ziweizhang0304.github.io/Stats_learning_trig/img/Stim/FN_009_g.png"",""time"":352},{""stimulus"":""blank"",""time"":672},{""stimulus"":""https://ziweizhang0304.github.io/Stats_learning_trig/img/Stim/FN_016_g.png"",""time"":692},{""stimulus"":""blank"",""time"":1012},{""stimulus"":""https://ziweizhang0304.github.io/Stats_learning_trig/img/Stim/FN_020_g.png"",""time"":1032},{""stimulus"":""blank"",""time"":1351},{""stimulus"":""https://ziweizhang0304.github.io/Stats_learning_trig/img/Stim/FN_011_g.png"",""time"":1392},{""stimulus"":""blank"",""time"":1712},{""stimulus"":""https://ziweizhang0304.github.io/Stats_learning_trig/img/Stim/FN_010_g.png"",""time"":1732},{""stimulus"":""blank"",""time"":2051},{""stimulus"":""https://ziweizhang0304.github.io/Stats_learning_trig/img/Stim/FN_012_g.png"",""time"":2092},{""stimulus"":""blank"",""time"":2412},{""stimulus"":""https://ziweizhang0304.github.io/Stats_learning_trig/img/Stim/FN_003_g.png"",""time"":2432},{""stimulus"":""blank"",""time"":2752},{""stimulus"":""https://ziweizhang0304.github.io/Stats_learning_trig/img/Stim/FN_005_g.png"",""time"":2773},{""stimulus"":""blank"",""time"":3076},{""stimulus"":""https://ziweizhang0304.github.io/Stats_learning_trig/img/Stim/FN_015_g.png"",""time"":3131},{""stimulus"":""blank"",""time"":3432},{""stimulus"":""https://ziweizhang0304.github.io/Stats_learning_trig/img/Stim/FN_008_g.png"",""time"":3471},{""stimulus"":""blank"",""time"":3791},{""stimulus"":""https://ziweizhang0304.github.io/Stats_learning_trig/img/Stim/FN_014_g.png"",""time"":3812},{""stimulus"":""blank"",""time"":4132},{""stimulus"":""https://ziweizhang0304.github.io/Stats_learning_trig/img/Stim/FN_001_g.png"",""time"":4152},{""stimulus"":""blank"",""time"":4470}]","[{""key_press"":32,""rt"":2760,""stimulus"":""blank""}]","328","https://ziweizhang0304.github.io/Stats_learning_trig/img/Stim/FN_003_g.png","post_TD","15","2432","2760","slow","7","1","5d9c67b131544d00101daef1","","","","","",""
"","image-keyboard-response","43","421131","0.0-5.0-15.0-0.0","352","","","https://ziweizhang0304.github.io/Stats_learning_trig/img/Stim/FN_002_g.png","13","","","","","","","","","","","","","","","","","",""
"","animation","44","425707","0.0-5.0-15.0-1.0","","","","","","[{""stimulus"":""https://ziweizhang0304.github.io/Stats_learning_trig/img/Stim/FN_010_g.png"",""time"":348},{""stimulus"":""blank"",""time"":667},{""stimulus"":""https://ziweizhang0304.github.io/Stats_learning_trig/img/Stim/FN_008_g.png"",""time"":707},{""stimulus"":""blank"",""time"":1026},{""stimulus"":""https://ziweizhang0304.github.io/Stats_learning_trig/img/Stim/FN_009_g.png"",""time"":1062},{""stimulus"":""blank"",""time"":1367},{""stimulus"":""https://ziweizhang0304.github.io/Stats_learning_trig/img/Stim/FN_002_g.png"",""time"":1407},{""stimulus"":""blank"",""time"":1726},{""stimulus"":""https://ziweizhang0304.github.io/Stats_learning_trig/img/Stim/FN_007_g.png"",""time"":1767},{""stimulus"":""blank"",""time"":2067},{""stimulus"":""https://ziweizhang0304.github.io/Stats_learning_trig/img/Stim/FN_022_g.png"",""time"":2127},{""stimulus"":""blank"",""time"":2427},{""stimulus"":""https://ziweizhang0304.github.io/Stats_learning_trig/img/Stim/FN_020_g.png"",""time"":2487},{""stimulus"":""blank"",""time"":2805},{""stimulus"":""https://ziweizhang0304.github.io/Stats_learning_trig/img/Stim/FN_014_g.png"",""time"":2847},{""stimulus"":""blank"",""time"":3146},{""stimulus"":""https://ziweizhang0304.github.io/Stats_learning_trig/img/Stim/FN_011_g.png"",""time"":3188},{""stimulus"":""blank"",""time"":3506},{""stimulus"":""https://ziweizhang0304.github.io/Stats_learning_trig/img/Stim/FN_016_g.png"",""time"":3527},{""stimulus"":""blank"",""time"":3847},{""stimulus"":""https://ziweizhang0304.github.io/Stats_learning_trig/img/Stim/FN_001_g.png"",""time"":3867},{""stimulus"":""blank"",""time"":4186},{""stimulus"":""https://ziweizhang0304.github.io/Stats_learning_trig/img/Stim/FN_012_g.png"",""time"":4227},{""stimulus"":""blank"",""time"":4536}]","[{""key_press"":32,""rt"":1788,""stimulus"":""https://ziweizhang0304.github.io/Stats_learning_trig/img/Stim/FN_007_g.png""}]","381","https://ziweizhang0304.github.io/Stats_learning_trig/img/Stim/FN_002_g.png","post_TD","16","1407","1788","fast","4","1","5d9c67b131544d00101daef1","","","","","",""
"","image-keyboard-response","45","426639","0.0-5.0-16.0-0.0","931","","","https://ziweizhang0304.github.io/Stats_learning_trig/img/Stim/FN_015_g.png","13","","","","","","","","","","","","","","","","","",""
"","animation","46","431167","0.0-5.0-16.0-1.0","","","","","","[{""stimulus"":""https://ziweizhang0304.github.io/Stats_learning_trig/img/Stim/FN_011_g.png"",""time"":349},{""stimulus"":""blank"",""time"":668},{""stimulus"":""https://ziweizhang0304.github.io/Stats_learning_trig/img/Stim/FN_014_g.png"",""time"":708},{""stimulus"":""blank"",""time"":1008},{""stimulus"":""https://ziweizhang0304.github.io/Stats_learning_trig/img/Stim/FN_016_g.png"",""time"":1049},{""stimulus"":""blank"",""time"":1368},{""stimulus"":""https://ziweizhang0304.github.io/Stats_learning_trig/img/Stim/FN_003_g.png"",""time"":1409},{""stimulus"":""blank"",""time"":1729},{""stimulus"":""https://ziweizhang0304.github.io/Stats_learning_trig/img/Stim/FN_005_g.png"",""time"":1750},{""stimulus"":""blank"",""time"":2069},{""stimulus"":""https://ziweizhang0304.github.io/Stats_learning_trig/img/Stim/FN_015_g.png"",""time"":2109},{""stimulus"":""blank"",""time"":2408},{""stimulus"":""https://ziweizhang0304.github.io/Stats_learning_trig/img/Stim/FN_008_g.png"",""time"":2449},{""stimulus"":""blank"",""time"":2768},{""stimulus"":""https://ziweizhang0304.github.io/Stats_learning_trig/img/Stim/FN_020_g.png"",""time"":2789},{""stimulus"":""blank"",""time"":3109},{""stimulus"":""https://ziweizhang0304.github.io/Stats_learning_trig/img/Stim/FN_009_g.png"",""time"":3129},{""stimulus"":""blank"",""time"":3449},{""stimulus"":""https://ziweizhang0304.github.io/Stats_learning_trig/img/Stim/FN_010_g.png"",""time"":3489},{""stimulus"":""blank"",""time"":3808},{""stimulus"":""https://ziweizhang0304.github.io/Stats_learning_trig/img/Stim/FN_001_g.png"",""time"":3849},{""stimulus"":""blank"",""time"":4148},{""stimulus"":""https://ziweizhang0304.github.io/Stats_learning_trig/img/Stim/FN_012_g.png"",""time"":4188},{""stimulus"":""blank"",""time"":4489}]","[{""key_press"":32,""rt"":2464,""stimulus"":""https://ziweizhang0304.github.io/Stats_learning_trig/img/Stim/FN_008_g.png""}]","355","https://ziweizhang0304.github.io/Stats_learning_trig/img/Stim/FN_015_g.png","post_TD","17","2109","2464","slow","6","3","5d9c67b131544d00101daef1","","","","","",""
"","image-keyboard-response","47","433283","0.0-5.0-17.0-0.0","2116","","","https://ziweizhang0304.github.io/Stats_learning_trig/img/Stim/FN_022_g.png","13","","","","","","","","","","","","","","","","","",""
"","animation","48","437817","0.0-5.0-17.0-1.0","","","","","","[{""stimulus"":""https://ziweizhang0304.github.io/Stats_learning_trig/img/Stim/FN_010_g.png"",""time"":354},{""stimulus"":""blank"",""time"":653},{""stimulus"":""https://ziweizhang0304.github.io/Stats_learning_trig/img/Stim/FN_008_g.png"",""time"":694},{""stimulus"":""blank"",""time"":1013},{""stimulus"":""https://ziweizhang0304.github.io/Stats_learning_trig/img/Stim/FN_009_g.png"",""time"":1055},{""stimulus"":""blank"",""time"":1364},{""stimulus"":""https://ziweizhang0304.github.io/Stats_learning_trig/img/Stim/FN_002_g.png"",""time"":1404},{""stimulus"":""blank"",""time"":1723},{""stimulus"":""https://ziweizhang0304.github.io/Stats_learning_trig/img/Stim/FN_007_g.png"",""time"":1763},{""stimulus"":""blank"",""time"":2064},{""stimulus"":""https://ziweizhang0304.github.io/Stats_learning_trig/img/Stim/FN_022_g.png"",""time"":2104},{""stimulus"":""blank"",""time"":2403},{""stimulus"":""https://ziweizhang0304.github.io/Stats_learning_trig/img/Stim/FN_020_g.png"",""time"":2444},{""stimulus"":""blank"",""time"":2744},{""stimulus"":""https://ziweizhang0304.github.io/Stats_learning_trig/img/Stim/FN_014_g.png"",""time"":2803},{""stimulus"":""blank"",""time"":3114},{""stimulus"":""https://ziweizhang0304.github.io/Stats_learning_trig/img/Stim/FN_011_g.png"",""time"":3154},{""stimulus"":""blank"",""time"":3473},{""stimulus"":""https://ziweizhang0304.github.io/Stats_learning_trig/img/Stim/FN_016_g.png"",""time"":3493},{""stimulus"":""blank"",""time"":3794},{""stimulus"":""https://ziweizhang0304.github.io/Stats_learning_trig/img/Stim/FN_001_g.png"",""time"":3834},{""stimulus"":""blank"",""time"":4154},{""stimulus"":""https://ziweizhang0304.github.io/Stats_learning_trig/img/Stim/FN_012_g.png"",""time"":4174},{""stimulus"":""blank"",""time"":4494}]","[{""key_press"":32,""rt"":2425,""stimulus"":""blank""}]","321","https://ziweizhang0304.github.io/Stats_learning_trig/img/Stim/FN_022_g.png","post_TD","18","2104","2425","fast","6","3","5d9c67b131544d00101daef1","","","","","",""
"","image-keyboard-response","49","438450","0.0-5.0-18.0-0.0","631","","","https://ziweizhang0304.github.io/Stats_learning_trig/img/Stim/FN_002_g.png","13","","","","","","","","","","","","","","","","","",""
"","animation","50","443038","0.0-5.0-18.0-1.0","","","","","","[{""stimulus"":""https://ziweizhang0304.github.io/Stats_learning_trig/img/Stim/FN_016_g.png"",""time"":350},{""stimulus"":""blank"",""time"":668},{""stimulus"":""https://ziweizhang0304.github.io/Stats_learning_trig/img/Stim/FN_011_g.png"",""time"":709},{""stimulus"":""blank"",""time"":1028},{""stimulus"":""https://ziweizhang0304.github.io/Stats_learning_trig/img/Stim/FN_020_g.png"",""time"":1069},{""stimulus"":""blank"",""time"":1388},{""stimulus"":""https://ziweizhang0304.github.io/Stats_learning_trig/img/Stim/FN_001_g.png"",""time"":1429},{""stimulus"":""blank"",""time"":1749},{""stimulus"":""https://ziweizhang0304.github.io/Stats_learning_trig/img/Stim/FN_002_g.png"",""time"":1789},{""stimulus"":""blank"",""time"":2109},{""stimulus"":""https://ziweizhang0304.github.io/Stats_learning_trig/img/Stim/FN_007_g.png"",""time"":2129},{""stimulus"":""blank"",""time"":2449},{""stimulus"":""https://ziweizhang0304.github.io/Stats_learning_trig/img/Stim/FN_022_g.png"",""time"":2485},{""stimulus"":""blank"",""time"":2809},{""stimulus"":""https://ziweizhang0304.github.io/Stats_learning_trig/img/Stim/FN_008_g.png"",""time"":2829},{""stimulus"":""blank"",""time"":3129},{""stimulus"":""https://ziweizhang0304.github.io/Stats_learning_trig/img/Stim/FN_009_g.png"",""time"":3170},{""stimulus"":""blank"",""time"":3489},{""stimulus"":""https://ziweizhang0304.github.io/Stats_learning_trig/img/Stim/FN_010_g.png"",""time"":3529},{""stimulus"":""blank"",""time"":3848},{""stimulus"":""https://ziweizhang0304.github.io/Stats_learning_trig/img/Stim/FN_014_g.png"",""time"":3870},{""stimulus"":""blank"",""time"":4189},{""stimulus"":""https://ziweizhang0304.github.io/Stats_learning_trig/img/Stim/FN_012_g.png"",""time"":4229},{""stimulus"":""blank"",""time"":4548}]","[{""key_press"":32,""rt"":2151,""stimulus"":""https://ziweizhang0304.github.io/Stats_learning_trig/img/Stim/FN_007_g.png""}]","362","https://ziweizhang0304.github.io/Stats_learning_trig/img/Stim/FN_002_g.png","post_TD","19","1789","2151","fast","5","1","5d9c67b131544d00101daef1","","","","","",""
"","image-keyboard-response","51","460606","0.0-5.0-19.0-0.0","17566","","","https://ziweizhang0304.github.io/Stats_learning_trig/img/Stim/FN_002_g.png","13","","","","","","","","","","","","","","","","","",""
"","animation","52","465180","0.0-5.0-19.0-1.0","","","","","","[{""stimulus"":""https://ziweizhang0304.github.io/Stats_learning_trig/img/Stim/FN_020_g.png"",""time"":354},{""stimulus"":""blank"",""time"":654},{""stimulus"":""https://ziweizhang0304.github.io/Stats_learning_trig/img/Stim/FN_001_g.png"",""time"":714},{""stimulus"":""blank"",""time"":1019},{""stimulus"":""https://ziweizhang0304.github.io/Stats_learning_trig/img/Stim/FN_012_g.png"",""time"":1058},{""stimulus"":""blank"",""time"":1358},{""stimulus"":""https://ziweizhang0304.github.io/Stats_learning_trig/img/Stim/FN_014_g.png"",""time"":1412},{""stimulus"":""blank"",""time"":1723},{""stimulus"":""https://ziweizhang0304.github.io/Stats_learning_trig/img/Stim/FN_008_g.png"",""time"":1764},{""stimulus"":""blank"",""time"":2064},{""stimulus"":""https://ziweizhang0304.github.io/Stats_learning_trig/img/Stim/FN_009_g.png"",""time"":2104},{""stimulus"":""blank"",""time"":2424},{""stimulus"":""https://ziweizhang0304.github.io/Stats_learning_trig/img/Stim/FN_002_g.png"",""time"":2464},{""stimulus"":""blank"",""time"":2764},{""stimulus"":""https://ziweizhang0304.github.io/Stats_learning_trig/img/Stim/FN_007_g.png"",""time"":2825},{""stimulus"":""blank"",""time"":3143},{""stimulus"":""https://ziweizhang0304.github.io/Stats_learning_trig/img/Stim/FN_022_g.png"",""time"":3183},{""stimulus"":""blank"",""time"":3493},{""stimulus"":""https://ziweizhang0304.github.io/Stats_learning_trig/img/Stim/FN_010_g.png"",""time"":3523},{""stimulus"":""blank"",""time"":3823},{""stimulus"":""https://ziweizhang0304.github.io/Stats_learning_trig/img/Stim/FN_011_g.png"",""time"":3884},{""stimulus"":""blank"",""time"":4204},{""stimulus"":""https://ziweizhang0304.github.io/Stats_learning_trig/img/Stim/FN_016_g.png"",""time"":4224},{""stimulus"":""blank"",""time"":4534}]","[{""key_press"":32,""rt"":2802,""stimulus"":""blank""}]","338","https://ziweizhang0304.github.io/Stats_learning_trig/img/Stim/FN_002_g.png","post_TD","20","2464","2802","fast","7","1","5d9c67b131544d00101daef1","","","","","",""
"","image-keyboard-response","53","466133","0.0-5.0-20.0-0.0","952","","","https://ziweizhang0304.github.io/Stats_learning_trig/img/Stim/FN_003_g.png","13","","","","","","","","","","","","","","","","","",""
"","animation","54","470669","0.0-5.0-20.0-1.0","","","","","","[{""stimulus"":""https://ziweizhang0304.github.io/Stats_learning_trig/img/Stim/FN_011_g.png"",""time"":357},{""stimulus"":""blank"",""time"":667},{""stimulus"":""https://ziweizhang0304.github.io/Stats_learning_trig/img/Stim/FN_014_g.png"",""time"":708},{""stimulus"":""blank"",""time"":1026},{""stimulus"":""https://ziweizhang0304.github.io/Stats_learning_trig/img/Stim/FN_016_g.png"",""time"":1047},{""stimulus"":""blank"",""time"":1366},{""stimulus"":""https://ziweizhang0304.github.io/Stats_learning_trig/img/Stim/FN_003_g.png"",""time"":1407},{""stimulus"":""blank"",""time"":1727},{""stimulus"":""https://ziweizhang0304.github.io/Stats_learning_trig/img/Stim/FN_005_g.png"",""time"":1747},{""stimulus"":""blank"",""time"":2067},{""stimulus"":""https://ziweizhang0304.github.io/Stats_learning_trig/img/Stim/FN_015_g.png"",""time"":2087},{""stimulus"":""blank"",""time"":2405},{""stimulus"":""https://ziweizhang0304.github.io/Stats_learning_trig/img/Stim/FN_008_g.png"",""time"":2437},{""stimulus"":""blank"",""time"":2756},{""stimulus"":""https://ziweizhang0304.github.io/Stats_learning_trig/img/Stim/FN_020_g.png"",""time"":2796},{""stimulus"":""blank"",""time"":3097},{""stimulus"":""https://ziweizhang0304.github.io/Stats_learning_trig/img/Stim/FN_009_g.png"",""time"":3137},{""stimulus"":""blank"",""time"":3457},{""stimulus"":""https://ziweizhang0304.github.io/Stats_learning_trig/img/Stim/FN_010_g.png"",""time"":3477},{""stimulus"":""blank"",""time"":3797},{""stimulus"":""https://ziweizhang0304.github.io/Stats_learning_trig/img/Stim/FN_001_g.png"",""time"":3837},{""stimulus"":""blank"",""time"":4156},{""stimulus"":""https://ziweizhang0304.github.io/Stats_learning_trig/img/Stim/FN_012_g.png"",""time"":4178},{""stimulus"":""blank"",""time"":4496}]","[{""key_press"":32,""rt"":1764,""stimulus"":""https://ziweizhang0304.github.io/Stats_learning_trig/img/Stim/FN_005_g.png""}]","357","https://ziweizhang0304.github.io/Stats_learning_trig/img/Stim/FN_003_g.png","post_TD","21","1407","1764","slow","4","1","5d9c67b131544d00101daef1","","","","","",""
"","image-keyboard-response","55","471384","0.0-5.0-21.0-0.0","714","","","https://ziweizhang0304.github.io/Stats_learning_trig/img/Stim/FN_007_g.png","13","","","","","","","","","","","","","","","","","",""
"","animation","56","475900","0.0-5.0-21.0-1.0","","","","","","[{""stimulus"":""https://ziweizhang0304.github.io/Stats_learning_trig/img/Stim/FN_020_g.png"",""time"":346},{""stimulus"":""blank"",""time"":666},{""stimulus"":""https://ziweizhang0304.github.io/Stats_learning_trig/img/Stim/FN_001_g.png"",""time"":706},{""stimulus"":""blank"",""time"":1026},{""stimulus"":""https://ziweizhang0304.github.io/Stats_learning_trig/img/Stim/FN_012_g.png"",""time"":1046},{""stimulus"":""blank"",""time"":1365},{""stimulus"":""https://ziweizhang0304.github.io/Stats_learning_trig/img/Stim/FN_014_g.png"",""time"":1387},{""stimulus"":""blank"",""time"":1706},{""stimulus"":""https://ziweizhang0304.github.io/Stats_learning_trig/img/Stim/FN_008_g.png"",""time"":1726},{""stimulus"":""blank"",""time"":2046},{""stimulus"":""https://ziweizhang0304.github.io/Stats_learning_trig/img/Stim/FN_009_g.png"",""time"":2086},{""stimulus"":""blank"",""time"":2405},{""stimulus"":""https://ziweizhang0304.github.io/Stats_learning_trig/img/Stim/FN_002_g.png"",""time"":2445},{""stimulus"":""blank"",""time"":2765},{""stimulus"":""https://ziweizhang0304.github.io/Stats_learning_trig/img/Stim/FN_007_g.png"",""time"":2786},{""stimulus"":""blank"",""time"":3096},{""stimulus"":""https://ziweizhang0304.github.io/Stats_learning_trig/img/Stim/FN_022_g.png"",""time"":3135},{""stimulus"":""blank"",""time"":3435},{""stimulus"":""https://ziweizhang0304.github.io/Stats_learning_trig/img/Stim/FN_010_g.png"",""time"":3476},{""stimulus"":""blank"",""time"":3795},{""stimulus"":""https://ziweizhang0304.github.io/Stats_learning_trig/img/Stim/FN_011_g.png"",""time"":3817},{""stimulus"":""blank"",""time"":4135},{""stimulus"":""https://ziweizhang0304.github.io/Stats_learning_trig/img/Stim/FN_016_g.png"",""time"":4156},{""stimulus"":""blank"",""time"":4475}]","[{""key_press"":32,""rt"":2067,""stimulus"":""blank""},{""key_press"":32,""rt"":3124,""stimulus"":""blank""}]","338","https://ziweizhang0304.github.io/Stats_learning_trig/img/Stim/FN_007_g.png","post_TD","22","2786","3124","fast","8","2","5d9c67b131544d00101daef1","","","","","",""
"","image-keyboard-response","57","476632","0.0-5.0-22.0-0.0","732","","","https://ziweizhang0304.github.io/Stats_learning_trig/img/Stim/FN_015_g.png","13","","","","","","","","","","","","","","","","","",""
"","animation","58","481170","0.0-5.0-22.0-1.0","","","","","","[{""stimulus"":""https://ziweizhang0304.github.io/Stats_learning_trig/img/Stim/FN_009_g.png"",""time"":358},{""stimulus"":""blank"",""time"":658},{""stimulus"":""https://ziweizhang0304.github.io/Stats_learning_trig/img/Stim/FN_016_g.png"",""time"":698},{""stimulus"":""blank"",""time"":1018},{""stimulus"":""https://ziweizhang0304.github.io/Stats_learning_trig/img/Stim/FN_020_g.png"",""time"":1058},{""stimulus"":""blank"",""time"":1377},{""stimulus"":""https://ziweizhang0304.github.io/Stats_learning_trig/img/Stim/FN_011_g.png"",""time"":1398},{""stimulus"":""blank"",""time"":1718},{""stimulus"":""https://ziweizhang0304.github.io/Stats_learning_trig/img/Stim/FN_010_g.png"",""time"":1758},{""stimulus"":""blank"",""time"":2078},{""stimulus"":""https://ziweizhang0304.github.io/Stats_learning_trig/img/Stim/FN_012_g.png"",""time"":2098},{""stimulus"":""blank"",""time"":2417},{""stimulus"":""https://ziweizhang0304.github.io/Stats_learning_trig/img/Stim/FN_003_g.png"",""time"":2458},{""stimulus"":""blank"",""time"":2778},{""stimulus"":""https://ziweizhang0304.github.io/Stats_learning_trig/img/Stim/FN_005_g.png"",""time"":2798},{""stimulus"":""blank"",""time"":3118},{""stimulus"":""https://ziweizhang0304.github.io/Stats_learning_trig/img/Stim/FN_015_g.png"",""time"":3158},{""stimulus"":""blank"",""time"":3477},{""stimulus"":""https://ziweizhang0304.github.io/Stats_learning_trig/img/Stim/FN_008_g.png"",""time"":3498},{""stimulus"":""blank"",""time"":3818},{""stimulus"":""https://ziweizhang0304.github.io/Stats_learning_trig/img/Stim/FN_014_g.png"",""time"":3838},{""stimulus"":""blank"",""time"":4157},{""stimulus"":""https://ziweizhang0304.github.io/Stats_learning_trig/img/Stim/FN_001_g.png"",""time"":4198},{""stimulus"":""blank"",""time"":4498}]","[{""key_press"":32,""rt"":3593,""stimulus"":""https://ziweizhang0304.github.io/Stats_learning_trig/img/Stim/FN_008_g.png""}]","435","https://ziweizhang0304.github.io/Stats_learning_trig/img/Stim/FN_015_g.png","post_TD","23","3158","3593","slow","9","3","5d9c67b131544d00101daef1","","","","","",""
"","image-keyboard-response","59","482335","0.0-5.0-23.0-0.0","1164","","","https://ziweizhang0304.github.io/Stats_learning_trig/img/Stim/FN_005_g.png","13","","","","","","","","","","","","","","","","","",""
"","animation","60","486861","0.0-5.0-23.0-1.0","","","","","","[{""stimulus"":""https://ziweizhang0304.github.io/Stats_learning_trig/img/Stim/FN_008_g.png"",""time"":355},{""stimulus"":""blank"",""time"":675},{""stimulus"":""https://ziweizhang0304.github.io/Stats_learning_trig/img/Stim/FN_009_g.png"",""time"":694},{""stimulus"":""blank"",""time"":1014},{""stimulus"":""https://ziweizhang0304.github.io/Stats_learning_trig/img/Stim/FN_020_g.png"",""time"":1049},{""stimulus"":""blank"",""time"":1365},{""stimulus"":""https://ziweizhang0304.github.io/Stats_learning_trig/img/Stim/FN_016_g.png"",""time"":1405},{""stimulus"":""blank"",""time"":1724},{""stimulus"":""https://ziweizhang0304.github.io/Stats_learning_trig/img/Stim/FN_012_g.png"",""time"":1766},{""stimulus"":""blank"",""time"":2085},{""stimulus"":""https://ziweizhang0304.github.io/Stats_learning_trig/img/Stim/FN_003_g.png"",""time"":2105},{""stimulus"":""blank"",""time"":2425},{""stimulus"":""https://ziweizhang0304.github.io/Stats_learning_trig/img/Stim/FN_005_g.png"",""time"":2445},{""stimulus"":""blank"",""time"":2765},{""stimulus"":""https://ziweizhang0304.github.io/Stats_learning_trig/img/Stim/FN_015_g.png"",""time"":2785},{""stimulus"":""blank"",""time"":3105},{""stimulus"":""https://ziweizhang0304.github.io/Stats_learning_trig/img/Stim/FN_010_g.png"",""time"":3144},{""stimulus"":""blank"",""time"":3445},{""stimulus"":""https://ziweizhang0304.github.io/Stats_learning_trig/img/Stim/FN_014_g.png"",""time"":3485},{""stimulus"":""blank"",""time"":3785},{""stimulus"":""https://ziweizhang0304.github.io/Stats_learning_trig/img/Stim/FN_011_g.png"",""time"":3825},{""stimulus"":""blank"",""time"":4144},{""stimulus"":""https://ziweizhang0304.github.io/Stats_learning_trig/img/Stim/FN_001_g.png"",""time"":4184},{""stimulus"":""blank"",""time"":4485}]","[{""key_press"":32,""rt"":2827,""stimulus"":""https://ziweizhang0304.github.io/Stats_learning_trig/img/Stim/FN_015_g.png""}]","382","https://ziweizhang0304.github.io/Stats_learning_trig/img/Stim/FN_005_g.png","post_TD","24","2445","2827","slow","7","2","5d9c67b131544d00101daef1","44e6b","","","","",""
"","survey-text","61","507266","0.0-6.0","20372","","","","","","","","","","","","","","","","","","{""Q0"":""I just tried to concentrate as much as possible, I didn't have any strategy to speak of.""}","","","",""
"","survey-text","62","512191","0.0-7.0","4920","","","","","","","","","","","","","","","","","","{""[object Object]"":""no""}","","","",""
"","instructions","63","590964","0.0-8.0","78768","","[{""page_index"":0,""viewing_time"":78768}]","","","","","","","","","","","","","","","","","","","",""
"","free-sort","64","602272","0.0-9.0","11306","","","","","","","","","post_drag","","","","fast","","","","","","[{""src"":""https://ziweizhang0304.github.io/Stats_learning_trig/img/Stim/FN_007_g.png"",""x"":475,""y"":0},{""src"":""https://ziweizhang0304.github.io/Stats_learning_trig/img/Stim/FN_002_g.png"",""x"":-225,""y"":50},{""src"":""https://ziweizhang0304.github.io/Stats_learning_trig/img/Stim/FN_022_g.png"",""x"":475,""y"":50}]","[{""src"":""https://ziweizhang0304.github.io/Stats_learning_trig/img/Stim/FN_007_g.png"",""x"":-17,""y"":38},{""src"":""https://ziweizhang0304.github.io/Stats_learning_trig/img/Stim/FN_022_g.png"",""x"":106,""y"":37},{""src"":""https://ziweizhang0304.github.io/Stats_learning_trig/img/Stim/FN_002_g.png"",""x"":229,""y"":44}]","[{""src"":""https://ziweizhang0304.github.io/Stats_learning_trig/img/Stim/FN_007_g.png"",""x"":-17,""y"":38},{""src"":""https://ziweizhang0304.github.io/Stats_learning_trig/img/Stim/FN_002_g.png"",""x"":229,""y"":44},{""src"":""https://ziweizhang0304.github.io/Stats_learning_trig/img/Stim/FN_022_g.png"",""x"":106,""y"":37}]",""
"","free-sort","65","608753","0.0-10.0","6479","","","","","","","","","post_drag","","","","slow","","","","","","[{""src"":""https://ziweizhang0304.github.io/Stats_learning_trig/img/Stim/FN_015_g.png"",""x"":475,""y"":0},{""src"":""https://ziweizhang0304.github.io/Stats_learning_trig/img/Stim/FN_005_g.png"",""x"":-225,""y"":50},{""src"":""https://ziweizhang0304.github.io/Stats_learning_trig/img/Stim/FN_003_g.png"",""x"":475,""y"":50}]","[{""src"":""https://ziweizhang0304.github.io/Stats_learning_trig/img/Stim/FN_015_g.png"",""x"":15,""y"":36},{""src"":""https://ziweizhang0304.github.io/Stats_learning_trig/img/Stim/FN_003_g.png"",""x"":78,""y"":19},{""src"":""https://ziweizhang0304.github.io/Stats_learning_trig/img/Stim/FN_005_g.png"",""x"":179,""y"":35}]","[{""src"":""https://ziweizhang0304.github.io/Stats_learning_trig/img/Stim/FN_015_g.png"",""x"":15,""y"":36},{""src"":""https://ziweizhang0304.github.io/Stats_learning_trig/img/Stim/FN_005_g.png"",""x"":179,""y"":35},{""src"":""https://ziweizhang0304.github.io/Stats_learning_trig/img/Stim/FN_003_g.png"",""x"":78,""y"":19}]",""
"","survey-multi-choice","66","617728","0.0-11.0","8972","","","","","","","","","","","","","","","","5d9c67b131544d00101daef1","","{""awareness"":""Not sure"",""attention_check"":""Press SPACEBAR to a target""}","","","","[0,1]"
