"success","trial_type","trial_index","time_elapsed","internal_node_id","rt","url","view_history","stimulus","key_press","animation_sequence","response","TD_rt","TD_target","test_part","TD_trial_number","onset","offset","attention_state","TD_target_position","TD_within_triplet_counter","participant","yoke_participant","responses","init_locations","moves","final_locations","question_order"
"true","fullscreen","0","2326","0.0-0.0","","","","","","","","","","","","","","","","","","","","","","",""
"","external-html","1","6783","0.0-1.0","4274.400000095367","https://ziweizhang0304.github.io/Stats_learning_trig/content/consent.html","","","","","","","","","","","","","","","","","","","","",""
"","instructions","2","19211","0.0-2.0","12422.799999952316","","[{""page_index"":0,""viewing_time"":1437.7000000476837},{""page_index"":1,""viewing_time"":5123.5},{""page_index"":2,""viewing_time"":4663.799999952316},{""page_index"":3,""viewing_time"":1195.8999998569489}]","","","","","","","","","","","","","","","","","","","",""
"","image-keyboard-response","3","22758","0.0-3.0-0.0-0.0","3544.5","","","https://ziweizhang0304.github.io/Stats_learning_trig/img/Stim/FN_009_g.png","13","","","","","","","","","","","","","","","","","",""
"","animation","4","27184","0.0-3.0-0.0-1.0","","","","","","[{""stimulus"":""https://ziweizhang0304.github.io/Stats_learning_trig/img/Stim/FN_025_g.png"",""time"":363.39999985694885},{""stimulus"":""blank"",""time"":674.5},{""stimulus"":""https://ziweizhang0304.github.io/Stats_learning_trig/img/Stim/FN_023_g.png"",""time"":694},{""stimulus"":""blank"",""time"":997.6999998092651},{""stimulus"":""https://ziweizhang0304.github.io/Stats_learning_trig/img/Stim/FN_001_g.png"",""time"":1022.1999998092651},{""stimulus"":""blank"",""time"":1334.6999998092651},{""stimulus"":""https://ziweizhang0304.github.io/Stats_learning_trig/img/Stim/FN_026_g.png"",""time"":1366.8999998569489},{""stimulus"":""blank"",""time"":1682.8999998569489},{""stimulus"":""https://ziweizhang0304.github.io/Stats_learning_trig/img/Stim/FN_018_g.png"",""time"":1701.2999999523163},{""stimulus"":""blank"",""time"":2009.3999998569489},{""stimulus"":""https://ziweizhang0304.github.io/Stats_learning_trig/img/Stim/FN_005_g.png"",""time"":2042.0999999046326},{""stimulus"":""blank"",""time"":2347.7999999523163},{""stimulus"":""https://ziweizhang0304.github.io/Stats_learning_trig/img/Stim/FN_009_g.png"",""time"":2381.5999999046326},{""stimulus"":""blank"",""time"":2700.2999999523163},{""stimulus"":""https://ziweizhang0304.github.io/Stats_learning_trig/img/Stim/FN_011_g.png"",""time"":2721.2999999523163},{""stimulus"":""blank"",""time"":3023.5999999046326},{""stimulus"":""https://ziweizhang0304.github.io/Stats_learning_trig/img/Stim/FN_022_g.png"",""time"":3071.5},{""stimulus"":""blank"",""time"":3375.0999999046326},{""stimulus"":""https://ziweizhang0304.github.io/Stats_learning_trig/img/Stim/FN_012_g.png"",""time"":3402.2999999523163},{""stimulus"":""blank"",""time"":3711.199999809265},{""stimulus"":""https://ziweizhang0304.github.io/Stats_learning_trig/img/Stim/FN_014_g.png"",""time"":3741.5999999046326},{""stimulus"":""blank"",""time"":4059},{""stimulus"":""https://ziweizhang0304.github.io/Stats_learning_trig/img/Stim/FN_002_g.png"",""time"":4090.199999809265},{""stimulus"":""blank"",""time"":4390.699999809265}]","[{""key_press"":32,""rt"":2769.4000000953674,""stimulus"":""https://ziweizhang0304.github.io/Stats_learning_trig/img/Stim/FN_011_g.png""}]","387.80000019073486","https://ziweizhang0304.github.io/Stats_learning_trig/img/Stim/FN_009_g.png","post_prac","","","","","","","","","","","","",""
"","html-keyboard-response","5","30105","0.0-3.0-0.0-2.0","2917.2999999523163","","","<p>Your reaction time for this trial was 387.8 ms.</p><p>Remember that you should only press the SPACEBAR when you see the shape presented at the beginning of the trial. </b> </p><p>Press enter to move on.</p>","13","","","","","","","","","","","","","","","","","",""
"","image-keyboard-response","6","32628","0.0-3.0-1.0-0.0","2521.7000000476837","","","https://ziweizhang0304.github.io/Stats_learning_trig/img/Stim/FN_010_g.png","13","","","","","","","","","","","","","","","","","",""
"","animation","7","37050","0.0-3.0-1.0-1.0","","","","","","[{""stimulus"":""https://ziweizhang0304.github.io/Stats_learning_trig/img/Stim/FN_002_g.png"",""time"":342.10000014305115},{""stimulus"":""blank"",""time"":651.6000001430511},{""stimulus"":""https://ziweizhang0304.github.io/Stats_learning_trig/img/Stim/FN_014_g.png"",""time"":681.6000001430511},{""stimulus"":""blank"",""time"":986.5},{""stimulus"":""https://ziweizhang0304.github.io/Stats_learning_trig/img/Stim/FN_012_g.png"",""time"":1022.2000000476837},{""stimulus"":""blank"",""time"":1333.3000001907349},{""stimulus"":""https://ziweizhang0304.github.io/Stats_learning_trig/img/Stim/FN_026_g.png"",""time"":1366.1000001430511},{""stimulus"":""blank"",""time"":1676.2000000476837},{""stimulus"":""https://ziweizhang0304.github.io/Stats_learning_trig/img/Stim/FN_020_g.png"",""time"":1701.7000000476837},{""stimulus"":""blank"",""time"":2007.6000001430511},{""stimulus"":""https://ziweizhang0304.github.io/Stats_learning_trig/img/Stim/FN_010_g.png"",""time"":2044},{""stimulus"":""blank"",""time"":2350.9000000953674},{""stimulus"":""https://ziweizhang0304.github.io/Stats_learning_trig/img/Stim/FN_007_g.png"",""time"":2380.800000190735},{""stimulus"":""blank"",""time"":2696.7000000476837},{""stimulus"":""https://ziweizhang0304.github.io/Stats_learning_trig/img/Stim/FN_011_g.png"",""time"":2720.4000000953674},{""stimulus"":""blank"",""time"":3025.2000000476837},{""stimulus"":""https://ziweizhang0304.github.io/Stats_learning_trig/img/Stim/FN_005_g.png"",""time"":3061.7000000476837},{""stimulus"":""blank"",""time"":3375.7000000476837},{""stimulus"":""https://ziweizhang0304.github.io/Stats_learning_trig/img/Stim/FN_018_g.png"",""time"":3411.7000000476837},{""stimulus"":""blank"",""time"":3729.800000190735},{""stimulus"":""https://ziweizhang0304.github.io/Stats_learning_trig/img/Stim/FN_023_g.png"",""time"":3740.9000000953674},{""stimulus"":""blank"",""time"":4058.5},{""stimulus"":""https://ziweizhang0304.github.io/Stats_learning_trig/img/Stim/FN_025_g.png"",""time"":4081.300000190735},{""stimulus"":""blank"",""time"":4390.200000047684}]","[{""key_press"":32,""rt"":2459.2000000476837,""stimulus"":""https://ziweizhang0304.github.io/Stats_learning_trig/img/Stim/FN_007_g.png""}]","415.2000000476837","https://ziweizhang0304.github.io/Stats_learning_trig/img/Stim/FN_010_g.png","post_prac","","","","","","","","","","","","",""
"","html-keyboard-response","8","40092","0.0-3.0-1.0-2.0","3037.9000000953674","","","<p>Your reaction time for this trial was 415.2 ms.</p><p>Remember that you should only press the SPACEBAR when you see the shape presented at the beginning of the trial. </b> </p><p>Press enter to move on.</p>","13","","","","","","","","","","","","","","","","","",""
"","image-keyboard-response","9","41996","0.0-3.0-2.0-0.0","1903.4000000953674","","","https://ziweizhang0304.github.io/Stats_learning_trig/img/Stim/FN_007_g.png","13","","","","","","","","","","","","","","","","","",""
"","animation","10","46418","0.0-3.0-2.0-1.0","","","","","","[{""stimulus"":""https://ziweizhang0304.github.io/Stats_learning_trig/img/Stim/FN_002_g.png"",""time"":341.89999985694885},{""stimulus"":""blank"",""time"":660.6999998092651},{""stimulus"":""https://ziweizhang0304.github.io/Stats_learning_trig/img/Stim/FN_014_g.png"",""time"":681.8999998569489},{""stimulus"":""blank"",""time"":995.8999998569489},{""stimulus"":""https://ziweizhang0304.github.io/Stats_learning_trig/img/Stim/FN_012_g.png"",""time"":1022.5},{""stimulus"":""blank"",""time"":1335.5},{""stimulus"":""https://ziweizhang0304.github.io/Stats_learning_trig/img/Stim/FN_026_g.png"",""time"":1361.1999998092651},{""stimulus"":""blank"",""time"":1669.2999999523163},{""stimulus"":""https://ziweizhang0304.github.io/Stats_learning_trig/img/Stim/FN_020_g.png"",""time"":1704.7999999523163},{""stimulus"":""blank"",""time"":2014.8999998569489},{""stimulus"":""https://ziweizhang0304.github.io/Stats_learning_trig/img/Stim/FN_010_g.png"",""time"":2041.1999998092651},{""stimulus"":""blank"",""time"":2346.7999999523163},{""stimulus"":""https://ziweizhang0304.github.io/Stats_learning_trig/img/Stim/FN_007_g.png"",""time"":2381.899999856949},{""stimulus"":""blank"",""time"":2699.899999856949},{""stimulus"":""https://ziweizhang0304.github.io/Stats_learning_trig/img/Stim/FN_011_g.png"",""time"":2722.0999999046326},{""stimulus"":""blank"",""time"":3034.0999999046326},{""stimulus"":""https://ziweizhang0304.github.io/Stats_learning_trig/img/Stim/FN_005_g.png"",""time"":3070.2999999523163},{""stimulus"":""blank"",""time"":3389.5999999046326},{""stimulus"":""https://ziweizhang0304.github.io/Stats_learning_trig/img/Stim/FN_018_g.png"",""time"":3401.399999856949},{""stimulus"":""blank"",""time"":3710.2999999523163},{""stimulus"":""https://ziweizhang0304.github.io/Stats_learning_trig/img/Stim/FN_023_g.png"",""time"":3741.199999809265},{""stimulus"":""blank"",""time"":4044.2999999523163},{""stimulus"":""https://ziweizhang0304.github.io/Stats_learning_trig/img/Stim/FN_025_g.png"",""time"":4082.2999999523163},{""stimulus"":""blank"",""time"":4397.299999952316}]","[{""key_press"":32,""rt"":2834.5,""stimulus"":""https://ziweizhang0304.github.io/Stats_learning_trig/img/Stim/FN_011_g.png""}]","452.60000014305115","https://ziweizhang0304.github.io/Stats_learning_trig/img/Stim/FN_007_g.png","post_prac","","","","","","","","","","","","",""
"","html-keyboard-response","11","48136","0.0-3.0-2.0-2.0","1715.2999999523163","","","<p>Your reaction time for this trial was 452.6 ms.</p><p>Remember that you should only press the SPACEBAR when you see the shape presented at the beginning of the trial. </b> </p><p>Press enter to move on.</p>","13","","","","","","","","","","","","","","","","","",""
"","instructions","12","49277","0.0-4.0","1140.9000000953674","","[{""page_index"":0,""viewing_time"":1140.6000001430511}]","","","","","","","","","","","","","","","","","","","",""
"","image-keyboard-response","13","51874","0.0-5.0-0.0-0.0","2595.2000000476837","","","https://ziweizhang0304.github.io/Stats_learning_trig/img/Stim/FN_020_g.png","13","","","","","","","","","","","","","","","","","",""
"","animation","14","56297","0.0-5.0-0.0-1.0","","","","","","[{""stimulus"":""https://ziweizhang0304.github.io/Stats_learning_trig/img/Stim/FN_011_g.png"",""time"":344.5},{""stimulus"":""blank"",""time"":646.2999999523163},{""stimulus"":""https://ziweizhang0304.github.io/Stats_learning_trig/img/Stim/FN_018_g.png"",""time"":681.8999998569489},{""stimulus"":""blank"",""time"":982.5999999046326},{""stimulus"":""https://ziweizhang0304.github.io/Stats_learning_trig/img/Stim/FN_002_g.png"",""time"":1030.2999999523163},{""stimulus"":""blank"",""time"":1338.5999999046326},{""stimulus"":""https://ziweizhang0304.github.io/Stats_learning_trig/img/Stim/FN_026_g.png"",""time"":1361.8999998569489},{""stimulus"":""blank"",""time"":1677.2999999523163},{""stimulus"":""https://ziweizhang0304.github.io/Stats_learning_trig/img/Stim/FN_025_g.png"",""time"":1701.7999999523163},{""stimulus"":""blank"",""time"":2012},{""stimulus"":""https://ziweizhang0304.github.io/Stats_learning_trig/img/Stim/FN_020_g.png"",""time"":2041.1999998092651},{""stimulus"":""blank"",""time"":2349.2999999523163},{""stimulus"":""https://ziweizhang0304.github.io/Stats_learning_trig/img/Stim/FN_010_g.png"",""time"":2381},{""stimulus"":""blank"",""time"":2704.5999999046326},{""stimulus"":""https://ziweizhang0304.github.io/Stats_learning_trig/img/Stim/FN_007_g.png"",""time"":2722.399999856949},{""stimulus"":""blank"",""time"":3036},{""stimulus"":""https://ziweizhang0304.github.io/Stats_learning_trig/img/Stim/FN_005_g.png"",""time"":3061.899999856949},{""stimulus"":""blank"",""time"":3371.5},{""stimulus"":""https://ziweizhang0304.github.io/Stats_learning_trig/img/Stim/FN_023_g.png"",""time"":3403.399999856949},{""stimulus"":""blank"",""time"":3715.699999809265},{""stimulus"":""https://ziweizhang0304.github.io/Stats_learning_trig/img/Stim/FN_012_g.png"",""time"":3741.899999856949},{""stimulus"":""blank"",""time"":4057.699999809265},{""stimulus"":""https://ziweizhang0304.github.io/Stats_learning_trig/img/Stim/FN_014_g.png"",""time"":4081.2999999523163},{""stimulus"":""blank"",""time"":4392.399999856949}]","[{""key_press"":32,""rt"":2532.7999999523163,""stimulus"":""https://ziweizhang0304.github.io/Stats_learning_trig/img/Stim/FN_010_g.png""}]","491.60000014305115","https://ziweizhang0304.github.io/Stats_learning_trig/img/Stim/FN_020_g.png","post_TD","1","2041.1999998092651","2532.7999999523163","slow","6","1","62029a55ef1cb18a1337c61a","","","","","",""
"","image-keyboard-response","15","57870","0.0-5.0-1.0-0.0","1570.2000000476837","","","https://ziweizhang0304.github.io/Stats_learning_trig/img/Stim/FN_009_g.png","13","","","","","","","","","","","","","","","","","",""
"","animation","16","62297","0.0-5.0-1.0-1.0","","","","","","[{""stimulus"":""https://ziweizhang0304.github.io/Stats_learning_trig/img/Stim/FN_014_g.png"",""time"":349.40000009536743},{""stimulus"":""blank"",""time"":659.7000000476837},{""stimulus"":""https://ziweizhang0304.github.io/Stats_learning_trig/img/Stim/FN_002_g.png"",""time"":682},{""stimulus"":""blank"",""time"":987.5},{""stimulus"":""https://ziweizhang0304.github.io/Stats_learning_trig/img/Stim/FN_025_g.png"",""time"":1023.5999999046326},{""stimulus"":""blank"",""time"":1325.2999999523163},{""stimulus"":""https://ziweizhang0304.github.io/Stats_learning_trig/img/Stim/FN_023_g.png"",""time"":1361.4000000953674},{""stimulus"":""blank"",""time"":1671.5999999046326},{""stimulus"":""https://ziweizhang0304.github.io/Stats_learning_trig/img/Stim/FN_026_g.png"",""time"":1707.9000000953674},{""stimulus"":""blank"",""time"":2011},{""stimulus"":""https://ziweizhang0304.github.io/Stats_learning_trig/img/Stim/FN_005_g.png"",""time"":2041.7999999523163},{""stimulus"":""blank"",""time"":2343.5999999046326},{""stimulus"":""https://ziweizhang0304.github.io/Stats_learning_trig/img/Stim/FN_001_g.png"",""time"":2397.0999999046326},{""stimulus"":""blank"",""time"":2702.2000000476837},{""stimulus"":""https://ziweizhang0304.github.io/Stats_learning_trig/img/Stim/FN_009_g.png"",""time"":2721.5999999046326},{""stimulus"":""blank"",""time"":3032.5},{""stimulus"":""https://ziweizhang0304.github.io/Stats_learning_trig/img/Stim/FN_022_g.png"",""time"":3061.0999999046326},{""stimulus"":""blank"",""time"":3368},{""stimulus"":""https://ziweizhang0304.github.io/Stats_learning_trig/img/Stim/FN_011_g.png"",""time"":3404.5},{""stimulus"":""blank"",""time"":3714.0999999046326},{""stimulus"":""https://ziweizhang0304.github.io/Stats_learning_trig/img/Stim/FN_018_g.png"",""time"":3741.2999999523163},{""stimulus"":""blank"",""time"":4042.9000000953674},{""stimulus"":""https://ziweizhang0304.github.io/Stats_learning_trig/img/Stim/FN_012_g.png"",""time"":4089.9000000953674},{""stimulus"":""blank"",""time"":4395}]","[{""key_press"":32,""rt"":2703,""stimulus"":""blank""}]","NaN","https://ziweizhang0304.github.io/Stats_learning_trig/img/Stim/FN_009_g.png","post_TD","2","2721.5999999046326","","fast","8","2","62029a55ef1cb18a1337c61a","","","","","",""
"","image-keyboard-response","17","63749","0.0-5.0-2.0-0.0","1448.7999999523163","","","https://ziweizhang0304.github.io/Stats_learning_trig/img/Stim/FN_010_g.png","13","","","","","","","","","","","","","","","","","",""
"","animation","18","68170","0.0-5.0-2.0-1.0","","","","","","[{""stimulus"":""https://ziweizhang0304.github.io/Stats_learning_trig/img/Stim/FN_026_g.png"",""time"":357.2999999523163},{""stimulus"":""blank"",""time"":668.2999999523163},{""stimulus"":""https://ziweizhang0304.github.io/Stats_learning_trig/img/Stim/FN_025_g.png"",""time"":682.7000000476837},{""stimulus"":""blank"",""time"":987.8999998569489},{""stimulus"":""https://ziweizhang0304.github.io/Stats_learning_trig/img/Stim/FN_012_g.png"",""time"":1023.7999999523163},{""stimulus"":""blank"",""time"":1336},{""stimulus"":""https://ziweizhang0304.github.io/Stats_learning_trig/img/Stim/FN_020_g.png"",""time"":1361.5999999046326},{""stimulus"":""blank"",""time"":1675.2000000476837},{""stimulus"":""https://ziweizhang0304.github.io/Stats_learning_trig/img/Stim/FN_010_g.png"",""time"":1701.5999999046326},{""stimulus"":""blank"",""time"":2010.3999998569489},{""stimulus"":""https://ziweizhang0304.github.io/Stats_learning_trig/img/Stim/FN_007_g.png"",""time"":2042.5},{""stimulus"":""blank"",""time"":2347},{""stimulus"":""https://ziweizhang0304.github.io/Stats_learning_trig/img/Stim/FN_011_g.png"",""time"":2383.5},{""stimulus"":""blank"",""time"":2696.399999856949},{""stimulus"":""https://ziweizhang0304.github.io/Stats_learning_trig/img/Stim/FN_005_g.png"",""time"":2728.399999856949},{""stimulus"":""blank"",""time"":3030},{""stimulus"":""https://ziweizhang0304.github.io/Stats_learning_trig/img/Stim/FN_018_g.png"",""time"":3064.5999999046326},{""stimulus"":""blank"",""time"":3370.2999999523163},{""stimulus"":""https://ziweizhang0304.github.io/Stats_learning_trig/img/Stim/FN_023_g.png"",""time"":3401.7000000476837},{""stimulus"":""blank"",""time"":3706},{""stimulus"":""https://ziweizhang0304.github.io/Stats_learning_trig/img/Stim/FN_002_g.png"",""time"":3742.399999856949},{""stimulus"":""blank"",""time"":4044.0999999046326},{""stimulus"":""https://ziweizhang0304.github.io/Stats_learning_trig/img/Stim/FN_014_g.png"",""time"":4088.899999856949},{""stimulus"":""blank"",""time"":4389.700000047684}]","[{""key_press"":32,""rt"":2164.2999999523163,""stimulus"":""https://ziweizhang0304.github.io/Stats_learning_trig/img/Stim/FN_007_g.png""}]","462.7000000476837","https://ziweizhang0304.github.io/Stats_learning_trig/img/Stim/FN_010_g.png","post_TD","3","1701.5999999046326","2164.2999999523163","slow","5","2","62029a55ef1cb18a1337c61a","","","","","",""
"","image-keyboard-response","19","69289","0.0-5.0-3.0-0.0","1116.1000001430511","","","https://ziweizhang0304.github.io/Stats_learning_trig/img/Stim/FN_010_g.png","13","","","","","","","","","","","","","","","","","",""
"","animation","20","73711","0.0-5.0-3.0-1.0","","","","","","[{""stimulus"":""https://ziweizhang0304.github.io/Stats_learning_trig/img/Stim/FN_012_g.png"",""time"":343.5},{""stimulus"":""blank"",""time"":653.0999999046326},{""stimulus"":""https://ziweizhang0304.github.io/Stats_learning_trig/img/Stim/FN_023_g.png"",""time"":684.8999998569489},{""stimulus"":""blank"",""time"":995.2999999523163},{""stimulus"":""https://ziweizhang0304.github.io/Stats_learning_trig/img/Stim/FN_026_g.png"",""time"":1021.7000000476837},{""stimulus"":""blank"",""time"":1333.7000000476837},{""stimulus"":""https://ziweizhang0304.github.io/Stats_learning_trig/img/Stim/FN_005_g.png"",""time"":1361.0999999046326},{""stimulus"":""blank"",""time"":1669.3999998569489},{""stimulus"":""https://ziweizhang0304.github.io/Stats_learning_trig/img/Stim/FN_025_g.png"",""time"":1705.5},{""stimulus"":""blank"",""time"":2019.7000000476837},{""stimulus"":""https://ziweizhang0304.github.io/Stats_learning_trig/img/Stim/FN_018_g.png"",""time"":2055.399999856949},{""stimulus"":""blank"",""time"":2361.399999856949},{""stimulus"":""https://ziweizhang0304.github.io/Stats_learning_trig/img/Stim/FN_020_g.png"",""time"":2382},{""stimulus"":""blank"",""time"":2683},{""stimulus"":""https://ziweizhang0304.github.io/Stats_learning_trig/img/Stim/FN_010_g.png"",""time"":2730.5999999046326},{""stimulus"":""blank"",""time"":3046.5999999046326},{""stimulus"":""https://ziweizhang0304.github.io/Stats_learning_trig/img/Stim/FN_007_g.png"",""time"":3065.899999856949},{""stimulus"":""blank"",""time"":3378.5},{""stimulus"":""https://ziweizhang0304.github.io/Stats_learning_trig/img/Stim/FN_011_g.png"",""time"":3401.5},{""stimulus"":""blank"",""time"":3708.399999856949},{""stimulus"":""https://ziweizhang0304.github.io/Stats_learning_trig/img/Stim/FN_002_g.png"",""time"":3744.5999999046326},{""stimulus"":""blank"",""time"":4048},{""stimulus"":""https://ziweizhang0304.github.io/Stats_learning_trig/img/Stim/FN_014_g.png"",""time"":4084.399999856949},{""stimulus"":""blank"",""time"":4392.899999856949}]","[{""key_press"":32,""rt"":3143.7999999523163,""stimulus"":""https://ziweizhang0304.github.io/Stats_learning_trig/img/Stim/FN_007_g.png""}]","413.2000000476837","https://ziweizhang0304.github.io/Stats_learning_trig/img/Stim/FN_010_g.png","post_TD","4","2730.5999999046326","3143.7999999523163","slow","8","2","62029a55ef1cb18a1337c61a","","","","","",""
"","image-keyboard-response","21","74962","0.0-5.0-4.0-0.0","1248.3999998569489","","","https://ziweizhang0304.github.io/Stats_learning_trig/img/Stim/FN_022_g.png","13","","","","","","","","","","","","","","","","","",""
"","animation","22","79384","0.0-5.0-4.0-1.0","","","","","","[{""stimulus"":""https://ziweizhang0304.github.io/Stats_learning_trig/img/Stim/FN_018_g.png"",""time"":355.39999985694885},{""stimulus"":""blank"",""time"":664},{""stimulus"":""https://ziweizhang0304.github.io/Stats_learning_trig/img/Stim/FN_002_g.png"",""time"":681.5999999046326},{""stimulus"":""blank"",""time"":989.1999998092651},{""stimulus"":""https://ziweizhang0304.github.io/Stats_learning_trig/img/Stim/FN_025_g.png"",""time"":1021.6999998092651},{""stimulus"":""blank"",""time"":1331.0999999046326},{""stimulus"":""https://ziweizhang0304.github.io/Stats_learning_trig/img/Stim/FN_014_g.png"",""time"":1362.6999998092651},{""stimulus"":""blank"",""time"":1664.5999999046326},{""stimulus"":""https://ziweizhang0304.github.io/Stats_learning_trig/img/Stim/FN_001_g.png"",""time"":1701.0999999046326},{""stimulus"":""blank"",""time"":2013.0999999046326},{""stimulus"":""https://ziweizhang0304.github.io/Stats_learning_trig/img/Stim/FN_009_g.png"",""time"":2041.2999999523163},{""stimulus"":""blank"",""time"":2351.399999856949},{""stimulus"":""https://ziweizhang0304.github.io/Stats_learning_trig/img/Stim/FN_022_g.png"",""time"":2381.2999999523163},{""stimulus"":""blank"",""time"":2691.5999999046326},{""stimulus"":""https://ziweizhang0304.github.io/Stats_learning_trig/img/Stim/FN_011_g.png"",""time"":2721.399999856949},{""stimulus"":""blank"",""time"":3024.5999999046326},{""stimulus"":""https://ziweizhang0304.github.io/Stats_learning_trig/img/Stim/FN_005_g.png"",""time"":3061},{""stimulus"":""blank"",""time"":3373.699999809265},{""stimulus"":""https://ziweizhang0304.github.io/Stats_learning_trig/img/Stim/FN_023_g.png"",""time"":3401.699999809265},{""stimulus"":""blank"",""time"":3704.399999856949},{""stimulus"":""https://ziweizhang0304.github.io/Stats_learning_trig/img/Stim/FN_026_g.png"",""time"":3741},{""stimulus"":""blank"",""time"":4056},{""stimulus"":""https://ziweizhang0304.github.io/Stats_learning_trig/img/Stim/FN_012_g.png"",""time"":4081.399999856949},{""stimulus"":""blank"",""time"":4385.199999809265}]","[{""key_press"":32,""rt"":2735,""stimulus"":""https://ziweizhang0304.github.io/Stats_learning_trig/img/Stim/FN_011_g.png""}]","353.7000000476837","https://ziweizhang0304.github.io/Stats_learning_trig/img/Stim/FN_022_g.png","post_TD","5","2381.2999999523163","2735","fast","7","3","62029a55ef1cb18a1337c61a","","","","","",""
"","image-keyboard-response","23","80457","0.0-5.0-5.0-0.0","1069.4000000953674","","","https://ziweizhang0304.github.io/Stats_learning_trig/img/Stim/FN_001_g.png","13","","","","","","","","","","","","","","","","","",""
"","animation","24","84878","0.0-5.0-5.0-1.0","","","","","","[{""stimulus"":""https://ziweizhang0304.github.io/Stats_learning_trig/img/Stim/FN_002_g.png"",""time"":347.19999980926514},{""stimulus"":""blank"",""time"":648.2999999523163},{""stimulus"":""https://ziweizhang0304.github.io/Stats_learning_trig/img/Stim/FN_005_g.png"",""time"":681.2999999523163},{""stimulus"":""blank"",""time"":988.5999999046326},{""stimulus"":""https://ziweizhang0304.github.io/Stats_learning_trig/img/Stim/FN_026_g.png"",""time"":1025.0999999046326},{""stimulus"":""blank"",""time"":1328.2999999523163},{""stimulus"":""https://ziweizhang0304.github.io/Stats_learning_trig/img/Stim/FN_023_g.png"",""time"":1364.5999999046326},{""stimulus"":""blank"",""time"":1679},{""stimulus"":""https://ziweizhang0304.github.io/Stats_learning_trig/img/Stim/FN_025_g.png"",""time"":1713.3999998569489},{""stimulus"":""blank"",""time"":2027.5999999046326},{""stimulus"":""https://ziweizhang0304.github.io/Stats_learning_trig/img/Stim/FN_001_g.png"",""time"":2041.3999998569489},{""stimulus"":""blank"",""time"":2354.0999999046326},{""stimulus"":""https://ziweizhang0304.github.io/Stats_learning_trig/img/Stim/FN_009_g.png"",""time"":2381.5},{""stimulus"":""blank"",""time"":2697.899999856949},{""stimulus"":""https://ziweizhang0304.github.io/Stats_learning_trig/img/Stim/FN_022_g.png"",""time"":2721.0999999046326},{""stimulus"":""blank"",""time"":3031.5999999046326},{""stimulus"":""https://ziweizhang0304.github.io/Stats_learning_trig/img/Stim/FN_011_g.png"",""time"":3061},{""stimulus"":""blank"",""time"":3374.2999999523163},{""stimulus"":""https://ziweizhang0304.github.io/Stats_learning_trig/img/Stim/FN_018_g.png"",""time"":3401.7999999523163},{""stimulus"":""blank"",""time"":3714.399999856949},{""stimulus"":""https://ziweizhang0304.github.io/Stats_learning_trig/img/Stim/FN_012_g.png"",""time"":3741.199999809265},{""stimulus"":""blank"",""time"":4053.199999809265},{""stimulus"":""https://ziweizhang0304.github.io/Stats_learning_trig/img/Stim/FN_014_g.png"",""time"":4081.7999999523163},{""stimulus"":""blank"",""time"":4385.299999952316}]","[{""key_press"":32,""rt"":2417.300000190735,""stimulus"":""https://ziweizhang0304.github.io/Stats_learning_trig/img/Stim/FN_009_g.png""}]","375.900000333786","https://ziweizhang0304.github.io/Stats_learning_trig/img/Stim/FN_001_g.png","post_TD","6","2041.3999998569489","2417.300000190735","fast","6","1","62029a55ef1cb18a1337c61a","","","","","",""
"","image-keyboard-response","25","85955","0.0-5.0-6.0-0.0","1073.7999999523163","","","https://ziweizhang0304.github.io/Stats_learning_trig/img/Stim/FN_020_g.png","13","","","","","","","","","","","","","","","","","",""
"","animation","26","90377","0.0-5.0-6.0-1.0","","","","","","[{""stimulus"":""https://ziweizhang0304.github.io/Stats_learning_trig/img/Stim/FN_002_g.png"",""time"":347.39999985694885},{""stimulus"":""blank"",""time"":655.3999998569489},{""stimulus"":""https://ziweizhang0304.github.io/Stats_learning_trig/img/Stim/FN_014_g.png"",""time"":682},{""stimulus"":""blank"",""time"":994.2999999523163},{""stimulus"":""https://ziweizhang0304.github.io/Stats_learning_trig/img/Stim/FN_012_g.png"",""time"":1021.2000000476837},{""stimulus"":""blank"",""time"":1334.7999999523163},{""stimulus"":""https://ziweizhang0304.github.io/Stats_learning_trig/img/Stim/FN_026_g.png"",""time"":1362.2000000476837},{""stimulus"":""blank"",""time"":1670},{""stimulus"":""https://ziweizhang0304.github.io/Stats_learning_trig/img/Stim/FN_020_g.png"",""time"":1702.7999999523163},{""stimulus"":""blank"",""time"":2005.2999999523163},{""stimulus"":""https://ziweizhang0304.github.io/Stats_learning_trig/img/Stim/FN_010_g.png"",""time"":2040.5999999046326},{""stimulus"":""blank"",""time"":2342.0999999046326},{""stimulus"":""https://ziweizhang0304.github.io/Stats_learning_trig/img/Stim/FN_007_g.png"",""time"":2389.7000000476837},{""stimulus"":""blank"",""time"":2696},{""stimulus"":""https://ziweizhang0304.github.io/Stats_learning_trig/img/Stim/FN_011_g.png"",""time"":2721.7000000476837},{""stimulus"":""blank"",""time"":3029.0999999046326},{""stimulus"":""https://ziweizhang0304.github.io/Stats_learning_trig/img/Stim/FN_005_g.png"",""time"":3063.5999999046326},{""stimulus"":""blank"",""time"":3374.399999856949},{""stimulus"":""https://ziweizhang0304.github.io/Stats_learning_trig/img/Stim/FN_018_g.png"",""time"":3401.2999999523163},{""stimulus"":""blank"",""time"":3709.7000000476837},{""stimulus"":""https://ziweizhang0304.github.io/Stats_learning_trig/img/Stim/FN_023_g.png"",""time"":3742.2000000476837},{""stimulus"":""blank"",""time"":4051.399999856949},{""stimulus"":""https://ziweizhang0304.github.io/Stats_learning_trig/img/Stim/FN_025_g.png"",""time"":4081.7000000476837},{""stimulus"":""blank"",""time"":4395.399999856949}]","[{""key_press"":32,""rt"":2124.4000000953674,""stimulus"":""https://ziweizhang0304.github.io/Stats_learning_trig/img/Stim/FN_010_g.png""}]","421.60000014305115","https://ziweizhang0304.github.io/Stats_learning_trig/img/Stim/FN_020_g.png","post_TD","7","1702.7999999523163","2124.4000000953674","slow","5","1","62029a55ef1cb18a1337c61a","","","","","",""
"","image-keyboard-response","27","91166","0.0-5.0-7.0-0.0","785.1999998092651","","","https://ziweizhang0304.github.io/Stats_learning_trig/img/Stim/FN_007_g.png","13","","","","","","","","","","","","","","","","","",""
"","animation","28","95591","0.0-5.0-7.0-1.0","","","","","","[{""stimulus"":""https://ziweizhang0304.github.io/Stats_learning_trig/img/Stim/FN_026_g.png"",""time"":367.89999985694885},{""stimulus"":""blank"",""time"":680.3999998569489},{""stimulus"":""https://ziweizhang0304.github.io/Stats_learning_trig/img/Stim/FN_025_g.png"",""time"":681.1999998092651},{""stimulus"":""blank"",""time"":988.6999998092651},{""stimulus"":""https://ziweizhang0304.github.io/Stats_learning_trig/img/Stim/FN_012_g.png"",""time"":1025},{""stimulus"":""blank"",""time"":1336.3999998569489},{""stimulus"":""https://ziweizhang0304.github.io/Stats_learning_trig/img/Stim/FN_020_g.png"",""time"":1368.2999999523163},{""stimulus"":""blank"",""time"":1684.0999999046326},{""stimulus"":""https://ziweizhang0304.github.io/Stats_learning_trig/img/Stim/FN_010_g.png"",""time"":1701.5999999046326},{""stimulus"":""blank"",""time"":2003.3999998569489},{""stimulus"":""https://ziweizhang0304.github.io/Stats_learning_trig/img/Stim/FN_007_g.png"",""time"":2050.5999999046326},{""stimulus"":""blank"",""time"":2361.7999999523163},{""stimulus"":""https://ziweizhang0304.github.io/Stats_learning_trig/img/Stim/FN_011_g.png"",""time"":2382.5999999046326},{""stimulus"":""blank"",""time"":2688.699999809265},{""stimulus"":""https://ziweizhang0304.github.io/Stats_learning_trig/img/Stim/FN_005_g.png"",""time"":2721.2999999523163},{""stimulus"":""blank"",""time"":3029.199999809265},{""stimulus"":""https://ziweizhang0304.github.io/Stats_learning_trig/img/Stim/FN_018_g.png"",""time"":3061.5999999046326},{""stimulus"":""blank"",""time"":3376},{""stimulus"":""https://ziweizhang0304.github.io/Stats_learning_trig/img/Stim/FN_023_g.png"",""time"":3401.5999999046326},{""stimulus"":""blank"",""time"":3705.899999856949},{""stimulus"":""https://ziweizhang0304.github.io/Stats_learning_trig/img/Stim/FN_002_g.png"",""time"":3741.899999856949},{""stimulus"":""blank"",""time"":4054.199999809265},{""stimulus"":""https://ziweizhang0304.github.io/Stats_learning_trig/img/Stim/FN_014_g.png"",""time"":4081.399999856949},{""stimulus"":""blank"",""time"":4393.399999856949}]","[{""key_press"":32,""rt"":2425.9000000953674,""stimulus"":""https://ziweizhang0304.github.io/Stats_learning_trig/img/Stim/FN_011_g.png""}]","375.30000019073486","https://ziweizhang0304.github.io/Stats_learning_trig/img/Stim/FN_007_g.png","post_TD","8","2050.5999999046326","2425.9000000953674","slow","6","3","62029a55ef1cb18a1337c61a","","","","","",""
"","image-keyboard-response","29","96325","0.0-5.0-8.0-0.0","730.1999998092651","","","https://ziweizhang0304.github.io/Stats_learning_trig/img/Stim/FN_009_g.png","13","","","","","","","","","","","","","","","","","",""
"","animation","30","100752","0.0-5.0-8.0-1.0","","","","","","[{""stimulus"":""https://ziweizhang0304.github.io/Stats_learning_trig/img/Stim/FN_011_g.png"",""time"":343.39999985694885},{""stimulus"":""blank"",""time"":659.1999998092651},{""stimulus"":""https://ziweizhang0304.github.io/Stats_learning_trig/img/Stim/FN_023_g.png"",""time"":694.5},{""stimulus"":""blank"",""time"":1004.0999999046326},{""stimulus"":""https://ziweizhang0304.github.io/Stats_learning_trig/img/Stim/FN_018_g.png"",""time"":1021},{""stimulus"":""blank"",""time"":1329.5999999046326},{""stimulus"":""https://ziweizhang0304.github.io/Stats_learning_trig/img/Stim/FN_001_g.png"",""time"":1361.1999998092651},{""stimulus"":""blank"",""time"":1681.5999999046326},{""stimulus"":""https://ziweizhang0304.github.io/Stats_learning_trig/img/Stim/FN_009_g.png"",""time"":1703},{""stimulus"":""blank"",""time"":2010.2999999523163},{""stimulus"":""https://ziweizhang0304.github.io/Stats_learning_trig/img/Stim/FN_022_g.png"",""time"":2041.0999999046326},{""stimulus"":""blank"",""time"":2356.399999856949},{""stimulus"":""https://ziweizhang0304.github.io/Stats_learning_trig/img/Stim/FN_005_g.png"",""time"":2381.7999999523163},{""stimulus"":""blank"",""time"":2692.5999999046326},{""stimulus"":""https://ziweizhang0304.github.io/Stats_learning_trig/img/Stim/FN_025_g.png"",""time"":2721},{""stimulus"":""blank"",""time"":3022.7999999523163},{""stimulus"":""https://ziweizhang0304.github.io/Stats_learning_trig/img/Stim/FN_002_g.png"",""time"":3070.699999809265},{""stimulus"":""blank"",""time"":3385.5},{""stimulus"":""https://ziweizhang0304.github.io/Stats_learning_trig/img/Stim/FN_026_g.png"",""time"":3403},{""stimulus"":""blank"",""time"":3711},{""stimulus"":""https://ziweizhang0304.github.io/Stats_learning_trig/img/Stim/FN_012_g.png"",""time"":3741.199999809265},{""stimulus"":""blank"",""time"":4048.199999809265},{""stimulus"":""https://ziweizhang0304.github.io/Stats_learning_trig/img/Stim/FN_014_g.png"",""time"":4082.0999999046326},{""stimulus"":""blank"",""time"":4393.299999952316}]","[{""key_press"":32,""rt"":2098,""stimulus"":""https://ziweizhang0304.github.io/Stats_learning_trig/img/Stim/FN_022_g.png""}]","395","https://ziweizhang0304.github.io/Stats_learning_trig/img/Stim/FN_009_g.png","post_TD","9","1703","2098","fast","5","2","62029a55ef1cb18a1337c61a","","","","","",""
"","image-keyboard-response","31","101563","0.0-5.0-9.0-0.0","807.6999998092651","","","https://ziweizhang0304.github.io/Stats_learning_trig/img/Stim/FN_022_g.png","13","","","","","","","","","","","","","","","","","",""
"","animation","32","105985","0.0-5.0-9.0-1.0","","","","","","[{""stimulus"":""https://ziweizhang0304.github.io/Stats_learning_trig/img/Stim/FN_014_g.png"",""time"":349.5},{""stimulus"":""blank"",""time"":657.3999998569489},{""stimulus"":""https://ziweizhang0304.github.io/Stats_learning_trig/img/Stim/FN_002_g.png"",""time"":681.2999999523163},{""stimulus"":""blank"",""time"":982.1999998092651},{""stimulus"":""https://ziweizhang0304.github.io/Stats_learning_trig/img/Stim/FN_025_g.png"",""time"":1028.3999998569489},{""stimulus"":""blank"",""time"":1350.8999998569489},{""stimulus"":""https://ziweizhang0304.github.io/Stats_learning_trig/img/Stim/FN_023_g.png"",""time"":1360.8999998569489},{""stimulus"":""blank"",""time"":1663.1999998092651},{""stimulus"":""https://ziweizhang0304.github.io/Stats_learning_trig/img/Stim/FN_026_g.png"",""time"":1711.2999999523163},{""stimulus"":""blank"",""time"":2024.8999998569489},{""stimulus"":""https://ziweizhang0304.github.io/Stats_learning_trig/img/Stim/FN_005_g.png"",""time"":2042},{""stimulus"":""blank"",""time"":2355.5999999046326},{""stimulus"":""https://ziweizhang0304.github.io/Stats_learning_trig/img/Stim/FN_001_g.png"",""time"":2381.7999999523163},{""stimulus"":""blank"",""time"":2691.7999999523163},{""stimulus"":""https://ziweizhang0304.github.io/Stats_learning_trig/img/Stim/FN_009_g.png"",""time"":2721.699999809265},{""stimulus"":""blank"",""time"":3032.699999809265},{""stimulus"":""https://ziweizhang0304.github.io/Stats_learning_trig/img/Stim/FN_022_g.png"",""time"":3069.2999999523163},{""stimulus"":""blank"",""time"":3376.7999999523163},{""stimulus"":""https://ziweizhang0304.github.io/Stats_learning_trig/img/Stim/FN_011_g.png"",""time"":3402},{""stimulus"":""blank"",""time"":3716.5},{""stimulus"":""https://ziweizhang0304.github.io/Stats_learning_trig/img/Stim/FN_018_g.png"",""time"":3742.699999809265},{""stimulus"":""blank"",""time"":4046.199999809265},{""stimulus"":""https://ziweizhang0304.github.io/Stats_learning_trig/img/Stim/FN_012_g.png"",""time"":4081.899999856949},{""stimulus"":""blank"",""time"":4384.899999856949}]","[{""key_press"":32,""rt"":3425.5,""stimulus"":""https://ziweizhang0304.github.io/Stats_learning_trig/img/Stim/FN_011_g.png""}]","356.2000000476837","https://ziweizhang0304.github.io/Stats_learning_trig/img/Stim/FN_022_g.png","post_TD","10","3069.2999999523163","3425.5","fast","9","3","62029a55ef1cb18a1337c61a","","","","","",""
"","image-keyboard-response","33","106691","0.0-5.0-10.0-0.0","703.2000000476837","","","https://ziweizhang0304.github.io/Stats_learning_trig/img/Stim/FN_020_g.png","13","","","","","","","","","","","","","","","","","",""
"","animation","34","111113","0.0-5.0-10.0-1.0","","","","","","[{""stimulus"":""https://ziweizhang0304.github.io/Stats_learning_trig/img/Stim/FN_012_g.png"",""time"":351.80000019073486},{""stimulus"":""blank"",""time"":652.8000001907349},{""stimulus"":""https://ziweizhang0304.github.io/Stats_learning_trig/img/Stim/FN_023_g.png"",""time"":684.8000001907349},{""stimulus"":""blank"",""time"":991.4000000953674},{""stimulus"":""https://ziweizhang0304.github.io/Stats_learning_trig/img/Stim/FN_026_g.png"",""time"":1021.9000000953674},{""stimulus"":""blank"",""time"":1324.9000000953674},{""stimulus"":""https://ziweizhang0304.github.io/Stats_learning_trig/img/Stim/FN_005_g.png"",""time"":1361.1000001430511},{""stimulus"":""blank"",""time"":1667},{""stimulus"":""https://ziweizhang0304.github.io/Stats_learning_trig/img/Stim/FN_025_g.png"",""time"":1703.4000000953674},{""stimulus"":""blank"",""time"":2009.3000001907349},{""stimulus"":""https://ziweizhang0304.github.io/Stats_learning_trig/img/Stim/FN_018_g.png"",""time"":2042.1000001430511},{""stimulus"":""blank"",""time"":2347.600000143051},{""stimulus"":""https://ziweizhang0304.github.io/Stats_learning_trig/img/Stim/FN_020_g.png"",""time"":2383.300000190735},{""stimulus"":""blank"",""time"":2692.7000000476837},{""stimulus"":""https://ziweizhang0304.github.io/Stats_learning_trig/img/Stim/FN_010_g.png"",""time"":2721.2000000476837},{""stimulus"":""blank"",""time"":3028},{""stimulus"":""https://ziweizhang0304.github.io/Stats_learning_trig/img/Stim/FN_007_g.png"",""time"":3061.4000000953674},{""stimulus"":""blank"",""time"":3373.2000000476837},{""stimulus"":""https://ziweizhang0304.github.io/Stats_learning_trig/img/Stim/FN_011_g.png"",""time"":3405.4000000953674},{""stimulus"":""blank"",""time"":3711.7000000476837},{""stimulus"":""https://ziweizhang0304.github.io/Stats_learning_trig/img/Stim/FN_002_g.png"",""time"":3741.4000000953674},{""stimulus"":""blank"",""time"":4044.5},{""stimulus"":""https://ziweizhang0304.github.io/Stats_learning_trig/img/Stim/FN_014_g.png"",""time"":4081.100000143051},{""stimulus"":""blank"",""time"":4387.800000190735}]","[{""key_press"":32,""rt"":2746.899999856949,""stimulus"":""https://ziweizhang0304.github.io/Stats_learning_trig/img/Stim/FN_010_g.png""}]","363.599999666214","https://ziweizhang0304.github.io/Stats_learning_trig/img/Stim/FN_020_g.png","post_TD","11","2383.300000190735","2746.899999856949","slow","7","1","62029a55ef1cb18a1337c61a","","","","","",""
"","image-keyboard-response","35","111777","0.0-5.0-11.0-0.0","662.1000001430511","","","https://ziweizhang0304.github.io/Stats_learning_trig/img/Stim/FN_009_g.png","13","","","","","","","","","","","","","","","","","",""
"","animation","36","116208","0.0-5.0-11.0-1.0","","","","","","[{""stimulus"":""https://ziweizhang0304.github.io/Stats_learning_trig/img/Stim/FN_002_g.png"",""time"":361.80000019073486},{""stimulus"":""blank"",""time"":663.2000000476837},{""stimulus"":""https://ziweizhang0304.github.io/Stats_learning_trig/img/Stim/FN_005_g.png"",""time"":681.7000000476837},{""stimulus"":""blank"",""time"":987.8000001907349},{""stimulus"":""https://ziweizhang0304.github.io/Stats_learning_trig/img/Stim/FN_026_g.png"",""time"":1024},{""stimulus"":""blank"",""time"":1339.3000001907349},{""stimulus"":""https://ziweizhang0304.github.io/Stats_learning_trig/img/Stim/FN_023_g.png"",""time"":1362.2000000476837},{""stimulus"":""blank"",""time"":1677.9000000953674},{""stimulus"":""https://ziweizhang0304.github.io/Stats_learning_trig/img/Stim/FN_025_g.png"",""time"":1701.5},{""stimulus"":""blank"",""time"":2014.3000001907349},{""stimulus"":""https://ziweizhang0304.github.io/Stats_learning_trig/img/Stim/FN_001_g.png"",""time"":2041.1000001430511},{""stimulus"":""blank"",""time"":2346},{""stimulus"":""https://ziweizhang0304.github.io/Stats_learning_trig/img/Stim/FN_009_g.png"",""time"":2381.600000143051},{""stimulus"":""blank"",""time"":2693.7000000476837},{""stimulus"":""https://ziweizhang0304.github.io/Stats_learning_trig/img/Stim/FN_022_g.png"",""time"":2721.2000000476837},{""stimulus"":""blank"",""time"":3034.9000000953674},{""stimulus"":""https://ziweizhang0304.github.io/Stats_learning_trig/img/Stim/FN_011_g.png"",""time"":3061.600000143051},{""stimulus"":""blank"",""time"":3366.2000000476837},{""stimulus"":""https://ziweizhang0304.github.io/Stats_learning_trig/img/Stim/FN_018_g.png"",""time"":3402.300000190735},{""stimulus"":""blank"",""time"":3715.300000190735},{""stimulus"":""https://ziweizhang0304.github.io/Stats_learning_trig/img/Stim/FN_012_g.png"",""time"":3741.600000143051},{""stimulus"":""blank"",""time"":4054.2000000476837},{""stimulus"":""https://ziweizhang0304.github.io/Stats_learning_trig/img/Stim/FN_014_g.png"",""time"":4081.600000143051},{""stimulus"":""blank"",""time"":4384}]","[{""key_press"":32,""rt"":2696.399999856949,""stimulus"":""blank""}]","314.7999997138977","https://ziweizhang0304.github.io/Stats_learning_trig/img/Stim/FN_009_g.png","post_TD","12","2381.600000143051","2696.399999856949","fast","7","2","62029a55ef1cb18a1337c61a","","","","","",""
"","image-keyboard-response","37","117330","0.0-5.0-12.0-0.0","1117.2000000476837","","","https://ziweizhang0304.github.io/Stats_learning_trig/img/Stim/FN_007_g.png","13","","","","","","","","","","","","","","","","","",""
"","animation","38","121751","0.0-5.0-12.0-1.0","","","","","","[{""stimulus"":""https://ziweizhang0304.github.io/Stats_learning_trig/img/Stim/FN_002_g.png"",""time"":351.7000000476837},{""stimulus"":""blank"",""time"":659.6000001430511},{""stimulus"":""https://ziweizhang0304.github.io/Stats_learning_trig/img/Stim/FN_014_g.png"",""time"":681.8000001907349},{""stimulus"":""blank"",""time"":991.4000000953674},{""stimulus"":""https://ziweizhang0304.github.io/Stats_learning_trig/img/Stim/FN_012_g.png"",""time"":1025.3000001907349},{""stimulus"":""blank"",""time"":1330.1000001430511},{""stimulus"":""https://ziweizhang0304.github.io/Stats_learning_trig/img/Stim/FN_026_g.png"",""time"":1361.8000001907349},{""stimulus"":""blank"",""time"":1671.9000000953674},{""stimulus"":""https://ziweizhang0304.github.io/Stats_learning_trig/img/Stim/FN_020_g.png"",""time"":1701.8000001907349},{""stimulus"":""blank"",""time"":2008.5},{""stimulus"":""https://ziweizhang0304.github.io/Stats_learning_trig/img/Stim/FN_010_g.png"",""time"":2044.4000000953674},{""stimulus"":""blank"",""time"":2359.800000190735},{""stimulus"":""https://ziweizhang0304.github.io/Stats_learning_trig/img/Stim/FN_007_g.png"",""time"":2396},{""stimulus"":""blank"",""time"":2701.4000000953674},{""stimulus"":""https://ziweizhang0304.github.io/Stats_learning_trig/img/Stim/FN_011_g.png"",""time"":2721.7000000476837},{""stimulus"":""blank"",""time"":3032.2000000476837},{""stimulus"":""https://ziweizhang0304.github.io/Stats_learning_trig/img/Stim/FN_005_g.png"",""time"":3064.600000143051},{""stimulus"":""blank"",""time"":3365.300000190735},{""stimulus"":""https://ziweizhang0304.github.io/Stats_learning_trig/img/Stim/FN_018_g.png"",""time"":3401.2000000476837},{""stimulus"":""blank"",""time"":3714.100000143051},{""stimulus"":""https://ziweizhang0304.github.io/Stats_learning_trig/img/Stim/FN_023_g.png"",""time"":3746.9000000953674},{""stimulus"":""blank"",""time"":4062.4000000953674},{""stimulus"":""https://ziweizhang0304.github.io/Stats_learning_trig/img/Stim/FN_025_g.png"",""time"":4081.9000000953674},{""stimulus"":""blank"",""time"":4393.200000047684}]","[{""key_press"":32,""rt"":2754.7999999523163,""stimulus"":""https://ziweizhang0304.github.io/Stats_learning_trig/img/Stim/FN_011_g.png""}]","358.7999999523163","https://ziweizhang0304.github.io/Stats_learning_trig/img/Stim/FN_007_g.png","post_TD","13","2396","2754.7999999523163","slow","7","3","62029a55ef1cb18a1337c61a","","","","","",""
"","image-keyboard-response","39","122826","0.0-5.0-13.0-0.0","1071.2999999523163","","","https://ziweizhang0304.github.io/Stats_learning_trig/img/Stim/FN_001_g.png","13","","","","","","","","","","","","","","","","","",""
"","animation","40","127248","0.0-5.0-13.0-1.0","","","","","","[{""stimulus"":""https://ziweizhang0304.github.io/Stats_learning_trig/img/Stim/FN_018_g.png"",""time"":347.90000009536743},{""stimulus"":""blank"",""time"":658.0999999046326},{""stimulus"":""https://ziweizhang0304.github.io/Stats_learning_trig/img/Stim/FN_002_g.png"",""time"":681.7000000476837},{""stimulus"":""blank"",""time"":988.7999999523163},{""stimulus"":""https://ziweizhang0304.github.io/Stats_learning_trig/img/Stim/FN_025_g.png"",""time"":1025},{""stimulus"":""blank"",""time"":1339.7999999523163},{""stimulus"":""https://ziweizhang0304.github.io/Stats_learning_trig/img/Stim/FN_014_g.png"",""time"":1375.0999999046326},{""stimulus"":""blank"",""time"":1687.4000000953674},{""stimulus"":""https://ziweizhang0304.github.io/Stats_learning_trig/img/Stim/FN_001_g.png"",""time"":1702.2000000476837},{""stimulus"":""blank"",""time"":2006.2000000476837},{""stimulus"":""https://ziweizhang0304.github.io/Stats_learning_trig/img/Stim/FN_009_g.png"",""time"":2042.2999999523163},{""stimulus"":""blank"",""time"":2352.0999999046326},{""stimulus"":""https://ziweizhang0304.github.io/Stats_learning_trig/img/Stim/FN_022_g.png"",""time"":2383.2000000476837},{""stimulus"":""blank"",""time"":2687.7000000476837},{""stimulus"":""https://ziweizhang0304.github.io/Stats_learning_trig/img/Stim/FN_011_g.png"",""time"":2722},{""stimulus"":""blank"",""time"":3035.7000000476837},{""stimulus"":""https://ziweizhang0304.github.io/Stats_learning_trig/img/Stim/FN_005_g.png"",""time"":3067.5},{""stimulus"":""blank"",""time"":3369.4000000953674},{""stimulus"":""https://ziweizhang0304.github.io/Stats_learning_trig/img/Stim/FN_023_g.png"",""time"":3401.5},{""stimulus"":""blank"",""time"":3711.5},{""stimulus"":""https://ziweizhang0304.github.io/Stats_learning_trig/img/Stim/FN_026_g.png"",""time"":3742.5},{""stimulus"":""blank"",""time"":4057.0999999046326},{""stimulus"":""https://ziweizhang0304.github.io/Stats_learning_trig/img/Stim/FN_012_g.png"",""time"":4081.7000000476837},{""stimulus"":""blank"",""time"":4387.700000047684}]","[{""key_press"":32,""rt"":2095.7000000476837,""stimulus"":""https://ziweizhang0304.github.io/Stats_learning_trig/img/Stim/FN_009_g.png""}]","393.5","https://ziweizhang0304.github.io/Stats_learning_trig/img/Stim/FN_001_g.png","post_TD","14","1702.2000000476837","2095.7000000476837","fast","5","1","62029a55ef1cb18a1337c61a","","","","","",""
"","image-keyboard-response","41","128206","0.0-5.0-14.0-0.0","954.6999998092651","","","https://ziweizhang0304.github.io/Stats_learning_trig/img/Stim/FN_020_g.png","13","","","","","","","","","","","","","","","","","",""
"","animation","42","132628","0.0-5.0-14.0-1.0","","","","","","[{""stimulus"":""https://ziweizhang0304.github.io/Stats_learning_trig/img/Stim/FN_026_g.png"",""time"":354.2000000476837},{""stimulus"":""blank"",""time"":661.7999999523163},{""stimulus"":""https://ziweizhang0304.github.io/Stats_learning_trig/img/Stim/FN_025_g.png"",""time"":681.2000000476837},{""stimulus"":""blank"",""time"":989.9000000953674},{""stimulus"":""https://ziweizhang0304.github.io/Stats_learning_trig/img/Stim/FN_012_g.png"",""time"":1025.7000000476837},{""stimulus"":""blank"",""time"":1338.4000000953674},{""stimulus"":""https://ziweizhang0304.github.io/Stats_learning_trig/img/Stim/FN_020_g.png"",""time"":1362.4000000953674},{""stimulus"":""blank"",""time"":1664.2999999523163},{""stimulus"":""https://ziweizhang0304.github.io/Stats_learning_trig/img/Stim/FN_010_g.png"",""time"":1712.2999999523163},{""stimulus"":""blank"",""time"":2028.7999999523163},{""stimulus"":""https://ziweizhang0304.github.io/Stats_learning_trig/img/Stim/FN_007_g.png"",""time"":2041},{""stimulus"":""blank"",""time"":2345.7999999523163},{""stimulus"":""https://ziweizhang0304.github.io/Stats_learning_trig/img/Stim/FN_011_g.png"",""time"":2381.4000000953674},{""stimulus"":""blank"",""time"":2695.9000000953674},{""stimulus"":""https://ziweizhang0304.github.io/Stats_learning_trig/img/Stim/FN_005_g.png"",""time"":2731.600000143051},{""stimulus"":""blank"",""time"":3032.7000000476837},{""stimulus"":""https://ziweizhang0304.github.io/Stats_learning_trig/img/Stim/FN_018_g.png"",""time"":3062},{""stimulus"":""blank"",""time"":3374.5},{""stimulus"":""https://ziweizhang0304.github.io/Stats_learning_trig/img/Stim/FN_023_g.png"",""time"":3406.2999999523163},{""stimulus"":""blank"",""time"":3711.600000143051},{""stimulus"":""https://ziweizhang0304.github.io/Stats_learning_trig/img/Stim/FN_002_g.png"",""time"":3740.9000000953674},{""stimulus"":""blank"",""time"":4055.100000143051},{""stimulus"":""https://ziweizhang0304.github.io/Stats_learning_trig/img/Stim/FN_014_g.png"",""time"":4086.9000000953674},{""stimulus"":""blank"",""time"":4406.900000095367}]","[{""key_press"":32,""rt"":1773,""stimulus"":""https://ziweizhang0304.github.io/Stats_learning_trig/img/Stim/FN_010_g.png""}]","410.59999990463257","https://ziweizhang0304.github.io/Stats_learning_trig/img/Stim/FN_020_g.png","post_TD","15","1362.4000000953674","1773","slow","4","1","62029a55ef1cb18a1337c61a","","","","","",""
"","image-keyboard-response","43","133709","0.0-5.0-15.0-0.0","1076.8999998569489","","","https://ziweizhang0304.github.io/Stats_learning_trig/img/Stim/FN_010_g.png","13","","","","","","","","","","","","","","","","","",""
"","animation","44","138130","0.0-5.0-15.0-1.0","","","","","","[{""stimulus"":""https://ziweizhang0304.github.io/Stats_learning_trig/img/Stim/FN_002_g.png"",""time"":352.40000009536743},{""stimulus"":""blank"",""time"":664.1000001430511},{""stimulus"":""https://ziweizhang0304.github.io/Stats_learning_trig/img/Stim/FN_014_g.png"",""time"":681.1000001430511},{""stimulus"":""blank"",""time"":983.2000000476837},{""stimulus"":""https://ziweizhang0304.github.io/Stats_learning_trig/img/Stim/FN_012_g.png"",""time"":1035},{""stimulus"":""blank"",""time"":1352.9000000953674},{""stimulus"":""https://ziweizhang0304.github.io/Stats_learning_trig/img/Stim/FN_026_g.png"",""time"":1362.6000001430511},{""stimulus"":""blank"",""time"":1665.1000001430511},{""stimulus"":""https://ziweizhang0304.github.io/Stats_learning_trig/img/Stim/FN_020_g.png"",""time"":1715.9000000953674},{""stimulus"":""blank"",""time"":2022.4000000953674},{""stimulus"":""https://ziweizhang0304.github.io/Stats_learning_trig/img/Stim/FN_010_g.png"",""time"":2041.6000001430511},{""stimulus"":""blank"",""time"":2354.5},{""stimulus"":""https://ziweizhang0304.github.io/Stats_learning_trig/img/Stim/FN_007_g.png"",""time"":2386.2000000476837},{""stimulus"":""blank"",""time"":2713.600000143051},{""stimulus"":""https://ziweizhang0304.github.io/Stats_learning_trig/img/Stim/FN_011_g.png"",""time"":2721},{""stimulus"":""blank"",""time"":3022.9000000953674},{""stimulus"":""https://ziweizhang0304.github.io/Stats_learning_trig/img/Stim/FN_005_g.png"",""time"":3070.4000000953674},{""stimulus"":""blank"",""time"":3375.600000143051},{""stimulus"":""https://ziweizhang0304.github.io/Stats_learning_trig/img/Stim/FN_018_g.png"",""time"":3401.5},{""stimulus"":""blank"",""time"":3702.7000000476837},{""stimulus"":""https://ziweizhang0304.github.io/Stats_learning_trig/img/Stim/FN_023_g.png"",""time"":3750.9000000953674},{""stimulus"":""blank"",""time"":4059.100000143051},{""stimulus"":""https://ziweizhang0304.github.io/Stats_learning_trig/img/Stim/FN_025_g.png"",""time"":4082.5},{""stimulus"":""blank"",""time"":4398}]","[{""key_press"":32,""rt"":2365.399999856949,""stimulus"":""blank""}]","323.7999997138977","https://ziweizhang0304.github.io/Stats_learning_trig/img/Stim/FN_010_g.png","post_TD","16","2041.6000001430511","2365.399999856949","slow","6","2","62029a55ef1cb18a1337c61a","","","","","",""
"","image-keyboard-response","45","138518","0.0-5.0-16.0-0.0","384.7000000476837","","","https://ziweizhang0304.github.io/Stats_learning_trig/img/Stim/FN_001_g.png","13","","","","","","","","","","","","","","","","","",""
"","animation","46","142940","0.0-5.0-16.0-1.0","","","","","","[{""stimulus"":""https://ziweizhang0304.github.io/Stats_learning_trig/img/Stim/FN_014_g.png"",""time"":350.2999999523163},{""stimulus"":""blank"",""time"":663.5999999046326},{""stimulus"":""https://ziweizhang0304.github.io/Stats_learning_trig/img/Stim/FN_002_g.png"",""time"":682.0999999046326},{""stimulus"":""blank"",""time"":983.2999999523163},{""stimulus"":""https://ziweizhang0304.github.io/Stats_learning_trig/img/Stim/FN_025_g.png"",""time"":1032.2999999523163},{""stimulus"":""blank"",""time"":1346.2999999523163},{""stimulus"":""https://ziweizhang0304.github.io/Stats_learning_trig/img/Stim/FN_023_g.png"",""time"":1361.8999998569489},{""stimulus"":""blank"",""time"":1675.8999998569489},{""stimulus"":""https://ziweizhang0304.github.io/Stats_learning_trig/img/Stim/FN_026_g.png"",""time"":1701.2999999523163},{""stimulus"":""blank"",""time"":2011.8999998569489},{""stimulus"":""https://ziweizhang0304.github.io/Stats_learning_trig/img/Stim/FN_005_g.png"",""time"":2044.2999999523163},{""stimulus"":""blank"",""time"":2346.5999999046326},{""stimulus"":""https://ziweizhang0304.github.io/Stats_learning_trig/img/Stim/FN_001_g.png"",""time"":2382.7999999523163},{""stimulus"":""blank"",""time"":2688.899999856949},{""stimulus"":""https://ziweizhang0304.github.io/Stats_learning_trig/img/Stim/FN_009_g.png"",""time"":2721.399999856949},{""stimulus"":""blank"",""time"":3035.399999856949},{""stimulus"":""https://ziweizhang0304.github.io/Stats_learning_trig/img/Stim/FN_022_g.png"",""time"":3062.2999999523163},{""stimulus"":""blank"",""time"":3368.2999999523163},{""stimulus"":""https://ziweizhang0304.github.io/Stats_learning_trig/img/Stim/FN_011_g.png"",""time"":3401.7999999523163},{""stimulus"":""blank"",""time"":3718},{""stimulus"":""https://ziweizhang0304.github.io/Stats_learning_trig/img/Stim/FN_018_g.png"",""time"":3753.399999856949},{""stimulus"":""blank"",""time"":4059.2000000476837},{""stimulus"":""https://ziweizhang0304.github.io/Stats_learning_trig/img/Stim/FN_012_g.png"",""time"":4082.2000000476837},{""stimulus"":""blank"",""time"":4387.799999952316}]","[{""key_press"":32,""rt"":2765.7000000476837,""stimulus"":""https://ziweizhang0304.github.io/Stats_learning_trig/img/Stim/FN_009_g.png""}]","382.90000009536743","https://ziweizhang0304.github.io/Stats_learning_trig/img/Stim/FN_001_g.png","post_TD","17","2382.7999999523163","2765.7000000476837","fast","7","1","62029a55ef1cb18a1337c61a","","","","","",""
"","image-keyboard-response","47","143786","0.0-5.0-17.0-0.0","842.9000000953674","","","https://ziweizhang0304.github.io/Stats_learning_trig/img/Stim/FN_009_g.png","13","","","","","","","","","","","","","","","","","",""
"","animation","48","148208","0.0-5.0-17.0-1.0","","","","","","[{""stimulus"":""https://ziweizhang0304.github.io/Stats_learning_trig/img/Stim/FN_018_g.png"",""time"":348.5},{""stimulus"":""blank"",""time"":664.2000000476837},{""stimulus"":""https://ziweizhang0304.github.io/Stats_learning_trig/img/Stim/FN_002_g.png"",""time"":681.2999999523163},{""stimulus"":""blank"",""time"":983},{""stimulus"":""https://ziweizhang0304.github.io/Stats_learning_trig/img/Stim/FN_025_g.png"",""time"":1030.7999999523163},{""stimulus"":""blank"",""time"":1332.0999999046326},{""stimulus"":""https://ziweizhang0304.github.io/Stats_learning_trig/img/Stim/FN_014_g.png"",""time"":1361.4000000953674},{""stimulus"":""blank"",""time"":1663.2999999523163},{""stimulus"":""https://ziweizhang0304.github.io/Stats_learning_trig/img/Stim/FN_001_g.png"",""time"":1712},{""stimulus"":""blank"",""time"":2028.5},{""stimulus"":""https://ziweizhang0304.github.io/Stats_learning_trig/img/Stim/FN_009_g.png"",""time"":2042},{""stimulus"":""blank"",""time"":2351},{""stimulus"":""https://ziweizhang0304.github.io/Stats_learning_trig/img/Stim/FN_022_g.png"",""time"":2381.5999999046326},{""stimulus"":""blank"",""time"":2691.2999999523163},{""stimulus"":""https://ziweizhang0304.github.io/Stats_learning_trig/img/Stim/FN_011_g.png"",""time"":2726.2000000476837},{""stimulus"":""blank"",""time"":3036.9000000953674},{""stimulus"":""https://ziweizhang0304.github.io/Stats_learning_trig/img/Stim/FN_005_g.png"",""time"":3069.7000000476837},{""stimulus"":""blank"",""time"":3372.5},{""stimulus"":""https://ziweizhang0304.github.io/Stats_learning_trig/img/Stim/FN_023_g.png"",""time"":3404.7000000476837},{""stimulus"":""blank"",""time"":3720.2000000476837},{""stimulus"":""https://ziweizhang0304.github.io/Stats_learning_trig/img/Stim/FN_026_g.png"",""time"":3742},{""stimulus"":""blank"",""time"":4048},{""stimulus"":""https://ziweizhang0304.github.io/Stats_learning_trig/img/Stim/FN_012_g.png"",""time"":4082},{""stimulus"":""blank"",""time"":4385.700000047684}]","[{""key_press"":32,""rt"":2392.300000190735,""stimulus"":""https://ziweizhang0304.github.io/Stats_learning_trig/img/Stim/FN_022_g.png""}]","350.30000019073486","https://ziweizhang0304.github.io/Stats_learning_trig/img/Stim/FN_009_g.png","post_TD","18","2042","2392.300000190735","fast","6","2","62029a55ef1cb18a1337c61a","","","","","",""
"","image-keyboard-response","49","149150","0.0-5.0-18.0-0.0","938.5999999046326","","","https://ziweizhang0304.github.io/Stats_learning_trig/img/Stim/FN_001_g.png","13","","","","","","","","","","","","","","","","","",""
"","animation","50","153582","0.0-5.0-18.0-1.0","","","","","","[{""stimulus"":""https://ziweizhang0304.github.io/Stats_learning_trig/img/Stim/FN_011_g.png"",""time"":355.30000019073486},{""stimulus"":""blank"",""time"":666.4000000953674},{""stimulus"":""https://ziweizhang0304.github.io/Stats_learning_trig/img/Stim/FN_023_g.png"",""time"":681.7000000476837},{""stimulus"":""blank"",""time"":982.8000001907349},{""stimulus"":""https://ziweizhang0304.github.io/Stats_learning_trig/img/Stim/FN_018_g.png"",""time"":1021.5},{""stimulus"":""blank"",""time"":1324.3000001907349},{""stimulus"":""https://ziweizhang0304.github.io/Stats_learning_trig/img/Stim/FN_001_g.png"",""time"":1372.5},{""stimulus"":""blank"",""time"":1694.1000001430511},{""stimulus"":""https://ziweizhang0304.github.io/Stats_learning_trig/img/Stim/FN_009_g.png"",""time"":1700.6000001430511},{""stimulus"":""blank"",""time"":2002.1000001430511},{""stimulus"":""https://ziweizhang0304.github.io/Stats_learning_trig/img/Stim/FN_022_g.png"",""time"":2049},{""stimulus"":""blank"",""time"":2361},{""stimulus"":""https://ziweizhang0304.github.io/Stats_learning_trig/img/Stim/FN_005_g.png"",""time"":2381.5},{""stimulus"":""blank"",""time"":2688.5},{""stimulus"":""https://ziweizhang0304.github.io/Stats_learning_trig/img/Stim/FN_025_g.png"",""time"":2721.2000000476837},{""stimulus"":""blank"",""time"":3025.800000190735},{""stimulus"":""https://ziweizhang0304.github.io/Stats_learning_trig/img/Stim/FN_002_g.png"",""time"":3061.2000000476837},{""stimulus"":""blank"",""time"":3372.4000000953674},{""stimulus"":""https://ziweizhang0304.github.io/Stats_learning_trig/img/Stim/FN_026_g.png"",""time"":3401.100000143051},{""stimulus"":""blank"",""time"":3716.2000000476837},{""stimulus"":""https://ziweizhang0304.github.io/Stats_learning_trig/img/Stim/FN_012_g.png"",""time"":3749.4000000953674},{""stimulus"":""blank"",""time"":4052.600000143051},{""stimulus"":""https://ziweizhang0304.github.io/Stats_learning_trig/img/Stim/FN_014_g.png"",""time"":4081.5},{""stimulus"":""blank"",""time"":4384.400000095367}]","[{""key_press"":32,""rt"":1744,""stimulus"":""https://ziweizhang0304.github.io/Stats_learning_trig/img/Stim/FN_009_g.png""}]","371.5","https://ziweizhang0304.github.io/Stats_learning_trig/img/Stim/FN_001_g.png","post_TD","19","1372.5","1744","fast","4","1","62029a55ef1cb18a1337c61a","","","","","",""
"","image-keyboard-response","51","154349","0.0-5.0-19.0-0.0","763.5999999046326","","","https://ziweizhang0304.github.io/Stats_learning_trig/img/Stim/FN_022_g.png","13","","","","","","","","","","","","","","","","","",""
"","animation","52","158776","0.0-5.0-19.0-1.0","","","","","","[{""stimulus"":""https://ziweizhang0304.github.io/Stats_learning_trig/img/Stim/FN_002_g.png"",""time"":349.7000000476837},{""stimulus"":""blank"",""time"":658.2000000476837},{""stimulus"":""https://ziweizhang0304.github.io/Stats_learning_trig/img/Stim/FN_005_g.png"",""time"":681.3999998569489},{""stimulus"":""blank"",""time"":992.2999999523163},{""stimulus"":""https://ziweizhang0304.github.io/Stats_learning_trig/img/Stim/FN_026_g.png"",""time"":1027.7999999523163},{""stimulus"":""blank"",""time"":1334.7999999523163},{""stimulus"":""https://ziweizhang0304.github.io/Stats_learning_trig/img/Stim/FN_023_g.png"",""time"":1361.5},{""stimulus"":""blank"",""time"":1676.7999999523163},{""stimulus"":""https://ziweizhang0304.github.io/Stats_learning_trig/img/Stim/FN_025_g.png"",""time"":1701},{""stimulus"":""blank"",""time"":2001.5},{""stimulus"":""https://ziweizhang0304.github.io/Stats_learning_trig/img/Stim/FN_001_g.png"",""time"":2053.5999999046326},{""stimulus"":""blank"",""time"":2365.2000000476837},{""stimulus"":""https://ziweizhang0304.github.io/Stats_learning_trig/img/Stim/FN_009_g.png"",""time"":2381.5999999046326},{""stimulus"":""blank"",""time"":2688.5999999046326},{""stimulus"":""https://ziweizhang0304.github.io/Stats_learning_trig/img/Stim/FN_022_g.png"",""time"":2725},{""stimulus"":""blank"",""time"":3030.899999856949},{""stimulus"":""https://ziweizhang0304.github.io/Stats_learning_trig/img/Stim/FN_011_g.png"",""time"":3066.7000000476837},{""stimulus"":""blank"",""time"":3367.7000000476837},{""stimulus"":""https://ziweizhang0304.github.io/Stats_learning_trig/img/Stim/FN_018_g.png"",""time"":3401.7999999523163},{""stimulus"":""blank"",""time"":3709.899999856949},{""stimulus"":""https://ziweizhang0304.github.io/Stats_learning_trig/img/Stim/FN_012_g.png"",""time"":3742.5999999046326},{""stimulus"":""blank"",""time"":4053.2000000476837},{""stimulus"":""https://ziweizhang0304.github.io/Stats_learning_trig/img/Stim/FN_014_g.png"",""time"":4081.7000000476837},{""stimulus"":""blank"",""time"":4394.899999856949}]","[{""key_press"":32,""rt"":3030.600000143051,""stimulus"":""https://ziweizhang0304.github.io/Stats_learning_trig/img/Stim/FN_022_g.png""}]","305.60000014305115","https://ziweizhang0304.github.io/Stats_learning_trig/img/Stim/FN_022_g.png","post_TD","20","2725","3030.600000143051","fast","8","3","62029a55ef1cb18a1337c61a","","","","","",""
"","image-keyboard-response","53","159481","0.0-5.0-20.0-0.0","701.2000000476837","","","https://ziweizhang0304.github.io/Stats_learning_trig/img/Stim/FN_007_g.png","13","","","","","","","","","","","","","","","","","",""
"","animation","54","163903","0.0-5.0-20.0-1.0","","","","","","[{""stimulus"":""https://ziweizhang0304.github.io/Stats_learning_trig/img/Stim/FN_012_g.png"",""time"":345.59999990463257},{""stimulus"":""blank"",""time"":656},{""stimulus"":""https://ziweizhang0304.github.io/Stats_learning_trig/img/Stim/FN_023_g.png"",""time"":681.3999998569489},{""stimulus"":""blank"",""time"":989.5},{""stimulus"":""https://ziweizhang0304.github.io/Stats_learning_trig/img/Stim/FN_026_g.png"",""time"":1025.2000000476837},{""stimulus"":""blank"",""time"":1329.2999999523163},{""stimulus"":""https://ziweizhang0304.github.io/Stats_learning_trig/img/Stim/FN_005_g.png"",""time"":1362.3999998569489},{""stimulus"":""blank"",""time"":1673.7000000476837},{""stimulus"":""https://ziweizhang0304.github.io/Stats_learning_trig/img/Stim/FN_025_g.png"",""time"":1702.2999999523163},{""stimulus"":""blank"",""time"":2016.3999998569489},{""stimulus"":""https://ziweizhang0304.github.io/Stats_learning_trig/img/Stim/FN_018_g.png"",""time"":2048.7999999523163},{""stimulus"":""blank"",""time"":2349.7000000476837},{""stimulus"":""https://ziweizhang0304.github.io/Stats_learning_trig/img/Stim/FN_020_g.png"",""time"":2385.5},{""stimulus"":""blank"",""time"":2686.5999999046326},{""stimulus"":""https://ziweizhang0304.github.io/Stats_learning_trig/img/Stim/FN_010_g.png"",""time"":2721.7999999523163},{""stimulus"":""blank"",""time"":3030.0999999046326},{""stimulus"":""https://ziweizhang0304.github.io/Stats_learning_trig/img/Stim/FN_007_g.png"",""time"":3061.5999999046326},{""stimulus"":""blank"",""time"":3373},{""stimulus"":""https://ziweizhang0304.github.io/Stats_learning_trig/img/Stim/FN_011_g.png"",""time"":3401.5999999046326},{""stimulus"":""blank"",""time"":3711.7000000476837},{""stimulus"":""https://ziweizhang0304.github.io/Stats_learning_trig/img/Stim/FN_002_g.png"",""time"":3743.5999999046326},{""stimulus"":""blank"",""time"":4052.5999999046326},{""stimulus"":""https://ziweizhang0304.github.io/Stats_learning_trig/img/Stim/FN_014_g.png"",""time"":4081},{""stimulus"":""blank"",""time"":4402}]","[{""key_press"":32,""rt"":3417.9000000953674,""stimulus"":""https://ziweizhang0304.github.io/Stats_learning_trig/img/Stim/FN_011_g.png""}]","356.30000019073486","https://ziweizhang0304.github.io/Stats_learning_trig/img/Stim/FN_007_g.png","post_TD","21","3061.5999999046326","3417.9000000953674","slow","9","3","62029a55ef1cb18a1337c61a","","","","","",""
"","image-keyboard-response","55","164304","0.0-5.0-21.0-0.0","397.80000019073486","","","https://ziweizhang0304.github.io/Stats_learning_trig/img/Stim/FN_022_g.png","13","","","","","","","","","","","","","","","","","",""
"","animation","56","168731","0.0-5.0-21.0-1.0","","","","","","[{""stimulus"":""https://ziweizhang0304.github.io/Stats_learning_trig/img/Stim/FN_011_g.png"",""time"":341.39999985694885},{""stimulus"":""blank"",""time"":656.7000000476837},{""stimulus"":""https://ziweizhang0304.github.io/Stats_learning_trig/img/Stim/FN_023_g.png"",""time"":681.0999999046326},{""stimulus"":""blank"",""time"":995.7999999523163},{""stimulus"":""https://ziweizhang0304.github.io/Stats_learning_trig/img/Stim/FN_018_g.png"",""time"":1021},{""stimulus"":""blank"",""time"":1335.2000000476837},{""stimulus"":""https://ziweizhang0304.github.io/Stats_learning_trig/img/Stim/FN_001_g.png"",""time"":1366.5},{""stimulus"":""blank"",""time"":1684.5999999046326},{""stimulus"":""https://ziweizhang0304.github.io/Stats_learning_trig/img/Stim/FN_009_g.png"",""time"":1702.2000000476837},{""stimulus"":""blank"",""time"":2019.8999998569489},{""stimulus"":""https://ziweizhang0304.github.io/Stats_learning_trig/img/Stim/FN_022_g.png"",""time"":2042.0999999046326},{""stimulus"":""blank"",""time"":2344},{""stimulus"":""https://ziweizhang0304.github.io/Stats_learning_trig/img/Stim/FN_005_g.png"",""time"":2381.7000000476837},{""stimulus"":""blank"",""time"":2690},{""stimulus"":""https://ziweizhang0304.github.io/Stats_learning_trig/img/Stim/FN_025_g.png"",""time"":2726.399999856949},{""stimulus"":""blank"",""time"":3039.0999999046326},{""stimulus"":""https://ziweizhang0304.github.io/Stats_learning_trig/img/Stim/FN_002_g.png"",""time"":3074.2999999523163},{""stimulus"":""blank"",""time"":3383.7000000476837},{""stimulus"":""https://ziweizhang0304.github.io/Stats_learning_trig/img/Stim/FN_026_g.png"",""time"":3401.5},{""stimulus"":""blank"",""time"":3705.2000000476837},{""stimulus"":""https://ziweizhang0304.github.io/Stats_learning_trig/img/Stim/FN_012_g.png"",""time"":3740.899999856949},{""stimulus"":""blank"",""time"":4041.7999999523163},{""stimulus"":""https://ziweizhang0304.github.io/Stats_learning_trig/img/Stim/FN_014_g.png"",""time"":4089.5999999046326},{""stimulus"":""blank"",""time"":4394.5}]","[{""key_press"":32,""rt"":2357.100000143051,""stimulus"":""blank""}]","315.0000002384186","https://ziweizhang0304.github.io/Stats_learning_trig/img/Stim/FN_022_g.png","post_TD","22","2042.0999999046326","2357.100000143051","fast","6","3","62029a55ef1cb18a1337c61a","","","","","",""
"","image-keyboard-response","57","169400","0.0-5.0-22.0-0.0","667.7000000476837","","","https://ziweizhang0304.github.io/Stats_learning_trig/img/Stim/FN_010_g.png","13","","","","","","","","","","","","","","","","","",""
"","animation","58","173824","0.0-5.0-22.0-1.0","","","","","","[{""stimulus"":""https://ziweizhang0304.github.io/Stats_learning_trig/img/Stim/FN_011_g.png"",""time"":350.89999985694885},{""stimulus"":""blank"",""time"":661.2999999523163},{""stimulus"":""https://ziweizhang0304.github.io/Stats_learning_trig/img/Stim/FN_018_g.png"",""time"":681.7999999523163},{""stimulus"":""blank"",""time"":987},{""stimulus"":""https://ziweizhang0304.github.io/Stats_learning_trig/img/Stim/FN_002_g.png"",""time"":1023.1999998092651},{""stimulus"":""blank"",""time"":1332.6999998092651},{""stimulus"":""https://ziweizhang0304.github.io/Stats_learning_trig/img/Stim/FN_026_g.png"",""time"":1366.1999998092651},{""stimulus"":""blank"",""time"":1674.6999998092651},{""stimulus"":""https://ziweizhang0304.github.io/Stats_learning_trig/img/Stim/FN_025_g.png"",""time"":1701.1999998092651},{""stimulus"":""blank"",""time"":2014.3999998569489},{""stimulus"":""https://ziweizhang0304.github.io/Stats_learning_trig/img/Stim/FN_020_g.png"",""time"":2042},{""stimulus"":""blank"",""time"":2354},{""stimulus"":""https://ziweizhang0304.github.io/Stats_learning_trig/img/Stim/FN_010_g.png"",""time"":2382},{""stimulus"":""blank"",""time"":2688.699999809265},{""stimulus"":""https://ziweizhang0304.github.io/Stats_learning_trig/img/Stim/FN_007_g.png"",""time"":2721.5},{""stimulus"":""blank"",""time"":3023},{""stimulus"":""https://ziweizhang0304.github.io/Stats_learning_trig/img/Stim/FN_005_g.png"",""time"":3061.5999999046326},{""stimulus"":""blank"",""time"":3363.399999856949},{""stimulus"":""https://ziweizhang0304.github.io/Stats_learning_trig/img/Stim/FN_023_g.png"",""time"":3401.699999809265},{""stimulus"":""blank"",""time"":3702.5999999046326},{""stimulus"":""https://ziweizhang0304.github.io/Stats_learning_trig/img/Stim/FN_012_g.png"",""time"":3749.5},{""stimulus"":""blank"",""time"":4065.699999809265},{""stimulus"":""https://ziweizhang0304.github.io/Stats_learning_trig/img/Stim/FN_014_g.png"",""time"":4082.0999999046326},{""stimulus"":""blank"",""time"":4387.599999904633}]","[{""key_press"":32,""rt"":2753.9000000953674,""stimulus"":""https://ziweizhang0304.github.io/Stats_learning_trig/img/Stim/FN_007_g.png""}]","371.90000009536743","https://ziweizhang0304.github.io/Stats_learning_trig/img/Stim/FN_010_g.png","post_TD","23","2382","2753.9000000953674","slow","7","2","62029a55ef1cb18a1337c61a","","","","","",""
"","image-keyboard-response","59","174546","0.0-5.0-23.0-0.0","718.5999999046326","","","https://ziweizhang0304.github.io/Stats_learning_trig/img/Stim/FN_007_g.png","13","","","","","","","","","","","","","","","","","",""
"","animation","60","178967","0.0-5.0-23.0-1.0","","","","","","[{""stimulus"":""https://ziweizhang0304.github.io/Stats_learning_trig/img/Stim/FN_011_g.png"",""time"":350},{""stimulus"":""blank"",""time"":657.2999999523163},{""stimulus"":""https://ziweizhang0304.github.io/Stats_learning_trig/img/Stim/FN_018_g.png"",""time"":681.1000001430511},{""stimulus"":""blank"",""time"":991.2999999523163},{""stimulus"":""https://ziweizhang0304.github.io/Stats_learning_trig/img/Stim/FN_002_g.png"",""time"":1027.2000000476837},{""stimulus"":""blank"",""time"":1329.6000001430511},{""stimulus"":""https://ziweizhang0304.github.io/Stats_learning_trig/img/Stim/FN_026_g.png"",""time"":1361.7000000476837},{""stimulus"":""blank"",""time"":1663.2999999523163},{""stimulus"":""https://ziweizhang0304.github.io/Stats_learning_trig/img/Stim/FN_025_g.png"",""time"":1701.7999999523163},{""stimulus"":""blank"",""time"":2009.6000001430511},{""stimulus"":""https://ziweizhang0304.github.io/Stats_learning_trig/img/Stim/FN_020_g.png"",""time"":2041.5},{""stimulus"":""blank"",""time"":2354},{""stimulus"":""https://ziweizhang0304.github.io/Stats_learning_trig/img/Stim/FN_010_g.png"",""time"":2381.7000000476837},{""stimulus"":""blank"",""time"":2695.5},{""stimulus"":""https://ziweizhang0304.github.io/Stats_learning_trig/img/Stim/FN_007_g.png"",""time"":2728.100000143051},{""stimulus"":""blank"",""time"":3036.100000143051},{""stimulus"":""https://ziweizhang0304.github.io/Stats_learning_trig/img/Stim/FN_005_g.png"",""time"":3060.9000000953674},{""stimulus"":""blank"",""time"":3362.600000143051},{""stimulus"":""https://ziweizhang0304.github.io/Stats_learning_trig/img/Stim/FN_023_g.png"",""time"":3403.7999999523163},{""stimulus"":""blank"",""time"":3715.2999999523163},{""stimulus"":""https://ziweizhang0304.github.io/Stats_learning_trig/img/Stim/FN_012_g.png"",""time"":3747.100000143051},{""stimulus"":""blank"",""time"":4049.7000000476837},{""stimulus"":""https://ziweizhang0304.github.io/Stats_learning_trig/img/Stim/FN_014_g.png"",""time"":4081.9000000953674},{""stimulus"":""blank"",""time"":4394}]","[{""key_press"":32,""rt"":3040.0999999046326,""stimulus"":""blank""}]","311.9999997615814","https://ziweizhang0304.github.io/Stats_learning_trig/img/Stim/FN_007_g.png","post_TD","24","2728.100000143051","3040.0999999046326","slow","8","3","62029a55ef1cb18a1337c61a","55d5b","","","","",""
"","survey-text","61","198090","0.0-6.0","19113.700000047684","","","","","","","","","","","","","","","","","","{""Q0"":""I paid close attention with my finger over the space bar. I used my dominant hand""}","","","",""
"","survey-text","62","225250","0.0-7.0","27153.699999809265","","","","","","","","","","","","","","","","","","{""[object Object]"":""The pattern in which the shapes were shown seemed to be relatively consistent. The target shape seemed to appear usually in the middle of the sequence.""}","","","",""
"","instructions","63","444478","0.0-8.0","219227.20000004768","","[{""page_index"":0,""viewing_time"":219226.70000004768}]","","","","","","","","","","","","","","","","","","","",""
"","free-sort","64","453597","0.0-9.0","9115.800000190735","","","","","","","","","post_drag","","","","fast","","","","","","[{""src"":""https://ziweizhang0304.github.io/Stats_learning_trig/img/Stim/FN_009_g.png"",""x"":475,""y"":0},{""src"":""https://ziweizhang0304.github.io/Stats_learning_trig/img/Stim/FN_001_g.png"",""x"":-225,""y"":50},{""src"":""https://ziweizhang0304.github.io/Stats_learning_trig/img/Stim/FN_022_g.png"",""x"":475,""y"":50}]","[{""src"":""https://ziweizhang0304.github.io/Stats_learning_trig/img/Stim/FN_001_g.png"",""x"":22,""y"":26},{""src"":""https://ziweizhang0304.github.io/Stats_learning_trig/img/Stim/FN_009_g.png"",""x"":109,""y"":38},{""src"":""https://ziweizhang0304.github.io/Stats_learning_trig/img/Stim/FN_022_g.png"",""x"":186,""y"":0}]","[{""src"":""https://ziweizhang0304.github.io/Stats_learning_trig/img/Stim/FN_009_g.png"",""x"":109,""y"":38},{""src"":""https://ziweizhang0304.github.io/Stats_learning_trig/img/Stim/FN_001_g.png"",""x"":22,""y"":26},{""src"":""https://ziweizhang0304.github.io/Stats_learning_trig/img/Stim/FN_022_g.png"",""x"":186,""y"":0}]",""
"","free-sort","65","468770","0.0-10.0","15170.100000143051","","","","","","","","","post_drag","","","","slow","","","","","","[{""src"":""https://ziweizhang0304.github.io/Stats_learning_trig/img/Stim/FN_007_g.png"",""x"":475,""y"":0},{""src"":""https://ziweizhang0304.github.io/Stats_learning_trig/img/Stim/FN_010_g.png"",""x"":-225,""y"":50},{""src"":""https://ziweizhang0304.github.io/Stats_learning_trig/img/Stim/FN_020_g.png"",""x"":475,""y"":50}]","[{""src"":""https://ziweizhang0304.github.io/Stats_learning_trig/img/Stim/FN_020_g.png"",""x"":7,""y"":18},{""src"":""https://ziweizhang0304.github.io/Stats_learning_trig/img/Stim/FN_010_g.png"",""x"":79,""y"":36},{""src"":""https://ziweizhang0304.github.io/Stats_learning_trig/img/Stim/FN_007_g.png"",""x"":225,""y"":13}]","[{""src"":""https://ziweizhang0304.github.io/Stats_learning_trig/img/Stim/FN_007_g.png"",""x"":225,""y"":13},{""src"":""https://ziweizhang0304.github.io/Stats_learning_trig/img/Stim/FN_010_g.png"",""x"":79,""y"":36},{""src"":""https://ziweizhang0304.github.io/Stats_learning_trig/img/Stim/FN_020_g.png"",""x"":7,""y"":18}]",""
"","survey-multi-choice","66","476063","0.0-11.0","7281.599999904633","","","","","","","","","","","","","","","","62029a55ef1cb18a1337c61a","","{""awareness"":""Yes"",""attention_check"":""Press SPACEBAR to a target""}","","","","[0,1]"
