"success","trial_type","trial_index","time_elapsed","internal_node_id","rt","url","view_history","stimulus","key_press","animation_sequence","response","TD_rt","TD_target","test_part","TD_trial_number","onset","offset","attention_state","TD_target_position","TD_within_triplet_counter","participant","yoke_participant","responses","init_locations","moves","final_locations","question_order"
"true","fullscreen","0","2661","0.0-0.0","","","","","","","","","","","","","","","","","","","","","","",""
"","external-html","1","10905","0.0-1.0","8080.099999964237","https://ziweizhang0304.github.io/Stats_learning_trig/content/consent.html","","","","","","","","","","","","","","","","","","","","",""
"","instructions","2","30842","0.0-2.0","19924.19999998808","","[{""page_index"":0,""viewing_time"":1311.4000000357628},{""page_index"":1,""viewing_time"":7710.399999976158},{""page_index"":2,""viewing_time"":8979.899999976158},{""page_index"":3,""viewing_time"":1922.1000000238419}]","","","","","","","","","","","","","","","","","","","",""
"","image-keyboard-response","3","37886","0.0-3.0-0.0-0.0","7043.699999988079","","","https://ziweizhang0304.github.io/Stats_learning_trig/img/Stim/FN_014_g.png","13","","","","","","","","","","","","","","","","","",""
"","animation","4","42308","0.0-3.0-0.0-1.0","","","","","","[{""stimulus"":""https://ziweizhang0304.github.io/Stats_learning_trig/img/Stim/FN_015_g.png"",""time"":350.80000001192093},{""stimulus"":""blank"",""time"":661.5},{""stimulus"":""https://ziweizhang0304.github.io/Stats_learning_trig/img/Stim/FN_024_g.png"",""time"":681.3000000119209},{""stimulus"":""blank"",""time"":991.1000000238419},{""stimulus"":""https://ziweizhang0304.github.io/Stats_learning_trig/img/Stim/FN_016_g.png"",""time"":1021.6000000238419},{""stimulus"":""blank"",""time"":1333.9000000357628},{""stimulus"":""https://ziweizhang0304.github.io/Stats_learning_trig/img/Stim/FN_011_g.png"",""time"":1361.199999988079},{""stimulus"":""blank"",""time"":1664},{""stimulus"":""https://ziweizhang0304.github.io/Stats_learning_trig/img/Stim/FN_014_g.png"",""time"":1720.5},{""stimulus"":""blank"",""time"":2023.1000000238419},{""stimulus"":""https://ziweizhang0304.github.io/Stats_learning_trig/img/Stim/FN_003_g.png"",""time"":2053.300000011921},{""stimulus"":""blank"",""time"":2363},{""stimulus"":""https://ziweizhang0304.github.io/Stats_learning_trig/img/Stim/FN_013_g.png"",""time"":2380.400000035763},{""stimulus"":""blank"",""time"":2689.900000035763},{""stimulus"":""https://ziweizhang0304.github.io/Stats_learning_trig/img/Stim/FN_022_g.png"",""time"":2736.300000011921},{""stimulus"":""blank"",""time"":3048.400000035763},{""stimulus"":""https://ziweizhang0304.github.io/Stats_learning_trig/img/Stim/FN_021_g.png"",""time"":3060.699999988079},{""stimulus"":""blank"",""time"":3363.900000035763},{""stimulus"":""https://ziweizhang0304.github.io/Stats_learning_trig/img/Stim/FN_005_g.png"",""time"":3401.199999988079},{""stimulus"":""blank"",""time"":3709.800000011921},{""stimulus"":""https://ziweizhang0304.github.io/Stats_learning_trig/img/Stim/FN_012_g.png"",""time"":3742.199999988079},{""stimulus"":""blank"",""time"":4051.300000011921},{""stimulus"":""https://ziweizhang0304.github.io/Stats_learning_trig/img/Stim/FN_017_g.png"",""time"":4080.600000023842},{""stimulus"":""blank"",""time"":4395.199999988079}]","[{""key_press"":32,""rt"":2200.699999988079,""stimulus"":""https://ziweizhang0304.github.io/Stats_learning_trig/img/Stim/FN_003_g.png""}]","480.19999998807907","https://ziweizhang0304.github.io/Stats_learning_trig/img/Stim/FN_014_g.png","post_prac","","","","","","","","","","","","",""
"","html-keyboard-response","5","48091","0.0-3.0-0.0-2.0","5773.699999988079","","","<p>Your reaction time for this trial was 480.2 ms.</p><p>Remember that you should only press the SPACEBAR when you see the shape presented at the beginning of the trial. </b> </p><p>Press enter to move on.</p>","13","","","","","","","","","","","","","","","","","",""
"","image-keyboard-response","6","50615","0.0-3.0-1.0-0.0","2523.900000035763","","","https://ziweizhang0304.github.io/Stats_learning_trig/img/Stim/FN_002_g.png","13","","","","","","","","","","","","","","","","","",""
"","animation","7","55042","0.0-3.0-1.0-1.0","","","","","","[{""stimulus"":""https://ziweizhang0304.github.io/Stats_learning_trig/img/Stim/FN_021_g.png"",""time"":345.7000000476837},{""stimulus"":""blank"",""time"":646.6000000238419},{""stimulus"":""https://ziweizhang0304.github.io/Stats_learning_trig/img/Stim/FN_022_g.png"",""time"":685.5},{""stimulus"":""blank"",""time"":996.4000000357628},{""stimulus"":""https://ziweizhang0304.github.io/Stats_learning_trig/img/Stim/FN_003_g.png"",""time"":1027.9000000357628},{""stimulus"":""blank"",""time"":1337.2000000476837},{""stimulus"":""https://ziweizhang0304.github.io/Stats_learning_trig/img/Stim/FN_002_g.png"",""time"":1368.6000000238419},{""stimulus"":""blank"",""time"":1680.800000011921},{""stimulus"":""https://ziweizhang0304.github.io/Stats_learning_trig/img/Stim/FN_020_g.png"",""time"":1701.2000000476837},{""stimulus"":""blank"",""time"":2010.6000000238419},{""stimulus"":""https://ziweizhang0304.github.io/Stats_learning_trig/img/Stim/FN_025_g.png"",""time"":2041.2000000476837},{""stimulus"":""blank"",""time"":2354.2000000476837},{""stimulus"":""https://ziweizhang0304.github.io/Stats_learning_trig/img/Stim/FN_011_g.png"",""time"":2381.2000000476837},{""stimulus"":""blank"",""time"":2696.300000011921},{""stimulus"":""https://ziweizhang0304.github.io/Stats_learning_trig/img/Stim/FN_016_g.png"",""time"":2727.900000035763},{""stimulus"":""blank"",""time"":3040.400000035763},{""stimulus"":""https://ziweizhang0304.github.io/Stats_learning_trig/img/Stim/FN_024_g.png"",""time"":3071.100000023842},{""stimulus"":""blank"",""time"":3383},{""stimulus"":""https://ziweizhang0304.github.io/Stats_learning_trig/img/Stim/FN_015_g.png"",""time"":3401.600000023842},{""stimulus"":""blank"",""time"":3710.2000000476837},{""stimulus"":""https://ziweizhang0304.github.io/Stats_learning_trig/img/Stim/FN_013_g.png"",""time"":3741.2000000476837},{""stimulus"":""blank"",""time"":4052.600000023842},{""stimulus"":""https://ziweizhang0304.github.io/Stats_learning_trig/img/Stim/FN_012_g.png"",""time"":4083.300000011921},{""stimulus"":""blank"",""time"":4395.5}]","[{""key_press"":32,""rt"":646.3999999761581,""stimulus"":""https://ziweizhang0304.github.io/Stats_learning_trig/img/Stim/FN_021_g.png""},{""key_press"":32,""rt"":1732.300000011921,""stimulus"":""https://ziweizhang0304.github.io/Stats_learning_trig/img/Stim/FN_020_g.png""}]","363.69999998807907","https://ziweizhang0304.github.io/Stats_learning_trig/img/Stim/FN_002_g.png","post_prac","","","","","","","","","","","","",""
"","html-keyboard-response","8","57762","0.0-3.0-1.0-2.0","2715.899999976158","","","<p>Your reaction time for this trial was 363.7 ms.</p><p>Remember that you should only press the SPACEBAR when you see the shape presented at the beginning of the trial. </b> </p><p>Press enter to move on.</p>","13","","","","","","","","","","","","","","","","","",""
"","image-keyboard-response","9","59934","0.0-3.0-2.0-0.0","2171.199999988079","","","https://ziweizhang0304.github.io/Stats_learning_trig/img/Stim/FN_020_g.png","13","","","","","","","","","","","","","","","","","",""
"","animation","10","64356","0.0-3.0-2.0-1.0","","","","","","[{""stimulus"":""https://ziweizhang0304.github.io/Stats_learning_trig/img/Stim/FN_003_g.png"",""time"":341.89999997615814},{""stimulus"":""blank"",""time"":652.1999999880791},{""stimulus"":""https://ziweizhang0304.github.io/Stats_learning_trig/img/Stim/FN_016_g.png"",""time"":683.5},{""stimulus"":""blank"",""time"":993.3000000119209},{""stimulus"":""https://ziweizhang0304.github.io/Stats_learning_trig/img/Stim/FN_021_g.png"",""time"":1021.0999999642372},{""stimulus"":""blank"",""time"":1336.300000011921},{""stimulus"":""https://ziweizhang0304.github.io/Stats_learning_trig/img/Stim/FN_013_g.png"",""time"":1368.5999999642372},{""stimulus"":""blank"",""time"":1680.300000011921},{""stimulus"":""https://ziweizhang0304.github.io/Stats_learning_trig/img/Stim/FN_011_g.png"",""time"":1706.800000011921},{""stimulus"":""blank"",""time"":2022.300000011921},{""stimulus"":""https://ziweizhang0304.github.io/Stats_learning_trig/img/Stim/FN_002_g.png"",""time"":2052.699999988079},{""stimulus"":""blank"",""time"":2365.699999988079},{""stimulus"":""https://ziweizhang0304.github.io/Stats_learning_trig/img/Stim/FN_020_g.png"",""time"":2381.199999988079},{""stimulus"":""blank"",""time"":2694.399999976158},{""stimulus"":""https://ziweizhang0304.github.io/Stats_learning_trig/img/Stim/FN_025_g.png"",""time"":2723},{""stimulus"":""blank"",""time"":3036.800000011921},{""stimulus"":""https://ziweizhang0304.github.io/Stats_learning_trig/img/Stim/FN_022_g.png"",""time"":3061.5},{""stimulus"":""blank"",""time"":3364.199999988079},{""stimulus"":""https://ziweizhang0304.github.io/Stats_learning_trig/img/Stim/FN_024_g.png"",""time"":3405.300000011921},{""stimulus"":""blank"",""time"":3706.899999976158},{""stimulus"":""https://ziweizhang0304.github.io/Stats_learning_trig/img/Stim/FN_015_g.png"",""time"":3740.699999988079},{""stimulus"":""blank"",""time"":4051.399999976158},{""stimulus"":""https://ziweizhang0304.github.io/Stats_learning_trig/img/Stim/FN_012_g.png"",""time"":4082.699999988079},{""stimulus"":""blank"",""time"":4392.800000011921}]","[{""key_press"":32,""rt"":2757.100000023842,""stimulus"":""https://ziweizhang0304.github.io/Stats_learning_trig/img/Stim/FN_025_g.png""}]","375.9000000357628","https://ziweizhang0304.github.io/Stats_learning_trig/img/Stim/FN_020_g.png","post_prac","","","","","","","","","","","","",""
"","html-keyboard-response","11","66137","0.0-3.0-2.0-2.0","1777.0999999642372","","","<p>Your reaction time for this trial was 375.9 ms.</p><p>Remember that you should only press the SPACEBAR when you see the shape presented at the beginning of the trial. </b> </p><p>Press enter to move on.</p>","13","","","","","","","","","","","","","","","","","",""
"","instructions","12","70067","0.0-4.0","3930.100000023842","","[{""page_index"":0,""viewing_time"":3930.100000023842}]","","","","","","","","","","","","","","","","","","","",""
"","image-keyboard-response","13","80152","0.0-5.0-0.0-0.0","10083.600000023842","","","https://ziweizhang0304.github.io/Stats_learning_trig/img/Stim/FN_002_g.png","13","","","","","","","","","","","","","","","","","",""
"","animation","14","84574","0.0-5.0-0.0-1.0","","","","","","[{""stimulus"":""https://ziweizhang0304.github.io/Stats_learning_trig/img/Stim/FN_016_g.png"",""time"":348.80000001192093},{""stimulus"":""blank"",""time"":658.6000000238419},{""stimulus"":""https://ziweizhang0304.github.io/Stats_learning_trig/img/Stim/FN_021_g.png"",""time"":689.6999999880791},{""stimulus"":""blank"",""time"":1000.8000000119209},{""stimulus"":""https://ziweizhang0304.github.io/Stats_learning_trig/img/Stim/FN_015_g.png"",""time"":1029},{""stimulus"":""blank"",""time"":1343.800000011921},{""stimulus"":""https://ziweizhang0304.github.io/Stats_learning_trig/img/Stim/FN_022_g.png"",""time"":1374.699999988079},{""stimulus"":""blank"",""time"":1683.8999999761581},{""stimulus"":""https://ziweizhang0304.github.io/Stats_learning_trig/img/Stim/FN_011_g.png"",""time"":1712.300000011921},{""stimulus"":""blank"",""time"":2026},{""stimulus"":""https://ziweizhang0304.github.io/Stats_learning_trig/img/Stim/FN_013_g.png"",""time"":2042},{""stimulus"":""blank"",""time"":2352.399999976158},{""stimulus"":""https://ziweizhang0304.github.io/Stats_learning_trig/img/Stim/FN_002_g.png"",""time"":2381.399999976158},{""stimulus"":""blank"",""time"":2692.199999988079},{""stimulus"":""https://ziweizhang0304.github.io/Stats_learning_trig/img/Stim/FN_020_g.png"",""time"":2721},{""stimulus"":""blank"",""time"":3036.699999988079},{""stimulus"":""https://ziweizhang0304.github.io/Stats_learning_trig/img/Stim/FN_025_g.png"",""time"":3061.100000023842},{""stimulus"":""blank"",""time"":3363.699999988079},{""stimulus"":""https://ziweizhang0304.github.io/Stats_learning_trig/img/Stim/FN_024_g.png"",""time"":3401.800000011921},{""stimulus"":""blank"",""time"":3705.5},{""stimulus"":""https://ziweizhang0304.github.io/Stats_learning_trig/img/Stim/FN_012_g.png"",""time"":3744.5},{""stimulus"":""blank"",""time"":4047.800000011921},{""stimulus"":""https://ziweizhang0304.github.io/Stats_learning_trig/img/Stim/FN_003_g.png"",""time"":4081},{""stimulus"":""blank"",""time"":4391.199999988079}]","[{""key_press"":32,""rt"":2765.199999988079,""stimulus"":""https://ziweizhang0304.github.io/Stats_learning_trig/img/Stim/FN_020_g.png""}]","383.80000001192093","https://ziweizhang0304.github.io/Stats_learning_trig/img/Stim/FN_002_g.png","post_TD","1","2381.399999976158","2765.199999988079","slow","7","1","5e0f443e8205266652153f5e","","","","","",""
"","image-keyboard-response","15","87216","0.0-5.0-1.0-0.0","2638.600000023842","","","https://ziweizhang0304.github.io/Stats_learning_trig/img/Stim/FN_017_g.png","13","","","","","","","","","","","","","","","","","",""
"","animation","16","91650","0.0-5.0-1.0-1.0","","","","","","[{""stimulus"":""https://ziweizhang0304.github.io/Stats_learning_trig/img/Stim/FN_021_g.png"",""time"":351.19999998807907},{""stimulus"":""blank"",""time"":660.0999999642372},{""stimulus"":""https://ziweizhang0304.github.io/Stats_learning_trig/img/Stim/FN_024_g.png"",""time"":681.0999999642372},{""stimulus"":""blank"",""time"":987.3000000119209},{""stimulus"":""https://ziweizhang0304.github.io/Stats_learning_trig/img/Stim/FN_012_g.png"",""time"":1021.5},{""stimulus"":""blank"",""time"":1329.300000011921},{""stimulus"":""https://ziweizhang0304.github.io/Stats_learning_trig/img/Stim/FN_014_g.png"",""time"":1361.699999988079},{""stimulus"":""blank"",""time"":1672.5999999642372},{""stimulus"":""https://ziweizhang0304.github.io/Stats_learning_trig/img/Stim/FN_005_g.png"",""time"":1703.5},{""stimulus"":""blank"",""time"":2016.699999988079},{""stimulus"":""https://ziweizhang0304.github.io/Stats_learning_trig/img/Stim/FN_017_g.png"",""time"":2044.199999988079},{""stimulus"":""blank"",""time"":2358.699999988079},{""stimulus"":""https://ziweizhang0304.github.io/Stats_learning_trig/img/Stim/FN_011_g.png"",""time"":2381.399999976158},{""stimulus"":""blank"",""time"":2687.899999976158},{""stimulus"":""https://ziweizhang0304.github.io/Stats_learning_trig/img/Stim/FN_016_g.png"",""time"":2721.5},{""stimulus"":""blank"",""time"":3031.099999964237},{""stimulus"":""https://ziweizhang0304.github.io/Stats_learning_trig/img/Stim/FN_022_g.png"",""time"":3061},{""stimulus"":""blank"",""time"":3372},{""stimulus"":""https://ziweizhang0304.github.io/Stats_learning_trig/img/Stim/FN_015_g.png"",""time"":3402.599999964237},{""stimulus"":""blank"",""time"":3716.599999964237},{""stimulus"":""https://ziweizhang0304.github.io/Stats_learning_trig/img/Stim/FN_013_g.png"",""time"":3743.899999976158},{""stimulus"":""blank"",""time"":4059.099999964237},{""stimulus"":""https://ziweizhang0304.github.io/Stats_learning_trig/img/Stim/FN_003_g.png"",""time"":4091.699999988079},{""stimulus"":""blank"",""time"":4402.800000011921}]","[{""key_press"":32,""rt"":2413.600000023842,""stimulus"":""https://ziweizhang0304.github.io/Stats_learning_trig/img/Stim/FN_011_g.png""}]","369.4000000357628","https://ziweizhang0304.github.io/Stats_learning_trig/img/Stim/FN_017_g.png","post_TD","2","2044.199999988079","2413.600000023842","fast","6","3","5e0f443e8205266652153f5e","","","","","",""
"","image-keyboard-response","17","92717","0.0-5.0-2.0-0.0","1063.8999999761581","","","https://ziweizhang0304.github.io/Stats_learning_trig/img/Stim/FN_020_g.png","13","","","","","","","","","","","","","","","","","",""
"","animation","18","97141","0.0-5.0-2.0-1.0","","","","","","[{""stimulus"":""https://ziweizhang0304.github.io/Stats_learning_trig/img/Stim/FN_021_g.png"",""time"":356.30000001192093},{""stimulus"":""blank"",""time"":666.5},{""stimulus"":""https://ziweizhang0304.github.io/Stats_learning_trig/img/Stim/FN_022_g.png"",""time"":682.3999999761581},{""stimulus"":""blank"",""time"":995.5},{""stimulus"":""https://ziweizhang0304.github.io/Stats_learning_trig/img/Stim/FN_003_g.png"",""time"":1025.1000000238419},{""stimulus"":""blank"",""time"":1338.199999988079},{""stimulus"":""https://ziweizhang0304.github.io/Stats_learning_trig/img/Stim/FN_002_g.png"",""time"":1369.1000000238419},{""stimulus"":""blank"",""time"":1669.3999999761581},{""stimulus"":""https://ziweizhang0304.github.io/Stats_learning_trig/img/Stim/FN_020_g.png"",""time"":1700.800000011921},{""stimulus"":""blank"",""time"":2005.699999988079},{""stimulus"":""https://ziweizhang0304.github.io/Stats_learning_trig/img/Stim/FN_025_g.png"",""time"":2052.5},{""stimulus"":""blank"",""time"":2366.399999976158},{""stimulus"":""https://ziweizhang0304.github.io/Stats_learning_trig/img/Stim/FN_011_g.png"",""time"":2382},{""stimulus"":""blank"",""time"":2692.399999976158},{""stimulus"":""https://ziweizhang0304.github.io/Stats_learning_trig/img/Stim/FN_016_g.png"",""time"":2721.399999976158},{""stimulus"":""blank"",""time"":3023.300000011921},{""stimulus"":""https://ziweizhang0304.github.io/Stats_learning_trig/img/Stim/FN_024_g.png"",""time"":3061.399999976158},{""stimulus"":""blank"",""time"":3368.399999976158},{""stimulus"":""https://ziweizhang0304.github.io/Stats_learning_trig/img/Stim/FN_015_g.png"",""time"":3407.5},{""stimulus"":""blank"",""time"":3709.399999976158},{""stimulus"":""https://ziweizhang0304.github.io/Stats_learning_trig/img/Stim/FN_013_g.png"",""time"":3741.5},{""stimulus"":""blank"",""time"":4053.300000011921},{""stimulus"":""https://ziweizhang0304.github.io/Stats_learning_trig/img/Stim/FN_012_g.png"",""time"":4081},{""stimulus"":""blank"",""time"":4395.300000011921}]","[{""key_press"":32,""rt"":1659.699999988079,""stimulus"":""https://ziweizhang0304.github.io/Stats_learning_trig/img/Stim/FN_002_g.png""}]","NaN","https://ziweizhang0304.github.io/Stats_learning_trig/img/Stim/FN_020_g.png","post_TD","3","1700.800000011921","","slow","5","2","5e0f443e8205266652153f5e","","","","","",""
"","image-keyboard-response","19","99183","0.0-5.0-3.0-0.0","2039.8999999761581","","","https://ziweizhang0304.github.io/Stats_learning_trig/img/Stim/FN_020_g.png","13","","","","","","","","","","","","","","","","","",""
"","animation","20","103604","0.0-5.0-3.0-1.0","","","","","","[{""stimulus"":""https://ziweizhang0304.github.io/Stats_learning_trig/img/Stim/FN_016_g.png"",""time"":353.30000001192093},{""stimulus"":""blank"",""time"":664},{""stimulus"":""https://ziweizhang0304.github.io/Stats_learning_trig/img/Stim/FN_021_g.png"",""time"":681.4000000357628},{""stimulus"":""blank"",""time"":991},{""stimulus"":""https://ziweizhang0304.github.io/Stats_learning_trig/img/Stim/FN_015_g.png"",""time"":1021.2000000476837},{""stimulus"":""blank"",""time"":1332.800000011921},{""stimulus"":""https://ziweizhang0304.github.io/Stats_learning_trig/img/Stim/FN_022_g.png"",""time"":1363.300000011921},{""stimulus"":""blank"",""time"":1676.9000000357628},{""stimulus"":""https://ziweizhang0304.github.io/Stats_learning_trig/img/Stim/FN_011_g.png"",""time"":1705.4000000357628},{""stimulus"":""blank"",""time"":2019.9000000357628},{""stimulus"":""https://ziweizhang0304.github.io/Stats_learning_trig/img/Stim/FN_013_g.png"",""time"":2051.7000000476837},{""stimulus"":""blank"",""time"":2364.100000023842},{""stimulus"":""https://ziweizhang0304.github.io/Stats_learning_trig/img/Stim/FN_002_g.png"",""time"":2381.400000035763},{""stimulus"":""blank"",""time"":2689.800000011921},{""stimulus"":""https://ziweizhang0304.github.io/Stats_learning_trig/img/Stim/FN_020_g.png"",""time"":2721.2000000476837},{""stimulus"":""blank"",""time"":3031.800000011921},{""stimulus"":""https://ziweizhang0304.github.io/Stats_learning_trig/img/Stim/FN_025_g.png"",""time"":3063.900000035763},{""stimulus"":""blank"",""time"":3374.900000035763},{""stimulus"":""https://ziweizhang0304.github.io/Stats_learning_trig/img/Stim/FN_024_g.png"",""time"":3404},{""stimulus"":""blank"",""time"":3716},{""stimulus"":""https://ziweizhang0304.github.io/Stats_learning_trig/img/Stim/FN_012_g.png"",""time"":3740.900000035763},{""stimulus"":""blank"",""time"":4043.100000023842},{""stimulus"":""https://ziweizhang0304.github.io/Stats_learning_trig/img/Stim/FN_003_g.png"",""time"":4087.600000023842},{""stimulus"":""blank"",""time"":4389}]","[{""key_press"":32,""rt"":3019.199999988079,""stimulus"":""https://ziweizhang0304.github.io/Stats_learning_trig/img/Stim/FN_020_g.png""}]","297.99999994039536","https://ziweizhang0304.github.io/Stats_learning_trig/img/Stim/FN_020_g.png","post_TD","4","2721.2000000476837","3019.199999988079","slow","8","2","5e0f443e8205266652153f5e","","","","","",""
"","image-keyboard-response","21","104717","0.0-5.0-4.0-0.0","1112.3999999761581","","","https://ziweizhang0304.github.io/Stats_learning_trig/img/Stim/FN_017_g.png","13","","","","","","","","","","","","","","","","","",""
"","animation","22","109143","0.0-5.0-4.0-1.0","","","","","","[{""stimulus"":""https://ziweizhang0304.github.io/Stats_learning_trig/img/Stim/FN_024_g.png"",""time"":352.5},{""stimulus"":""blank"",""time"":663.5999999642372},{""stimulus"":""https://ziweizhang0304.github.io/Stats_learning_trig/img/Stim/FN_003_g.png"",""time"":694},{""stimulus"":""blank"",""time"":1005.7999999523163},{""stimulus"":""https://ziweizhang0304.github.io/Stats_learning_trig/img/Stim/FN_012_g.png"",""time"":1021.2999999523163},{""stimulus"":""blank"",""time"":1333.699999988079},{""stimulus"":""https://ziweizhang0304.github.io/Stats_learning_trig/img/Stim/FN_022_g.png"",""time"":1365.2999999523163},{""stimulus"":""blank"",""time"":1677.2999999523163},{""stimulus"":""https://ziweizhang0304.github.io/Stats_learning_trig/img/Stim/FN_011_g.png"",""time"":1700.5999999642372},{""stimulus"":""blank"",""time"":2003.699999988079},{""stimulus"":""https://ziweizhang0304.github.io/Stats_learning_trig/img/Stim/FN_014_g.png"",""time"":2052.099999964237},{""stimulus"":""blank"",""time"":2365.7999999523163},{""stimulus"":""https://ziweizhang0304.github.io/Stats_learning_trig/img/Stim/FN_005_g.png"",""time"":2381.099999964237},{""stimulus"":""blank"",""time"":2696.699999988079},{""stimulus"":""https://ziweizhang0304.github.io/Stats_learning_trig/img/Stim/FN_017_g.png"",""time"":2728.399999976158},{""stimulus"":""blank"",""time"":3040.699999988079},{""stimulus"":""https://ziweizhang0304.github.io/Stats_learning_trig/img/Stim/FN_016_g.png"",""time"":3067.599999964237},{""stimulus"":""blank"",""time"":3382.699999988079},{""stimulus"":""https://ziweizhang0304.github.io/Stats_learning_trig/img/Stim/FN_015_g.png"",""time"":3400.599999964237},{""stimulus"":""blank"",""time"":3709},{""stimulus"":""https://ziweizhang0304.github.io/Stats_learning_trig/img/Stim/FN_021_g.png"",""time"":3750.899999976158},{""stimulus"":""blank"",""time"":4050.899999976158},{""stimulus"":""https://ziweizhang0304.github.io/Stats_learning_trig/img/Stim/FN_013_g.png"",""time"":4082.099999964237},{""stimulus"":""blank"",""time"":4393.799999952316}]","[{""key_press"":32,""rt"":3089.699999988079,""stimulus"":""https://ziweizhang0304.github.io/Stats_learning_trig/img/Stim/FN_016_g.png""}]","361.30000001192093","https://ziweizhang0304.github.io/Stats_learning_trig/img/Stim/FN_017_g.png","post_TD","5","2728.399999976158","3089.699999988079","fast","8","3","5e0f443e8205266652153f5e","","","","","",""
"","image-keyboard-response","23","110121","0.0-5.0-5.0-0.0","975.6000000238419","","","https://ziweizhang0304.github.io/Stats_learning_trig/img/Stim/FN_020_g.png","13","","","","","","","","","","","","","","","","","",""
"","animation","24","114548","0.0-5.0-5.0-1.0","","","","","","[{""stimulus"":""https://ziweizhang0304.github.io/Stats_learning_trig/img/Stim/FN_016_g.png"",""time"":345.19999998807907},{""stimulus"":""blank"",""time"":659.1000000238419},{""stimulus"":""https://ziweizhang0304.github.io/Stats_learning_trig/img/Stim/FN_021_g.png"",""time"":690.5},{""stimulus"":""blank"",""time"":1001.1000000238419},{""stimulus"":""https://ziweizhang0304.github.io/Stats_learning_trig/img/Stim/FN_024_g.png"",""time"":1029.300000011921},{""stimulus"":""blank"",""time"":1344.1000000238419},{""stimulus"":""https://ziweizhang0304.github.io/Stats_learning_trig/img/Stim/FN_011_g.png"",""time"":1362.699999988079},{""stimulus"":""blank"",""time"":1671.199999988079},{""stimulus"":""https://ziweizhang0304.github.io/Stats_learning_trig/img/Stim/FN_002_g.png"",""time"":1701.699999988079},{""stimulus"":""blank"",""time"":2013.699999988079},{""stimulus"":""https://ziweizhang0304.github.io/Stats_learning_trig/img/Stim/FN_020_g.png"",""time"":2044.5},{""stimulus"":""blank"",""time"":2358},{""stimulus"":""https://ziweizhang0304.github.io/Stats_learning_trig/img/Stim/FN_025_g.png"",""time"":2389.199999988079},{""stimulus"":""blank"",""time"":2701.300000011921},{""stimulus"":""https://ziweizhang0304.github.io/Stats_learning_trig/img/Stim/FN_022_g.png"",""time"":2732.900000035763},{""stimulus"":""blank"",""time"":3046.5},{""stimulus"":""https://ziweizhang0304.github.io/Stats_learning_trig/img/Stim/FN_015_g.png"",""time"":3062.100000023842},{""stimulus"":""blank"",""time"":3372.900000035763},{""stimulus"":""https://ziweizhang0304.github.io/Stats_learning_trig/img/Stim/FN_013_g.png"",""time"":3401.699999988079},{""stimulus"":""blank"",""time"":3716.300000011921},{""stimulus"":""https://ziweizhang0304.github.io/Stats_learning_trig/img/Stim/FN_012_g.png"",""time"":3741.5},{""stimulus"":""blank"",""time"":4043.100000023842},{""stimulus"":""https://ziweizhang0304.github.io/Stats_learning_trig/img/Stim/FN_003_g.png"",""time"":4090.600000023842},{""stimulus"":""blank"",""time"":4397.100000023842}]","[{""key_press"":32,""rt"":3771.300000011921,""stimulus"":""https://ziweizhang0304.github.io/Stats_learning_trig/img/Stim/FN_012_g.png""}]","1726.800000011921","https://ziweizhang0304.github.io/Stats_learning_trig/img/Stim/FN_020_g.png","post_TD","6","2044.5","3771.300000011921","slow","6","2","5e0f443e8205266652153f5e","","","","","",""
"","image-keyboard-response","25","115575","0.0-5.0-6.0-0.0","1024.300000011921","","","https://ziweizhang0304.github.io/Stats_learning_trig/img/Stim/FN_020_g.png","13","","","","","","","","","","","","","","","","","",""
"","animation","26","120003","0.0-5.0-6.0-1.0","","","","","","[{""stimulus"":""https://ziweizhang0304.github.io/Stats_learning_trig/img/Stim/FN_003_g.png"",""time"":346.2999999523163},{""stimulus"":""blank"",""time"":659.1999999880791},{""stimulus"":""https://ziweizhang0304.github.io/Stats_learning_trig/img/Stim/FN_016_g.png"",""time"":689.0999999642372},{""stimulus"":""blank"",""time"":1003.5},{""stimulus"":""https://ziweizhang0304.github.io/Stats_learning_trig/img/Stim/FN_021_g.png"",""time"":1021.1999999880791},{""stimulus"":""blank"",""time"":1330},{""stimulus"":""https://ziweizhang0304.github.io/Stats_learning_trig/img/Stim/FN_013_g.png"",""time"":1360.7999999523163},{""stimulus"":""blank"",""time"":1671.699999988079},{""stimulus"":""https://ziweizhang0304.github.io/Stats_learning_trig/img/Stim/FN_011_g.png"",""time"":1702.2999999523163},{""stimulus"":""blank"",""time"":2012.699999988079},{""stimulus"":""https://ziweizhang0304.github.io/Stats_learning_trig/img/Stim/FN_002_g.png"",""time"":2043.3999999761581},{""stimulus"":""blank"",""time"":2354.2999999523163},{""stimulus"":""https://ziweizhang0304.github.io/Stats_learning_trig/img/Stim/FN_020_g.png"",""time"":2385.399999976158},{""stimulus"":""blank"",""time"":2695.2999999523163},{""stimulus"":""https://ziweizhang0304.github.io/Stats_learning_trig/img/Stim/FN_025_g.png"",""time"":2720.599999964237},{""stimulus"":""blank"",""time"":3024.099999964237},{""stimulus"":""https://ziweizhang0304.github.io/Stats_learning_trig/img/Stim/FN_022_g.png"",""time"":3060.599999964237},{""stimulus"":""blank"",""time"":3368.099999964237},{""stimulus"":""https://ziweizhang0304.github.io/Stats_learning_trig/img/Stim/FN_024_g.png"",""time"":3400.699999988079},{""stimulus"":""blank"",""time"":3709.899999976158},{""stimulus"":""https://ziweizhang0304.github.io/Stats_learning_trig/img/Stim/FN_015_g.png"",""time"":3741.5},{""stimulus"":""blank"",""time"":4055.2999999523163},{""stimulus"":""https://ziweizhang0304.github.io/Stats_learning_trig/img/Stim/FN_012_g.png"",""time"":4086},{""stimulus"":""blank"",""time"":4396.199999988079}]","[{""key_press"":32,""rt"":2705.5,""stimulus"":""blank""}]","320.10000002384186","https://ziweizhang0304.github.io/Stats_learning_trig/img/Stim/FN_020_g.png","post_TD","7","2385.399999976158","2705.5","slow","7","2","5e0f443e8205266652153f5e","","","","","",""
"","image-keyboard-response","27","121349","0.0-5.0-7.0-0.0","1344.5","","","https://ziweizhang0304.github.io/Stats_learning_trig/img/Stim/FN_025_g.png","13","","","","","","","","","","","","","","","","","",""
"","animation","28","125771","0.0-5.0-7.0-1.0","","","","","","[{""stimulus"":""https://ziweizhang0304.github.io/Stats_learning_trig/img/Stim/FN_021_g.png"",""time"":344.60000002384186},{""stimulus"":""blank"",""time"":656.1999999880791},{""stimulus"":""https://ziweizhang0304.github.io/Stats_learning_trig/img/Stim/FN_022_g.png"",""time"":681.3999999761581},{""stimulus"":""blank"",""time"":985.1000000238419},{""stimulus"":""https://ziweizhang0304.github.io/Stats_learning_trig/img/Stim/FN_003_g.png"",""time"":1029.6000000238419},{""stimulus"":""blank"",""time"":1342.300000011921},{""stimulus"":""https://ziweizhang0304.github.io/Stats_learning_trig/img/Stim/FN_002_g.png"",""time"":1360.8999999761581},{""stimulus"":""blank"",""time"":1668.8999999761581},{""stimulus"":""https://ziweizhang0304.github.io/Stats_learning_trig/img/Stim/FN_020_g.png"",""time"":1701.699999988079},{""stimulus"":""blank"",""time"":2003.8999999761581},{""stimulus"":""https://ziweizhang0304.github.io/Stats_learning_trig/img/Stim/FN_025_g.png"",""time"":2045.6000000238419},{""stimulus"":""blank"",""time"":2347.5},{""stimulus"":""https://ziweizhang0304.github.io/Stats_learning_trig/img/Stim/FN_011_g.png"",""time"":2381.699999988079},{""stimulus"":""blank"",""time"":2693.300000011921},{""stimulus"":""https://ziweizhang0304.github.io/Stats_learning_trig/img/Stim/FN_016_g.png"",""time"":2725.5},{""stimulus"":""blank"",""time"":3037.300000011921},{""stimulus"":""https://ziweizhang0304.github.io/Stats_learning_trig/img/Stim/FN_024_g.png"",""time"":3068.5},{""stimulus"":""blank"",""time"":3383.399999976158},{""stimulus"":""https://ziweizhang0304.github.io/Stats_learning_trig/img/Stim/FN_015_g.png"",""time"":3411.600000023842},{""stimulus"":""blank"",""time"":3713.399999976158},{""stimulus"":""https://ziweizhang0304.github.io/Stats_learning_trig/img/Stim/FN_013_g.png"",""time"":3743.800000011921},{""stimulus"":""blank"",""time"":4055.100000023842},{""stimulus"":""https://ziweizhang0304.github.io/Stats_learning_trig/img/Stim/FN_012_g.png"",""time"":4081.899999976158},{""stimulus"":""blank"",""time"":4397.399999976158}]","[{""key_press"":32,""rt"":2415.5,""stimulus"":""https://ziweizhang0304.github.io/Stats_learning_trig/img/Stim/FN_011_g.png""}]","369.89999997615814","https://ziweizhang0304.github.io/Stats_learning_trig/img/Stim/FN_025_g.png","post_TD","8","2045.6000000238419","2415.5","slow","6","3","5e0f443e8205266652153f5e","","","","","",""
"","image-keyboard-response","29","126755","0.0-5.0-8.0-0.0","980.8000000119209","","","https://ziweizhang0304.github.io/Stats_learning_trig/img/Stim/FN_025_g.png","13","","","","","","","","","","","","","","","","","",""
"","animation","30","131176","0.0-5.0-8.0-1.0","","","","","","[{""stimulus"":""https://ziweizhang0304.github.io/Stats_learning_trig/img/Stim/FN_016_g.png"",""time"":354.7000000476837},{""stimulus"":""blank"",""time"":665.5},{""stimulus"":""https://ziweizhang0304.github.io/Stats_learning_trig/img/Stim/FN_021_g.png"",""time"":696.2000000476837},{""stimulus"":""blank"",""time"":1008.4000000357628},{""stimulus"":""https://ziweizhang0304.github.io/Stats_learning_trig/img/Stim/FN_015_g.png"",""time"":1023.9000000357628},{""stimulus"":""blank"",""time"":1336.300000011921},{""stimulus"":""https://ziweizhang0304.github.io/Stats_learning_trig/img/Stim/FN_022_g.png"",""time"":1367.6000000238419},{""stimulus"":""blank"",""time"":1677.4000000357628},{""stimulus"":""https://ziweizhang0304.github.io/Stats_learning_trig/img/Stim/FN_011_g.png"",""time"":1708},{""stimulus"":""blank"",""time"":2018.7000000476837},{""stimulus"":""https://ziweizhang0304.github.io/Stats_learning_trig/img/Stim/FN_013_g.png"",""time"":2050.400000035763},{""stimulus"":""blank"",""time"":2361.800000011921},{""stimulus"":""https://ziweizhang0304.github.io/Stats_learning_trig/img/Stim/FN_002_g.png"",""time"":2392.900000035763},{""stimulus"":""blank"",""time"":2702.900000035763},{""stimulus"":""https://ziweizhang0304.github.io/Stats_learning_trig/img/Stim/FN_020_g.png"",""time"":2735},{""stimulus"":""blank"",""time"":3046.400000035763},{""stimulus"":""https://ziweizhang0304.github.io/Stats_learning_trig/img/Stim/FN_025_g.png"",""time"":3062.2000000476837},{""stimulus"":""blank"",""time"":3376.300000011921},{""stimulus"":""https://ziweizhang0304.github.io/Stats_learning_trig/img/Stim/FN_024_g.png"",""time"":3407.800000011921},{""stimulus"":""blank"",""time"":3719},{""stimulus"":""https://ziweizhang0304.github.io/Stats_learning_trig/img/Stim/FN_012_g.png"",""time"":3749.800000011921},{""stimulus"":""blank"",""time"":4062.100000023842},{""stimulus"":""https://ziweizhang0304.github.io/Stats_learning_trig/img/Stim/FN_003_g.png"",""time"":4093.400000035763},{""stimulus"":""blank"",""time"":4405.300000011921}]","[{""key_press"":32,""rt"":3410,""stimulus"":""https://ziweizhang0304.github.io/Stats_learning_trig/img/Stim/FN_024_g.png""}]","347.7999999523163","https://ziweizhang0304.github.io/Stats_learning_trig/img/Stim/FN_025_g.png","post_TD","9","3062.2000000476837","3410","slow","9","3","5e0f443e8205266652153f5e","","","","","",""
"","image-keyboard-response","31","138625","0.0-5.0-9.0-0.0","7446.399999976158","","","https://ziweizhang0304.github.io/Stats_learning_trig/img/Stim/FN_002_g.png","13","","","","","","","","","","","","","","","","","",""
"","animation","32","143060","0.0-5.0-9.0-1.0","","","","","","[{""stimulus"":""https://ziweizhang0304.github.io/Stats_learning_trig/img/Stim/FN_016_g.png"",""time"":348.19999998807907},{""stimulus"":""blank"",""time"":655.3000000119209},{""stimulus"":""https://ziweizhang0304.github.io/Stats_learning_trig/img/Stim/FN_021_g.png"",""time"":686.8000000119209},{""stimulus"":""blank"",""time"":997.3000000119209},{""stimulus"":""https://ziweizhang0304.github.io/Stats_learning_trig/img/Stim/FN_024_g.png"",""time"":1021.5},{""stimulus"":""blank"",""time"":1323.5},{""stimulus"":""https://ziweizhang0304.github.io/Stats_learning_trig/img/Stim/FN_011_g.png"",""time"":1361.1000000238419},{""stimulus"":""blank"",""time"":1665.5},{""stimulus"":""https://ziweizhang0304.github.io/Stats_learning_trig/img/Stim/FN_002_g.png"",""time"":1701.1000000238419},{""stimulus"":""blank"",""time"":2001.699999988079},{""stimulus"":""https://ziweizhang0304.github.io/Stats_learning_trig/img/Stim/FN_020_g.png"",""time"":2040.800000011921},{""stimulus"":""blank"",""time"":2352.399999976158},{""stimulus"":""https://ziweizhang0304.github.io/Stats_learning_trig/img/Stim/FN_025_g.png"",""time"":2384.100000023842},{""stimulus"":""blank"",""time"":2694},{""stimulus"":""https://ziweizhang0304.github.io/Stats_learning_trig/img/Stim/FN_022_g.png"",""time"":2724.800000011921},{""stimulus"":""blank"",""time"":3036.300000011921},{""stimulus"":""https://ziweizhang0304.github.io/Stats_learning_trig/img/Stim/FN_015_g.png"",""time"":3067.600000023842},{""stimulus"":""blank"",""time"":3369},{""stimulus"":""https://ziweizhang0304.github.io/Stats_learning_trig/img/Stim/FN_013_g.png"",""time"":3402.199999988079},{""stimulus"":""blank"",""time"":3711.600000023842},{""stimulus"":""https://ziweizhang0304.github.io/Stats_learning_trig/img/Stim/FN_012_g.png"",""time"":3742.899999976158},{""stimulus"":""blank"",""time"":4057.300000011921},{""stimulus"":""https://ziweizhang0304.github.io/Stats_learning_trig/img/Stim/FN_003_g.png"",""time"":4088.800000011921},{""stimulus"":""blank"",""time"":4402.699999988079}]","[{""key_press"":32,""rt"":1968.199999988079,""stimulus"":""https://ziweizhang0304.github.io/Stats_learning_trig/img/Stim/FN_002_g.png""}]","267.0999999642372","https://ziweizhang0304.github.io/Stats_learning_trig/img/Stim/FN_002_g.png","post_TD","10","1701.1000000238419","1968.199999988079","slow","5","1","5e0f443e8205266652153f5e","","","","","",""
"","image-keyboard-response","33","143654","0.0-5.0-10.0-0.0","590.5999999642372","","","https://ziweizhang0304.github.io/Stats_learning_trig/img/Stim/FN_005_g.png","13","","","","","","","","","","","","","","","","","",""
"","animation","34","148075","0.0-5.0-10.0-1.0","","","","","","[{""stimulus"":""https://ziweizhang0304.github.io/Stats_learning_trig/img/Stim/FN_024_g.png"",""time"":344.80000001192093},{""stimulus"":""blank"",""time"":655.6999999880791},{""stimulus"":""https://ziweizhang0304.github.io/Stats_learning_trig/img/Stim/FN_003_g.png"",""time"":681.3000000119209},{""stimulus"":""blank"",""time"":984.5},{""stimulus"":""https://ziweizhang0304.github.io/Stats_learning_trig/img/Stim/FN_012_g.png"",""time"":1020.5},{""stimulus"":""blank"",""time"":1325.800000011921},{""stimulus"":""https://ziweizhang0304.github.io/Stats_learning_trig/img/Stim/FN_022_g.png"",""time"":1363.3999999761581},{""stimulus"":""blank"",""time"":1667.699999988079},{""stimulus"":""https://ziweizhang0304.github.io/Stats_learning_trig/img/Stim/FN_011_g.png"",""time"":1713.5},{""stimulus"":""blank"",""time"":2025.800000011921},{""stimulus"":""https://ziweizhang0304.github.io/Stats_learning_trig/img/Stim/FN_014_g.png"",""time"":2041.699999988079},{""stimulus"":""blank"",""time"":2355.800000011921},{""stimulus"":""https://ziweizhang0304.github.io/Stats_learning_trig/img/Stim/FN_005_g.png"",""time"":2381.600000023842},{""stimulus"":""blank"",""time"":2683},{""stimulus"":""https://ziweizhang0304.github.io/Stats_learning_trig/img/Stim/FN_017_g.png"",""time"":2720.5},{""stimulus"":""blank"",""time"":3027.600000023842},{""stimulus"":""https://ziweizhang0304.github.io/Stats_learning_trig/img/Stim/FN_016_g.png"",""time"":3074.199999988079},{""stimulus"":""blank"",""time"":3384.800000011921},{""stimulus"":""https://ziweizhang0304.github.io/Stats_learning_trig/img/Stim/FN_015_g.png"",""time"":3401.399999976158},{""stimulus"":""blank"",""time"":3710.899999976158},{""stimulus"":""https://ziweizhang0304.github.io/Stats_learning_trig/img/Stim/FN_021_g.png"",""time"":3741.300000011921},{""stimulus"":""blank"",""time"":4055},{""stimulus"":""https://ziweizhang0304.github.io/Stats_learning_trig/img/Stim/FN_013_g.png"",""time"":4081.5},{""stimulus"":""blank"",""time"":4386.699999988079}]","[{""key_press"":32,""rt"":2695.7999999523163,""stimulus"":""blank""}]","314.1999999284744","https://ziweizhang0304.github.io/Stats_learning_trig/img/Stim/FN_005_g.png","post_TD","11","2381.600000023842","2695.7999999523163","fast","7","2","5e0f443e8205266652153f5e","","","","","",""
"","image-keyboard-response","35","154008","0.0-5.0-11.0-0.0","5929.399999976158","","","https://ziweizhang0304.github.io/Stats_learning_trig/img/Stim/FN_025_g.png","13","","","","","","","","","","","","","","","","","",""
"","animation","36","158440","0.0-5.0-11.0-1.0","","","","","","[{""stimulus"":""https://ziweizhang0304.github.io/Stats_learning_trig/img/Stim/FN_016_g.png"",""time"":342.30000001192093},{""stimulus"":""blank"",""time"":651.1000000238419},{""stimulus"":""https://ziweizhang0304.github.io/Stats_learning_trig/img/Stim/FN_021_g.png"",""time"":681.8999999761581},{""stimulus"":""blank"",""time"":993.6000000238419},{""stimulus"":""https://ziweizhang0304.github.io/Stats_learning_trig/img/Stim/FN_024_g.png"",""time"":1021.3000000119209},{""stimulus"":""blank"",""time"":1333.199999988079},{""stimulus"":""https://ziweizhang0304.github.io/Stats_learning_trig/img/Stim/FN_011_g.png"",""time"":1361.5},{""stimulus"":""blank"",""time"":1674},{""stimulus"":""https://ziweizhang0304.github.io/Stats_learning_trig/img/Stim/FN_002_g.png"",""time"":1704.1000000238419},{""stimulus"":""blank"",""time"":2016.1000000238419},{""stimulus"":""https://ziweizhang0304.github.io/Stats_learning_trig/img/Stim/FN_020_g.png"",""time"":2047},{""stimulus"":""blank"",""time"":2347.5},{""stimulus"":""https://ziweizhang0304.github.io/Stats_learning_trig/img/Stim/FN_025_g.png"",""time"":2381.399999976158},{""stimulus"":""blank"",""time"":2684.300000011921},{""stimulus"":""https://ziweizhang0304.github.io/Stats_learning_trig/img/Stim/FN_022_g.png"",""time"":2731.899999976158},{""stimulus"":""blank"",""time"":3044.399999976158},{""stimulus"":""https://ziweizhang0304.github.io/Stats_learning_trig/img/Stim/FN_015_g.png"",""time"":3075.699999988079},{""stimulus"":""blank"",""time"":3386.399999976158},{""stimulus"":""https://ziweizhang0304.github.io/Stats_learning_trig/img/Stim/FN_013_g.png"",""time"":3402},{""stimulus"":""blank"",""time"":3714.399999976158},{""stimulus"":""https://ziweizhang0304.github.io/Stats_learning_trig/img/Stim/FN_012_g.png"",""time"":3746},{""stimulus"":""blank"",""time"":4057.800000011921},{""stimulus"":""https://ziweizhang0304.github.io/Stats_learning_trig/img/Stim/FN_003_g.png"",""time"":4086.300000011921},{""stimulus"":""blank"",""time"":4400.699999988079}]","[{""key_press"":32,""rt"":2326.899999976158,""stimulus"":""https://ziweizhang0304.github.io/Stats_learning_trig/img/Stim/FN_020_g.png""}]","NaN","https://ziweizhang0304.github.io/Stats_learning_trig/img/Stim/FN_025_g.png","post_TD","12","2381.399999976158","","slow","7","3","5e0f443e8205266652153f5e","","","","","",""
"","image-keyboard-response","37","159759","0.0-5.0-12.0-0.0","1315.8999999761581","","","https://ziweizhang0304.github.io/Stats_learning_trig/img/Stim/FN_005_g.png","13","","","","","","","","","","","","","","","","","",""
"","animation","38","164185","0.0-5.0-12.0-1.0","","","","","","[{""stimulus"":""https://ziweizhang0304.github.io/Stats_learning_trig/img/Stim/FN_016_g.png"",""time"":348.2000000476837},{""stimulus"":""blank"",""time"":659.5},{""stimulus"":""https://ziweizhang0304.github.io/Stats_learning_trig/img/Stim/FN_011_g.png"",""time"":691},{""stimulus"":""blank"",""time"":1002.4000000357628},{""stimulus"":""https://ziweizhang0304.github.io/Stats_learning_trig/img/Stim/FN_012_g.png"",""time"":1033.9000000357628},{""stimulus"":""blank"",""time"":1344.4000000357628},{""stimulus"":""https://ziweizhang0304.github.io/Stats_learning_trig/img/Stim/FN_015_g.png"",""time"":1362},{""stimulus"":""blank"",""time"":1672.300000011921},{""stimulus"":""https://ziweizhang0304.github.io/Stats_learning_trig/img/Stim/FN_003_g.png"",""time"":1701.9000000357628},{""stimulus"":""blank"",""time"":2015.4000000357628},{""stimulus"":""https://ziweizhang0304.github.io/Stats_learning_trig/img/Stim/FN_024_g.png"",""time"":2047.1000000238419},{""stimulus"":""blank"",""time"":2359},{""stimulus"":""https://ziweizhang0304.github.io/Stats_learning_trig/img/Stim/FN_014_g.png"",""time"":2390.7000000476837},{""stimulus"":""blank"",""time"":2699.900000035763},{""stimulus"":""https://ziweizhang0304.github.io/Stats_learning_trig/img/Stim/FN_005_g.png"",""time"":2730.600000023842},{""stimulus"":""blank"",""time"":3042.400000035763},{""stimulus"":""https://ziweizhang0304.github.io/Stats_learning_trig/img/Stim/FN_017_g.png"",""time"":3061.5},{""stimulus"":""blank"",""time"":3370.2000000476837},{""stimulus"":""https://ziweizhang0304.github.io/Stats_learning_trig/img/Stim/FN_022_g.png"",""time"":3401.600000023842},{""stimulus"":""blank"",""time"":3712.400000035763},{""stimulus"":""https://ziweizhang0304.github.io/Stats_learning_trig/img/Stim/FN_021_g.png"",""time"":3742.7000000476837},{""stimulus"":""blank"",""time"":4054.800000011921},{""stimulus"":""https://ziweizhang0304.github.io/Stats_learning_trig/img/Stim/FN_013_g.png"",""time"":4085.300000011921},{""stimulus"":""blank"",""time"":4395.300000011921}]","[{""key_press"":32,""rt"":3055.600000023842,""stimulus"":""blank""}]","325","https://ziweizhang0304.github.io/Stats_learning_trig/img/Stim/FN_005_g.png","post_TD","13","2730.600000023842","3055.600000023842","fast","8","2","5e0f443e8205266652153f5e","","","","","",""
"","image-keyboard-response","39","165281","0.0-5.0-13.0-0.0","1093.199999988079","","","https://ziweizhang0304.github.io/Stats_learning_trig/img/Stim/FN_002_g.png","13","","","","","","","","","","","","","","","","","",""
"","animation","40","169702","0.0-5.0-13.0-1.0","","","","","","[{""stimulus"":""https://ziweizhang0304.github.io/Stats_learning_trig/img/Stim/FN_003_g.png"",""time"":355.39999997615814},{""stimulus"":""blank"",""time"":665.3999999761581},{""stimulus"":""https://ziweizhang0304.github.io/Stats_learning_trig/img/Stim/FN_016_g.png"",""time"":680.8999999761581},{""stimulus"":""blank"",""time"":994},{""stimulus"":""https://ziweizhang0304.github.io/Stats_learning_trig/img/Stim/FN_021_g.png"",""time"":1025.699999988079},{""stimulus"":""blank"",""time"":1337.3999999761581},{""stimulus"":""https://ziweizhang0304.github.io/Stats_learning_trig/img/Stim/FN_013_g.png"",""time"":1368.699999988079},{""stimulus"":""blank"",""time"":1677.699999988079},{""stimulus"":""https://ziweizhang0304.github.io/Stats_learning_trig/img/Stim/FN_011_g.png"",""time"":1708.5},{""stimulus"":""blank"",""time"":2019},{""stimulus"":""https://ziweizhang0304.github.io/Stats_learning_trig/img/Stim/FN_002_g.png"",""time"":2041.300000011921},{""stimulus"":""blank"",""time"":2347.800000011921},{""stimulus"":""https://ziweizhang0304.github.io/Stats_learning_trig/img/Stim/FN_020_g.png"",""time"":2391.899999976158},{""stimulus"":""blank"",""time"":2706.199999988079},{""stimulus"":""https://ziweizhang0304.github.io/Stats_learning_trig/img/Stim/FN_025_g.png"",""time"":2722},{""stimulus"":""blank"",""time"":3033.300000011921},{""stimulus"":""https://ziweizhang0304.github.io/Stats_learning_trig/img/Stim/FN_022_g.png"",""time"":3064.399999976158},{""stimulus"":""blank"",""time"":3377.600000023842},{""stimulus"":""https://ziweizhang0304.github.io/Stats_learning_trig/img/Stim/FN_024_g.png"",""time"":3408.300000011921},{""stimulus"":""blank"",""time"":3718.300000011921},{""stimulus"":""https://ziweizhang0304.github.io/Stats_learning_trig/img/Stim/FN_015_g.png"",""time"":3742},{""stimulus"":""blank"",""time"":4047.800000011921},{""stimulus"":""https://ziweizhang0304.github.io/Stats_learning_trig/img/Stim/FN_012_g.png"",""time"":4091.100000023842},{""stimulus"":""blank"",""time"":4405.899999976158}]","[{""key_press"":32,""rt"":2390.699999988079,""stimulus"":""blank""}]","349.39999997615814","https://ziweizhang0304.github.io/Stats_learning_trig/img/Stim/FN_002_g.png","post_TD","14","2041.300000011921","2390.699999988079","slow","6","1","5e0f443e8205266652153f5e","","","","","",""
"","image-keyboard-response","41","170109","0.0-5.0-14.0-0.0","405.39999997615814","","","https://ziweizhang0304.github.io/Stats_learning_trig/img/Stim/FN_017_g.png","13","","","","","","","","","","","","","","","","","",""
"","animation","42","174533","0.0-5.0-14.0-1.0","","","","","","[{""stimulus"":""https://ziweizhang0304.github.io/Stats_learning_trig/img/Stim/FN_024_g.png"",""time"":348.4000000357628},{""stimulus"":""blank"",""time"":659.3000000119209},{""stimulus"":""https://ziweizhang0304.github.io/Stats_learning_trig/img/Stim/FN_013_g.png"",""time"":691},{""stimulus"":""blank"",""time"":999.6999999880791},{""stimulus"":""https://ziweizhang0304.github.io/Stats_learning_trig/img/Stim/FN_016_g.png"",""time"":1021.6999999880791},{""stimulus"":""blank"",""time"":1329.699999988079},{""stimulus"":""https://ziweizhang0304.github.io/Stats_learning_trig/img/Stim/FN_012_g.png"",""time"":1361.9000000357628},{""stimulus"":""blank"",""time"":1670.5},{""stimulus"":""https://ziweizhang0304.github.io/Stats_learning_trig/img/Stim/FN_014_g.png"",""time"":1701.4000000357628},{""stimulus"":""blank"",""time"":2014.800000011921},{""stimulus"":""https://ziweizhang0304.github.io/Stats_learning_trig/img/Stim/FN_005_g.png"",""time"":2045.199999988079},{""stimulus"":""blank"",""time"":2354.600000023842},{""stimulus"":""https://ziweizhang0304.github.io/Stats_learning_trig/img/Stim/FN_017_g.png"",""time"":2380.600000023842},{""stimulus"":""blank"",""time"":2681.699999988079},{""stimulus"":""https://ziweizhang0304.github.io/Stats_learning_trig/img/Stim/FN_011_g.png"",""time"":2722.300000011921},{""stimulus"":""blank"",""time"":3029},{""stimulus"":""https://ziweizhang0304.github.io/Stats_learning_trig/img/Stim/FN_022_g.png"",""time"":3061},{""stimulus"":""blank"",""time"":3370.400000035763},{""stimulus"":""https://ziweizhang0304.github.io/Stats_learning_trig/img/Stim/FN_015_g.png"",""time"":3401.300000011921},{""stimulus"":""blank"",""time"":3711.699999988079},{""stimulus"":""https://ziweizhang0304.github.io/Stats_learning_trig/img/Stim/FN_021_g.png"",""time"":3743},{""stimulus"":""blank"",""time"":4052.800000011921},{""stimulus"":""https://ziweizhang0304.github.io/Stats_learning_trig/img/Stim/FN_003_g.png"",""time"":4084.199999988079},{""stimulus"":""blank"",""time"":4392.699999988079}]","[{""key_press"":32,""rt"":2359.899999976158,""stimulus"":""blank""}]","NaN","https://ziweizhang0304.github.io/Stats_learning_trig/img/Stim/FN_017_g.png","post_TD","15","2380.600000023842","","fast","7","3","5e0f443e8205266652153f5e","","","","","",""
"","image-keyboard-response","43","175300","0.0-5.0-15.0-0.0","765.2000000476837","","","https://ziweizhang0304.github.io/Stats_learning_trig/img/Stim/FN_014_g.png","13","","","","","","","","","","","","","","","","","",""
"","animation","44","179720","0.0-5.0-15.0-1.0","","","","","","[{""stimulus"":""https://ziweizhang0304.github.io/Stats_learning_trig/img/Stim/FN_016_g.png"",""time"":341.80000001192093},{""stimulus"":""blank"",""time"":650.8999999761581},{""stimulus"":""https://ziweizhang0304.github.io/Stats_learning_trig/img/Stim/FN_011_g.png"",""time"":682.3999999761581},{""stimulus"":""blank"",""time"":992.8999999761581},{""stimulus"":""https://ziweizhang0304.github.io/Stats_learning_trig/img/Stim/FN_012_g.png"",""time"":1022.1999999880791},{""stimulus"":""blank"",""time"":1332.699999988079},{""stimulus"":""https://ziweizhang0304.github.io/Stats_learning_trig/img/Stim/FN_015_g.png"",""time"":1364.199999988079},{""stimulus"":""blank"",""time"":1673.8999999761581},{""stimulus"":""https://ziweizhang0304.github.io/Stats_learning_trig/img/Stim/FN_003_g.png"",""time"":1702.300000011921},{""stimulus"":""blank"",""time"":2014.3999999761581},{""stimulus"":""https://ziweizhang0304.github.io/Stats_learning_trig/img/Stim/FN_024_g.png"",""time"":2046.1000000238419},{""stimulus"":""blank"",""time"":2359.399999976158},{""stimulus"":""https://ziweizhang0304.github.io/Stats_learning_trig/img/Stim/FN_014_g.png"",""time"":2390},{""stimulus"":""blank"",""time"":2705.600000023842},{""stimulus"":""https://ziweizhang0304.github.io/Stats_learning_trig/img/Stim/FN_005_g.png"",""time"":2720.899999976158},{""stimulus"":""blank"",""time"":3030.899999976158},{""stimulus"":""https://ziweizhang0304.github.io/Stats_learning_trig/img/Stim/FN_017_g.png"",""time"":3061.600000023842},{""stimulus"":""blank"",""time"":3376.899999976158},{""stimulus"":""https://ziweizhang0304.github.io/Stats_learning_trig/img/Stim/FN_022_g.png"",""time"":3408.300000011921},{""stimulus"":""blank"",""time"":3720.800000011921},{""stimulus"":""https://ziweizhang0304.github.io/Stats_learning_trig/img/Stim/FN_021_g.png"",""time"":3751.399999976158},{""stimulus"":""blank"",""time"":4063.899999976158},{""stimulus"":""https://ziweizhang0304.github.io/Stats_learning_trig/img/Stim/FN_013_g.png"",""time"":4094},{""stimulus"":""blank"",""time"":4404.699999988079}]","[{""key_press"":32,""rt"":2731.599999964237,""stimulus"":""https://ziweizhang0304.github.io/Stats_learning_trig/img/Stim/FN_005_g.png""}]","341.5999999642372","https://ziweizhang0304.github.io/Stats_learning_trig/img/Stim/FN_014_g.png","post_TD","16","2390","2731.599999964237","fast","7","1","5e0f443e8205266652153f5e","","","","","",""
"","image-keyboard-response","45","180545","0.0-5.0-16.0-0.0","821.6999999880791","","","https://ziweizhang0304.github.io/Stats_learning_trig/img/Stim/FN_005_g.png","13","","","","","","","","","","","","","","","","","",""
"","animation","46","184967","0.0-5.0-16.0-1.0","","","","","","[{""stimulus"":""https://ziweizhang0304.github.io/Stats_learning_trig/img/Stim/FN_024_g.png"",""time"":356.5},{""stimulus"":""blank"",""time"":665.5},{""stimulus"":""https://ziweizhang0304.github.io/Stats_learning_trig/img/Stim/FN_013_g.png"",""time"":681.1999999880791},{""stimulus"":""blank"",""time"":992.6999999880791},{""stimulus"":""https://ziweizhang0304.github.io/Stats_learning_trig/img/Stim/FN_016_g.png"",""time"":1021.3999999761581},{""stimulus"":""blank"",""time"":1334.5999999642372},{""stimulus"":""https://ziweizhang0304.github.io/Stats_learning_trig/img/Stim/FN_012_g.png"",""time"":1366.300000011921},{""stimulus"":""blank"",""time"":1677.5},{""stimulus"":""https://ziweizhang0304.github.io/Stats_learning_trig/img/Stim/FN_014_g.png"",""time"":1708},{""stimulus"":""blank"",""time"":2019.699999988079},{""stimulus"":""https://ziweizhang0304.github.io/Stats_learning_trig/img/Stim/FN_005_g.png"",""time"":2050.899999976158},{""stimulus"":""blank"",""time"":2362.300000011921},{""stimulus"":""https://ziweizhang0304.github.io/Stats_learning_trig/img/Stim/FN_017_g.png"",""time"":2381.300000011921},{""stimulus"":""blank"",""time"":2688.599999964237},{""stimulus"":""https://ziweizhang0304.github.io/Stats_learning_trig/img/Stim/FN_011_g.png"",""time"":2734.699999988079},{""stimulus"":""blank"",""time"":3045.5},{""stimulus"":""https://ziweizhang0304.github.io/Stats_learning_trig/img/Stim/FN_022_g.png"",""time"":3060.699999988079},{""stimulus"":""blank"",""time"":3372.699999988079},{""stimulus"":""https://ziweizhang0304.github.io/Stats_learning_trig/img/Stim/FN_015_g.png"",""time"":3402.399999976158},{""stimulus"":""blank"",""time"":3717.099999964237},{""stimulus"":""https://ziweizhang0304.github.io/Stats_learning_trig/img/Stim/FN_021_g.png"",""time"":3748.5},{""stimulus"":""blank"",""time"":4056.5},{""stimulus"":""https://ziweizhang0304.github.io/Stats_learning_trig/img/Stim/FN_003_g.png"",""time"":4081},{""stimulus"":""blank"",""time"":4395.199999988079}]","[{""key_press"":32,""rt"":2416.7000000476837,""stimulus"":""https://ziweizhang0304.github.io/Stats_learning_trig/img/Stim/FN_017_g.png""}]","365.8000000715256","https://ziweizhang0304.github.io/Stats_learning_trig/img/Stim/FN_005_g.png","post_TD","17","2050.899999976158","2416.7000000476837","fast","6","2","5e0f443e8205266652153f5e","","","","","",""
"","image-keyboard-response","47","194554","0.0-5.0-17.0-0.0","9584.300000011921","","","https://ziweizhang0304.github.io/Stats_learning_trig/img/Stim/FN_014_g.png","13","","","","","","","","","","","","","","","","","",""
"","animation","48","198977","0.0-5.0-17.0-1.0","","","","","","[{""stimulus"":""https://ziweizhang0304.github.io/Stats_learning_trig/img/Stim/FN_024_g.png"",""time"":350.60000002384186},{""stimulus"":""blank"",""time"":665.1000000238419},{""stimulus"":""https://ziweizhang0304.github.io/Stats_learning_trig/img/Stim/FN_003_g.png"",""time"":695.3000000119209},{""stimulus"":""blank"",""time"":1006.3000000119209},{""stimulus"":""https://ziweizhang0304.github.io/Stats_learning_trig/img/Stim/FN_012_g.png"",""time"":1022.6000000238419},{""stimulus"":""blank"",""time"":1333.4000000357628},{""stimulus"":""https://ziweizhang0304.github.io/Stats_learning_trig/img/Stim/FN_022_g.png"",""time"":1365.4000000357628},{""stimulus"":""blank"",""time"":1676.9000000357628},{""stimulus"":""https://ziweizhang0304.github.io/Stats_learning_trig/img/Stim/FN_011_g.png"",""time"":1703},{""stimulus"":""blank"",""time"":2007.800000011921},{""stimulus"":""https://ziweizhang0304.github.io/Stats_learning_trig/img/Stim/FN_014_g.png"",""time"":2041},{""stimulus"":""blank"",""time"":2350.900000035763},{""stimulus"":""https://ziweizhang0304.github.io/Stats_learning_trig/img/Stim/FN_005_g.png"",""time"":2380.800000011921},{""stimulus"":""blank"",""time"":2697},{""stimulus"":""https://ziweizhang0304.github.io/Stats_learning_trig/img/Stim/FN_017_g.png"",""time"":2728.100000023842},{""stimulus"":""blank"",""time"":3029},{""stimulus"":""https://ziweizhang0304.github.io/Stats_learning_trig/img/Stim/FN_016_g.png"",""time"":3069.5},{""stimulus"":""blank"",""time"":3380.699999988079},{""stimulus"":""https://ziweizhang0304.github.io/Stats_learning_trig/img/Stim/FN_015_g.png"",""time"":3412.300000011921},{""stimulus"":""blank"",""time"":3724.699999988079},{""stimulus"":""https://ziweizhang0304.github.io/Stats_learning_trig/img/Stim/FN_021_g.png"",""time"":3741.600000023842},{""stimulus"":""blank"",""time"":4054.600000023842},{""stimulus"":""https://ziweizhang0304.github.io/Stats_learning_trig/img/Stim/FN_013_g.png"",""time"":4081},{""stimulus"":""blank"",""time"":4383.199999988079}]","[{""key_press"":32,""rt"":2378.899999976158,""stimulus"":""blank""}]","337.89999997615814","https://ziweizhang0304.github.io/Stats_learning_trig/img/Stim/FN_014_g.png","post_TD","18","2041","2378.899999976158","fast","6","1","5e0f443e8205266652153f5e","","","","","",""
"","image-keyboard-response","49","215500","0.0-5.0-18.0-0.0","16520.30000001192","","","https://ziweizhang0304.github.io/Stats_learning_trig/img/Stim/FN_002_g.png","13","","","","","","","","","","","","","","","","","",""
"","animation","50","219925","0.0-5.0-18.0-1.0","","","","","","[{""stimulus"":""https://ziweizhang0304.github.io/Stats_learning_trig/img/Stim/FN_021_g.png"",""time"":354.5999999642372},{""stimulus"":""blank"",""time"":665.3000000119209},{""stimulus"":""https://ziweizhang0304.github.io/Stats_learning_trig/img/Stim/FN_022_g.png"",""time"":695.8000000119209},{""stimulus"":""blank"",""time"":1009},{""stimulus"":""https://ziweizhang0304.github.io/Stats_learning_trig/img/Stim/FN_003_g.png"",""time"":1024.3999999761581},{""stimulus"":""blank"",""time"":1339},{""stimulus"":""https://ziweizhang0304.github.io/Stats_learning_trig/img/Stim/FN_002_g.png"",""time"":1360.8999999761581},{""stimulus"":""blank"",""time"":1668.8999999761581},{""stimulus"":""https://ziweizhang0304.github.io/Stats_learning_trig/img/Stim/FN_020_g.png"",""time"":1701},{""stimulus"":""blank"",""time"":2013.800000011921},{""stimulus"":""https://ziweizhang0304.github.io/Stats_learning_trig/img/Stim/FN_025_g.png"",""time"":2045.800000011921},{""stimulus"":""blank"",""time"":2359.099999964237},{""stimulus"":""https://ziweizhang0304.github.io/Stats_learning_trig/img/Stim/FN_011_g.png"",""time"":2390.899999976158},{""stimulus"":""blank"",""time"":2703.399999976158},{""stimulus"":""https://ziweizhang0304.github.io/Stats_learning_trig/img/Stim/FN_016_g.png"",""time"":2721},{""stimulus"":""blank"",""time"":3036.5},{""stimulus"":""https://ziweizhang0304.github.io/Stats_learning_trig/img/Stim/FN_024_g.png"",""time"":3061.300000011921},{""stimulus"":""blank"",""time"":3364.399999976158},{""stimulus"":""https://ziweizhang0304.github.io/Stats_learning_trig/img/Stim/FN_015_g.png"",""time"":3412.099999964237},{""stimulus"":""blank"",""time"":3723.199999988079},{""stimulus"":""https://ziweizhang0304.github.io/Stats_learning_trig/img/Stim/FN_013_g.png"",""time"":3741.300000011921},{""stimulus"":""blank"",""time"":4050.099999964237},{""stimulus"":""https://ziweizhang0304.github.io/Stats_learning_trig/img/Stim/FN_012_g.png"",""time"":4080.699999988079},{""stimulus"":""blank"",""time"":4393.399999976158}]","[{""key_press"":32,""rt"":1828.5,""stimulus"":""https://ziweizhang0304.github.io/Stats_learning_trig/img/Stim/FN_020_g.png""}]","467.60000002384186","https://ziweizhang0304.github.io/Stats_learning_trig/img/Stim/FN_002_g.png","post_TD","19","1360.8999999761581","1828.5","slow","4","1","5e0f443e8205266652153f5e","","","","","",""
"","image-keyboard-response","51","220473","0.0-5.0-19.0-0.0","546.4000000357628","","","https://ziweizhang0304.github.io/Stats_learning_trig/img/Stim/FN_005_g.png","13","","","","","","","","","","","","","","","","","",""
"","animation","52","224894","0.0-5.0-19.0-1.0","","","","","","[{""stimulus"":""https://ziweizhang0304.github.io/Stats_learning_trig/img/Stim/FN_021_g.png"",""time"":344.5},{""stimulus"":""blank"",""time"":655},{""stimulus"":""https://ziweizhang0304.github.io/Stats_learning_trig/img/Stim/FN_024_g.png"",""time"":685.8999999761581},{""stimulus"":""blank"",""time"":996.8999999761581},{""stimulus"":""https://ziweizhang0304.github.io/Stats_learning_trig/img/Stim/FN_012_g.png"",""time"":1028},{""stimulus"":""blank"",""time"":1336.8999999761581},{""stimulus"":""https://ziweizhang0304.github.io/Stats_learning_trig/img/Stim/FN_014_g.png"",""time"":1367.5},{""stimulus"":""blank"",""time"":1679.699999988079},{""stimulus"":""https://ziweizhang0304.github.io/Stats_learning_trig/img/Stim/FN_005_g.png"",""time"":1706.199999988079},{""stimulus"":""blank"",""time"":2007.699999988079},{""stimulus"":""https://ziweizhang0304.github.io/Stats_learning_trig/img/Stim/FN_017_g.png"",""time"":2042},{""stimulus"":""blank"",""time"":2348.899999976158},{""stimulus"":""https://ziweizhang0304.github.io/Stats_learning_trig/img/Stim/FN_011_g.png"",""time"":2389},{""stimulus"":""blank"",""time"":2702.7999999523163},{""stimulus"":""https://ziweizhang0304.github.io/Stats_learning_trig/img/Stim/FN_016_g.png"",""time"":2733.399999976158},{""stimulus"":""blank"",""time"":3044.099999964237},{""stimulus"":""https://ziweizhang0304.github.io/Stats_learning_trig/img/Stim/FN_022_g.png"",""time"":3072.199999988079},{""stimulus"":""blank"",""time"":3386.7999999523163},{""stimulus"":""https://ziweizhang0304.github.io/Stats_learning_trig/img/Stim/FN_015_g.png"",""time"":3401.199999988079},{""stimulus"":""blank"",""time"":3714.199999988079},{""stimulus"":""https://ziweizhang0304.github.io/Stats_learning_trig/img/Stim/FN_013_g.png"",""time"":3744.5},{""stimulus"":""blank"",""time"":4059.199999988079},{""stimulus"":""https://ziweizhang0304.github.io/Stats_learning_trig/img/Stim/FN_003_g.png"",""time"":4088.199999988079},{""stimulus"":""blank"",""time"":4389.099999964237}]","[{""key_press"":32,""rt"":2080.2999999523163,""stimulus"":""https://ziweizhang0304.github.io/Stats_learning_trig/img/Stim/FN_017_g.png""}]","374.0999999642372","https://ziweizhang0304.github.io/Stats_learning_trig/img/Stim/FN_005_g.png","post_TD","20","1706.199999988079","2080.2999999523163","fast","5","2","5e0f443e8205266652153f5e","","","","","",""
"","image-keyboard-response","53","225539","0.0-5.0-20.0-0.0","641.8000000119209","","","https://ziweizhang0304.github.io/Stats_learning_trig/img/Stim/FN_025_g.png","13","","","","","","","","","","","","","","","","","",""
"","animation","54","229966","0.0-5.0-20.0-1.0","","","","","","[{""stimulus"":""https://ziweizhang0304.github.io/Stats_learning_trig/img/Stim/FN_003_g.png"",""time"":354.0999999642372},{""stimulus"":""blank"",""time"":667.5999999642372},{""stimulus"":""https://ziweizhang0304.github.io/Stats_learning_trig/img/Stim/FN_016_g.png"",""time"":683.3999999761581},{""stimulus"":""blank"",""time"":996.2999999523163},{""stimulus"":""https://ziweizhang0304.github.io/Stats_learning_trig/img/Stim/FN_021_g.png"",""time"":1026.699999988079},{""stimulus"":""blank"",""time"":1338.5},{""stimulus"":""https://ziweizhang0304.github.io/Stats_learning_trig/img/Stim/FN_013_g.png"",""time"":1369.5999999642372},{""stimulus"":""blank"",""time"":1679.8999999761581},{""stimulus"":""https://ziweizhang0304.github.io/Stats_learning_trig/img/Stim/FN_011_g.png"",""time"":1710.7999999523163},{""stimulus"":""blank"",""time"":2022.199999988079},{""stimulus"":""https://ziweizhang0304.github.io/Stats_learning_trig/img/Stim/FN_002_g.png"",""time"":2052.599999964237},{""stimulus"":""blank"",""time"":2363.399999976158},{""stimulus"":""https://ziweizhang0304.github.io/Stats_learning_trig/img/Stim/FN_020_g.png"",""time"":2381.699999988079},{""stimulus"":""blank"",""time"":2691.099999964237},{""stimulus"":""https://ziweizhang0304.github.io/Stats_learning_trig/img/Stim/FN_025_g.png"",""time"":2720.699999988079},{""stimulus"":""blank"",""time"":3020.899999976158},{""stimulus"":""https://ziweizhang0304.github.io/Stats_learning_trig/img/Stim/FN_022_g.png"",""time"":3061.699999988079},{""stimulus"":""blank"",""time"":3366.5},{""stimulus"":""https://ziweizhang0304.github.io/Stats_learning_trig/img/Stim/FN_024_g.png"",""time"":3401.2999999523163},{""stimulus"":""blank"",""time"":3710.199999988079},{""stimulus"":""https://ziweizhang0304.github.io/Stats_learning_trig/img/Stim/FN_015_g.png"",""time"":3741.7999999523163},{""stimulus"":""blank"",""time"":4054},{""stimulus"":""https://ziweizhang0304.github.io/Stats_learning_trig/img/Stim/FN_012_g.png"",""time"":4083.7999999523163},{""stimulus"":""blank"",""time"":4396.199999988079}]","[{""key_press"":32,""rt"":3017.5,""stimulus"":""https://ziweizhang0304.github.io/Stats_learning_trig/img/Stim/FN_025_g.png""}]","296.80000001192093","https://ziweizhang0304.github.io/Stats_learning_trig/img/Stim/FN_025_g.png","post_TD","21","2720.699999988079","3017.5","slow","8","3","5e0f443e8205266652153f5e","","","","","",""
"","image-keyboard-response","55","230910","0.0-5.0-21.0-0.0","940.3000000119209","","","https://ziweizhang0304.github.io/Stats_learning_trig/img/Stim/FN_017_g.png","13","","","","","","","","","","","","","","","","","",""
"","animation","56","235332","0.0-5.0-21.0-1.0","","","","","","[{""stimulus"":""https://ziweizhang0304.github.io/Stats_learning_trig/img/Stim/FN_016_g.png"",""time"":354.10000002384186},{""stimulus"":""blank"",""time"":663.5},{""stimulus"":""https://ziweizhang0304.github.io/Stats_learning_trig/img/Stim/FN_011_g.png"",""time"":694.1000000238419},{""stimulus"":""blank"",""time"":1008.1000000238419},{""stimulus"":""https://ziweizhang0304.github.io/Stats_learning_trig/img/Stim/FN_012_g.png"",""time"":1023.6999999880791},{""stimulus"":""blank"",""time"":1336.6000000238419},{""stimulus"":""https://ziweizhang0304.github.io/Stats_learning_trig/img/Stim/FN_015_g.png"",""time"":1361.6000000238419},{""stimulus"":""blank"",""time"":1664.800000011921},{""stimulus"":""https://ziweizhang0304.github.io/Stats_learning_trig/img/Stim/FN_003_g.png"",""time"":1711.800000011921},{""stimulus"":""blank"",""time"":2023},{""stimulus"":""https://ziweizhang0304.github.io/Stats_learning_trig/img/Stim/FN_024_g.png"",""time"":2054.399999976158},{""stimulus"":""blank"",""time"":2367.600000023842},{""stimulus"":""https://ziweizhang0304.github.io/Stats_learning_trig/img/Stim/FN_014_g.png"",""time"":2383.300000011921},{""stimulus"":""blank"",""time"":2694.600000023842},{""stimulus"":""https://ziweizhang0304.github.io/Stats_learning_trig/img/Stim/FN_005_g.png"",""time"":2726.100000023842},{""stimulus"":""blank"",""time"":3040.399999976158},{""stimulus"":""https://ziweizhang0304.github.io/Stats_learning_trig/img/Stim/FN_017_g.png"",""time"":3073.199999988079},{""stimulus"":""blank"",""time"":3384.300000011921},{""stimulus"":""https://ziweizhang0304.github.io/Stats_learning_trig/img/Stim/FN_022_g.png"",""time"":3401.600000023842},{""stimulus"":""blank"",""time"":3710.199999988079},{""stimulus"":""https://ziweizhang0304.github.io/Stats_learning_trig/img/Stim/FN_021_g.png"",""time"":3741.5},{""stimulus"":""blank"",""time"":4055.5},{""stimulus"":""https://ziweizhang0304.github.io/Stats_learning_trig/img/Stim/FN_013_g.png"",""time"":4085.800000011921},{""stimulus"":""blank"",""time"":4397.600000023842}]","[{""key_press"":32,""rt"":2993.800000011921,""stimulus"":""https://ziweizhang0304.github.io/Stats_learning_trig/img/Stim/FN_005_g.png""}]","NaN","https://ziweizhang0304.github.io/Stats_learning_trig/img/Stim/FN_017_g.png","post_TD","22","3073.199999988079","","fast","9","3","5e0f443e8205266652153f5e","","","","","",""
"","image-keyboard-response","57","236228","0.0-5.0-22.0-0.0","895.1000000238419","","","https://ziweizhang0304.github.io/Stats_learning_trig/img/Stim/FN_014_g.png","13","","","","","","","","","","","","","","","","","",""
"","animation","58","240649","0.0-5.0-22.0-1.0","","","","","","[{""stimulus"":""https://ziweizhang0304.github.io/Stats_learning_trig/img/Stim/FN_024_g.png"",""time"":347},{""stimulus"":""blank"",""time"":657.3000000119209},{""stimulus"":""https://ziweizhang0304.github.io/Stats_learning_trig/img/Stim/FN_013_g.png"",""time"":688.8000000119209},{""stimulus"":""blank"",""time"":1001},{""stimulus"":""https://ziweizhang0304.github.io/Stats_learning_trig/img/Stim/FN_016_g.png"",""time"":1027.4000000357628},{""stimulus"":""blank"",""time"":1342.199999988079},{""stimulus"":""https://ziweizhang0304.github.io/Stats_learning_trig/img/Stim/FN_012_g.png"",""time"":1362.5},{""stimulus"":""blank"",""time"":1670.5},{""stimulus"":""https://ziweizhang0304.github.io/Stats_learning_trig/img/Stim/FN_014_g.png"",""time"":1701.699999988079},{""stimulus"":""blank"",""time"":2014.4000000357628},{""stimulus"":""https://ziweizhang0304.github.io/Stats_learning_trig/img/Stim/FN_005_g.png"",""time"":2040.800000011921},{""stimulus"":""blank"",""time"":2342.5},{""stimulus"":""https://ziweizhang0304.github.io/Stats_learning_trig/img/Stim/FN_017_g.png"",""time"":2389.699999988079},{""stimulus"":""blank"",""time"":2700.900000035763},{""stimulus"":""https://ziweizhang0304.github.io/Stats_learning_trig/img/Stim/FN_011_g.png"",""time"":2731.699999988079},{""stimulus"":""blank"",""time"":3043.100000023842},{""stimulus"":""https://ziweizhang0304.github.io/Stats_learning_trig/img/Stim/FN_022_g.png"",""time"":3073.400000035763},{""stimulus"":""blank"",""time"":3385.300000011921},{""stimulus"":""https://ziweizhang0304.github.io/Stats_learning_trig/img/Stim/FN_015_g.png"",""time"":3401.699999988079},{""stimulus"":""blank"",""time"":3712.800000011921},{""stimulus"":""https://ziweizhang0304.github.io/Stats_learning_trig/img/Stim/FN_021_g.png"",""time"":3740.900000035763},{""stimulus"":""blank"",""time"":4054},{""stimulus"":""https://ziweizhang0304.github.io/Stats_learning_trig/img/Stim/FN_003_g.png"",""time"":4085.400000035763},{""stimulus"":""blank"",""time"":4397.5}]","[{""key_press"":32,""rt"":2100.899999976158,""stimulus"":""https://ziweizhang0304.github.io/Stats_learning_trig/img/Stim/FN_005_g.png""}]","399.19999998807907","https://ziweizhang0304.github.io/Stats_learning_trig/img/Stim/FN_014_g.png","post_TD","23","1701.699999988079","2100.899999976158","fast","5","1","5e0f443e8205266652153f5e","","","","","",""
"","image-keyboard-response","59","241601","0.0-5.0-23.0-0.0","948","","","https://ziweizhang0304.github.io/Stats_learning_trig/img/Stim/FN_014_g.png","13","","","","","","","","","","","","","","","","","",""
"","animation","60","246032","0.0-5.0-23.0-1.0","","","","","","[{""stimulus"":""https://ziweizhang0304.github.io/Stats_learning_trig/img/Stim/FN_021_g.png"",""time"":349.5},{""stimulus"":""blank"",""time"":660.6000000238419},{""stimulus"":""https://ziweizhang0304.github.io/Stats_learning_trig/img/Stim/FN_024_g.png"",""time"":691.8000000119209},{""stimulus"":""blank"",""time"":1003.2000000476837},{""stimulus"":""https://ziweizhang0304.github.io/Stats_learning_trig/img/Stim/FN_012_g.png"",""time"":1020.8000000119209},{""stimulus"":""blank"",""time"":1330.5},{""stimulus"":""https://ziweizhang0304.github.io/Stats_learning_trig/img/Stim/FN_014_g.png"",""time"":1361.5},{""stimulus"":""blank"",""time"":1673.6000000238419},{""stimulus"":""https://ziweizhang0304.github.io/Stats_learning_trig/img/Stim/FN_005_g.png"",""time"":1700.6000000238419},{""stimulus"":""blank"",""time"":2015.6000000238419},{""stimulus"":""https://ziweizhang0304.github.io/Stats_learning_trig/img/Stim/FN_017_g.png"",""time"":2046.2000000476837},{""stimulus"":""blank"",""time"":2356.300000011921},{""stimulus"":""https://ziweizhang0304.github.io/Stats_learning_trig/img/Stim/FN_011_g.png"",""time"":2387.600000023842},{""stimulus"":""blank"",""time"":2699.5},{""stimulus"":""https://ziweizhang0304.github.io/Stats_learning_trig/img/Stim/FN_016_g.png"",""time"":2731},{""stimulus"":""blank"",""time"":3041.7000000476837},{""stimulus"":""https://ziweizhang0304.github.io/Stats_learning_trig/img/Stim/FN_022_g.png"",""time"":3062.2000000476837},{""stimulus"":""blank"",""time"":3370.5},{""stimulus"":""https://ziweizhang0304.github.io/Stats_learning_trig/img/Stim/FN_015_g.png"",""time"":3401},{""stimulus"":""blank"",""time"":3715.900000035763},{""stimulus"":""https://ziweizhang0304.github.io/Stats_learning_trig/img/Stim/FN_013_g.png"",""time"":3747.300000011921},{""stimulus"":""blank"",""time"":4058.2000000476837},{""stimulus"":""https://ziweizhang0304.github.io/Stats_learning_trig/img/Stim/FN_003_g.png"",""time"":4089.2000000476837},{""stimulus"":""blank"",""time"":4399.5}]","[{""key_press"":32,""rt"":1712.300000011921,""stimulus"":""https://ziweizhang0304.github.io/Stats_learning_trig/img/Stim/FN_005_g.png""}]","350.80000001192093","https://ziweizhang0304.github.io/Stats_learning_trig/img/Stim/FN_014_g.png","post_TD","24","1361.5","1712.300000011921","fast","4","1","5e0f443e8205266652153f5e","5f27c","","","","",""
"","survey-text","61","276706","0.0-6.0","30666.80000001192","","","","","","","","","","","","","","","","","","{""Q0"":""I tried to press space when I expected the shape to show up soon, i noticed the shapes appear in the same order""}","","","",""
"","survey-text","62","295668","0.0-7.0","18958.400000035763","","","","","","","","","","","","","","","","","","{""[object Object]"":""I noticed that the order they appear in is consistent ""}","","","",""
"","instructions","63","307730","0.0-8.0","12061.800000011921","","[{""page_index"":0,""viewing_time"":12061.400000035763}]","","","","","","","","","","","","","","","","","","","",""
"","free-sort","64","336604","0.0-9.0","28870.69999998808","","","","","","","","","post_drag","","","","fast","","","","","","[{""src"":""https://ziweizhang0304.github.io/Stats_learning_trig/img/Stim/FN_017_g.png"",""x"":475,""y"":0},{""src"":""https://ziweizhang0304.github.io/Stats_learning_trig/img/Stim/FN_014_g.png"",""x"":-225,""y"":50},{""src"":""https://ziweizhang0304.github.io/Stats_learning_trig/img/Stim/FN_005_g.png"",""x"":475,""y"":50}]","[{""src"":""https://ziweizhang0304.github.io/Stats_learning_trig/img/Stim/FN_005_g.png"",""x"":144,""y"":21},{""src"":""https://ziweizhang0304.github.io/Stats_learning_trig/img/Stim/FN_005_g.png"",""x"":114,""y"":21},{""src"":""https://ziweizhang0304.github.io/Stats_learning_trig/img/Stim/FN_017_g.png"",""x"":218,""y"":36},{""src"":""https://ziweizhang0304.github.io/Stats_learning_trig/img/Stim/FN_017_g.png"",""x"":218,""y"":36},{""src"":""https://ziweizhang0304.github.io/Stats_learning_trig/img/Stim/FN_017_g.png"",""x"":208,""y"":18},{""src"":""https://ziweizhang0304.github.io/Stats_learning_trig/img/Stim/FN_014_g.png"",""x"":33,""y"":-11},{""src"":""https://ziweizhang0304.github.io/Stats_learning_trig/img/Stim/FN_014_g.png"",""x"":33,""y"":25}]","[{""src"":""https://ziweizhang0304.github.io/Stats_learning_trig/img/Stim/FN_017_g.png"",""x"":208,""y"":18},{""src"":""https://ziweizhang0304.github.io/Stats_learning_trig/img/Stim/FN_014_g.png"",""x"":33,""y"":25},{""src"":""https://ziweizhang0304.github.io/Stats_learning_trig/img/Stim/FN_005_g.png"",""x"":114,""y"":21}]",""
"","free-sort","65","347314","0.0-10.0","10708.600000023842","","","","","","","","","post_drag","","","","slow","","","","","","[{""src"":""https://ziweizhang0304.github.io/Stats_learning_trig/img/Stim/FN_025_g.png"",""x"":475,""y"":0},{""src"":""https://ziweizhang0304.github.io/Stats_learning_trig/img/Stim/FN_002_g.png"",""x"":-225,""y"":50},{""src"":""https://ziweizhang0304.github.io/Stats_learning_trig/img/Stim/FN_020_g.png"",""x"":475,""y"":50}]","[{""src"":""https://ziweizhang0304.github.io/Stats_learning_trig/img/Stim/FN_020_g.png"",""x"":101,""y"":23},{""src"":""https://ziweizhang0304.github.io/Stats_learning_trig/img/Stim/FN_002_g.png"",""x"":48,""y"":15},{""src"":""https://ziweizhang0304.github.io/Stats_learning_trig/img/Stim/FN_025_g.png"",""x"":190,""y"":12},{""src"":""https://ziweizhang0304.github.io/Stats_learning_trig/img/Stim/FN_025_g.png"",""x"":190,""y"":12}]","[{""src"":""https://ziweizhang0304.github.io/Stats_learning_trig/img/Stim/FN_025_g.png"",""x"":190,""y"":12},{""src"":""https://ziweizhang0304.github.io/Stats_learning_trig/img/Stim/FN_002_g.png"",""x"":48,""y"":15},{""src"":""https://ziweizhang0304.github.io/Stats_learning_trig/img/Stim/FN_020_g.png"",""x"":101,""y"":23}]",""
"","survey-multi-choice","66","358767","0.0-11.0","11449.199999988079","","","","","","","","","","","","","","","","5e0f443e8205266652153f5e","","{""awareness"":""Yes"",""attention_check"":""Press SPACEBAR to a target""}","","","","[0,1]"
