"success","trial_type","trial_index","time_elapsed","internal_node_id","rt","url","view_history","stimulus","key_press","animation_sequence","response","TD_rt","TD_target","test_part","TD_trial_number","onset","offset","attention_state","TD_target_position","TD_within_triplet_counter","participant","yoke_participant","responses","init_locations","moves","final_locations","question_order"
"true","fullscreen","0","14417","0.0-0.0","","","","","","","","","","","","","","","","","","","","","","",""
"","external-html","1","65345","0.0-1.0","50607.29999999702","https://ziweizhang0304.github.io/Stats_learning_trig/content/consent.html","","","","","","","","","","","","","","","","","","","","",""
"","instructions","2","92171","0.0-2.0","26824.09999999404","","[{""page_index"":0,""viewing_time"":3333.9000000059605},{""page_index"":1,""viewing_time"":9953.39999999106},{""page_index"":2,""viewing_time"":10195.90000000596},{""page_index"":3,""viewing_time"":3340}]","","","","","","","","","","","","","","","","","","","",""
"","image-keyboard-response","3","99341","0.0-3.0-0.0-0.0","7168","","","https://ziweizhang0304.github.io/Stats_learning_trig/img/Stim/FN_018_g.png","13","","","","","","","","","","","","","","","","","",""
"","animation","4","103766","0.0-3.0-0.0-1.0","","","","","","[{""stimulus"":""https://ziweizhang0304.github.io/Stats_learning_trig/img/Stim/FN_025_g.png"",""time"":346.30000001192093},{""stimulus"":""blank"",""time"":647.4000000059605},{""stimulus"":""https://ziweizhang0304.github.io/Stats_learning_trig/img/Stim/FN_004_g.png"",""time"":683},{""stimulus"":""blank"",""time"":988.3000000119209},{""stimulus"":""https://ziweizhang0304.github.io/Stats_learning_trig/img/Stim/FN_003_g.png"",""time"":1023.3000000119209},{""stimulus"":""blank"",""time"":1328.300000011921},{""stimulus"":""https://ziweizhang0304.github.io/Stats_learning_trig/img/Stim/FN_019_g.png"",""time"":1363.4000000059605},{""stimulus"":""blank"",""time"":1668.2000000029802},{""stimulus"":""https://ziweizhang0304.github.io/Stats_learning_trig/img/Stim/FN_018_g.png"",""time"":1702.7000000029802},{""stimulus"":""blank"",""time"":2003.5},{""stimulus"":""https://ziweizhang0304.github.io/Stats_learning_trig/img/Stim/FN_010_g.png"",""time"":2046.2000000029802},{""stimulus"":""blank"",""time"":2347.2000000029802},{""stimulus"":""https://ziweizhang0304.github.io/Stats_learning_trig/img/Stim/FN_020_g.png"",""time"":2383.9000000059605},{""stimulus"":""blank"",""time"":2685.800000011921},{""stimulus"":""https://ziweizhang0304.github.io/Stats_learning_trig/img/Stim/FN_017_g.png"",""time"":2725.1000000089407},{""stimulus"":""blank"",""time"":3025.5},{""stimulus"":""https://ziweizhang0304.github.io/Stats_learning_trig/img/Stim/FN_012_g.png"",""time"":3065.6000000089407},{""stimulus"":""blank"",""time"":3367.4000000059605},{""stimulus"":""https://ziweizhang0304.github.io/Stats_learning_trig/img/Stim/FN_009_g.png"",""time"":3401.300000011921},{""stimulus"":""blank"",""time"":3702.800000011921},{""stimulus"":""https://ziweizhang0304.github.io/Stats_learning_trig/img/Stim/FN_023_g.png"",""time"":3744.2000000029802},{""stimulus"":""blank"",""time"":4047.2000000029802},{""stimulus"":""https://ziweizhang0304.github.io/Stats_learning_trig/img/Stim/FN_021_g.png"",""time"":4083.1000000089407},{""stimulus"":""blank"",""time"":4388.4000000059605}]","[{""key_press"":32,""rt"":2269.300000011921,""stimulus"":""https://ziweizhang0304.github.io/Stats_learning_trig/img/Stim/FN_010_g.png""}]","566.6000000089407","https://ziweizhang0304.github.io/Stats_learning_trig/img/Stim/FN_018_g.png","post_prac","","","","","","","","","","","","",""
"","html-keyboard-response","5","113597","0.0-3.0-0.0-2.0","9801.60000000894","","","<p>Your reaction time for this trial was 566.6 ms.</p><p>Remember that you should only press the SPACEBAR when you see the shape presented at the beginning of the trial. </b> </p><p>Press enter to move on.</p>","13","","","","","","","","","","","","","","","","","",""
"","image-keyboard-response","6","120323","0.0-3.0-1.0-0.0","6725.4000000059605","","","https://ziweizhang0304.github.io/Stats_learning_trig/img/Stim/FN_021_g.png","13","","","","","","","","","","","","","","","","","",""
"","animation","7","124747","0.0-3.0-1.0-1.0","","","","","","[{""stimulus"":""https://ziweizhang0304.github.io/Stats_learning_trig/img/Stim/FN_019_g.png"",""time"":344.69999998807907},{""stimulus"":""blank"",""time"":649.3999999910593},{""stimulus"":""https://ziweizhang0304.github.io/Stats_learning_trig/img/Stim/FN_020_g.png"",""time"":683.1999999880791},{""stimulus"":""blank"",""time"":988.0999999940395},{""stimulus"":""https://ziweizhang0304.github.io/Stats_learning_trig/img/Stim/FN_023_g.png"",""time"":1022.8999999910593},{""stimulus"":""blank"",""time"":1323.0999999940395},{""stimulus"":""https://ziweizhang0304.github.io/Stats_learning_trig/img/Stim/FN_017_g.png"",""time"":1364.7999999970198},{""stimulus"":""blank"",""time"":1665.2999999970198},{""stimulus"":""https://ziweizhang0304.github.io/Stats_learning_trig/img/Stim/FN_012_g.png"",""time"":1705.8999999910593},{""stimulus"":""blank"",""time"":2006.3999999910593},{""stimulus"":""https://ziweizhang0304.github.io/Stats_learning_trig/img/Stim/FN_021_g.png"",""time"":2045.3999999910593},{""stimulus"":""blank"",""time"":2350.7999999970198},{""stimulus"":""https://ziweizhang0304.github.io/Stats_learning_trig/img/Stim/FN_009_g.png"",""time"":2385.5999999940395},{""stimulus"":""blank"",""time"":2687.2999999970198},{""stimulus"":""https://ziweizhang0304.github.io/Stats_learning_trig/img/Stim/FN_018_g.png"",""time"":2721},{""stimulus"":""blank"",""time"":3023.3999999910593},{""stimulus"":""https://ziweizhang0304.github.io/Stats_learning_trig/img/Stim/FN_025_g.png"",""time"":3061},{""stimulus"":""blank"",""time"":3364.8999999910593},{""stimulus"":""https://ziweizhang0304.github.io/Stats_learning_trig/img/Stim/FN_003_g.png"",""time"":3402.699999988079},{""stimulus"":""blank"",""time"":3708},{""stimulus"":""https://ziweizhang0304.github.io/Stats_learning_trig/img/Stim/FN_010_g.png"",""time"":3743.7999999970198},{""stimulus"":""blank"",""time"":4049.0999999940395},{""stimulus"":""https://ziweizhang0304.github.io/Stats_learning_trig/img/Stim/FN_004_g.png"",""time"":4084.3999999910593},{""stimulus"":""blank"",""time"":4389.5999999940395}]","[{""key_press"":32,""rt"":199.20000000298023,""stimulus"":""""},{""key_press"":32,""rt"":662.9000000059605,""stimulus"":""blank""},{""key_press"":32,""rt"":2503.2000000029802,""stimulus"":""https://ziweizhang0304.github.io/Stats_learning_trig/img/Stim/FN_009_g.png""}]","457.80000001192093","https://ziweizhang0304.github.io/Stats_learning_trig/img/Stim/FN_021_g.png","post_prac","","","","","","","","","","","","",""
"","html-keyboard-response","8","128444","0.0-3.0-1.0-2.0","3694.2999999970198","","","<p>Your reaction time for this trial was 457.8 ms.</p><p>Remember that you should only press the SPACEBAR when you see the shape presented at the beginning of the trial. </b> </p><p>Press enter to move on.</p>","13","","","","","","","","","","","","","","","","","",""
"","image-keyboard-response","9","131333","0.0-3.0-2.0-0.0","2887.2000000029802","","","https://ziweizhang0304.github.io/Stats_learning_trig/img/Stim/FN_018_g.png","13","","","","","","","","","","","","","","","","","",""
"","animation","10","135755","0.0-3.0-2.0-1.0","","","","","","[{""stimulus"":""https://ziweizhang0304.github.io/Stats_learning_trig/img/Stim/FN_023_g.png"",""time"":346.20000000298023},{""stimulus"":""blank"",""time"":647.5},{""stimulus"":""https://ziweizhang0304.github.io/Stats_learning_trig/img/Stim/FN_004_g.png"",""time"":681.3999999910593},{""stimulus"":""blank"",""time"":986.7999999970198},{""stimulus"":""https://ziweizhang0304.github.io/Stats_learning_trig/img/Stim/FN_020_g.png"",""time"":1023.2000000029802},{""stimulus"":""blank"",""time"":1326.0999999940395},{""stimulus"":""https://ziweizhang0304.github.io/Stats_learning_trig/img/Stim/FN_021_g.png"",""time"":1362.7999999970198},{""stimulus"":""blank"",""time"":1665.2000000029802},{""stimulus"":""https://ziweizhang0304.github.io/Stats_learning_trig/img/Stim/FN_009_g.png"",""time"":1704.5999999940395},{""stimulus"":""blank"",""time"":2005.2000000029802},{""stimulus"":""https://ziweizhang0304.github.io/Stats_learning_trig/img/Stim/FN_018_g.png"",""time"":2044.5999999940395},{""stimulus"":""blank"",""time"":2350},{""stimulus"":""https://ziweizhang0304.github.io/Stats_learning_trig/img/Stim/FN_019_g.png"",""time"":2386.2000000029802},{""stimulus"":""blank"",""time"":2691.5999999940395},{""stimulus"":""https://ziweizhang0304.github.io/Stats_learning_trig/img/Stim/FN_025_g.png"",""time"":2722},{""stimulus"":""blank"",""time"":3022.3999999910593},{""stimulus"":""https://ziweizhang0304.github.io/Stats_learning_trig/img/Stim/FN_003_g.png"",""time"":3063.2999999970198},{""stimulus"":""blank"",""time"":3363.7999999970198},{""stimulus"":""https://ziweizhang0304.github.io/Stats_learning_trig/img/Stim/FN_017_g.png"",""time"":3401.2000000029802},{""stimulus"":""blank"",""time"":3705.5999999940395},{""stimulus"":""https://ziweizhang0304.github.io/Stats_learning_trig/img/Stim/FN_010_g.png"",""time"":3741},{""stimulus"":""blank"",""time"":4046.3999999910593},{""stimulus"":""https://ziweizhang0304.github.io/Stats_learning_trig/img/Stim/FN_012_g.png"",""time"":4082.3999999910593},{""stimulus"":""blank"",""time"":4387.70000000298}]","[{""key_press"":32,""rt"":2478.8999999910593,""stimulus"":""https://ziweizhang0304.github.io/Stats_learning_trig/img/Stim/FN_019_g.png""}]","434.29999999701977","https://ziweizhang0304.github.io/Stats_learning_trig/img/Stim/FN_018_g.png","post_prac","","","","","","","","","","","","",""
"","html-keyboard-response","11","138745","0.0-3.0-2.0-2.0","2986.5","","","<p>Your reaction time for this trial was 434.3 ms.</p><p>Remember that you should only press the SPACEBAR when you see the shape presented at the beginning of the trial. </b> </p><p>Press enter to move on.</p>","13","","","","","","","","","","","","","","","","","",""
"","instructions","12","141086","0.0-4.0","2340.9000000059605","","[{""page_index"":0,""viewing_time"":2340.7000000029802}]","","","","","","","","","","","","","","","","","","","",""
"","image-keyboard-response","13","144321","0.0-5.0-0.0-0.0","3233.7000000029802","","","https://ziweizhang0304.github.io/Stats_learning_trig/img/Stim/FN_009_g.png","13","","","","","","","","","","","","","","","","","",""
"","animation","14","148743","0.0-5.0-0.0-1.0","","","","","","[{""stimulus"":""https://ziweizhang0304.github.io/Stats_learning_trig/img/Stim/FN_023_g.png"",""time"":346.20000000298023},{""stimulus"":""blank"",""time"":651.6000000089407},{""stimulus"":""https://ziweizhang0304.github.io/Stats_learning_trig/img/Stim/FN_004_g.png"",""time"":684.2000000029802},{""stimulus"":""blank"",""time"":987.2999999970198},{""stimulus"":""https://ziweizhang0304.github.io/Stats_learning_trig/img/Stim/FN_012_g.png"",""time"":1020.9000000059605},{""stimulus"":""blank"",""time"":1322.1000000089407},{""stimulus"":""https://ziweizhang0304.github.io/Stats_learning_trig/img/Stim/FN_003_g.png"",""time"":1361.6000000089407},{""stimulus"":""blank"",""time"":1665.7000000029802},{""stimulus"":""https://ziweizhang0304.github.io/Stats_learning_trig/img/Stim/FN_021_g.png"",""time"":1702.6000000089407},{""stimulus"":""blank"",""time"":2005.7999999970198},{""stimulus"":""https://ziweizhang0304.github.io/Stats_learning_trig/img/Stim/FN_009_g.png"",""time"":2043.4000000059605},{""stimulus"":""blank"",""time"":2348.5},{""stimulus"":""https://ziweizhang0304.github.io/Stats_learning_trig/img/Stim/FN_018_g.png"",""time"":2383.9000000059605},{""stimulus"":""blank"",""time"":2688.7000000029802},{""stimulus"":""https://ziweizhang0304.github.io/Stats_learning_trig/img/Stim/FN_020_g.png"",""time"":2722.7000000029802},{""stimulus"":""blank"",""time"":3024.7999999970198},{""stimulus"":""https://ziweizhang0304.github.io/Stats_learning_trig/img/Stim/FN_019_g.png"",""time"":3065.7000000029802},{""stimulus"":""blank"",""time"":3366.2999999970198},{""stimulus"":""https://ziweizhang0304.github.io/Stats_learning_trig/img/Stim/FN_025_g.png"",""time"":3405.5},{""stimulus"":""blank"",""time"":3710.7999999970198},{""stimulus"":""https://ziweizhang0304.github.io/Stats_learning_trig/img/Stim/FN_017_g.png"",""time"":3743.5},{""stimulus"":""blank"",""time"":4046.2999999970198},{""stimulus"":""https://ziweizhang0304.github.io/Stats_learning_trig/img/Stim/FN_010_g.png"",""time"":4085.2000000029802},{""stimulus"":""blank"",""time"":4386.20000000298}]","[{""key_press"":32,""rt"":1486.199999988079,""stimulus"":""https://ziweizhang0304.github.io/Stats_learning_trig/img/Stim/FN_003_g.png""}]","NaN","https://ziweizhang0304.github.io/Stats_learning_trig/img/Stim/FN_009_g.png","post_TD","1","2043.4000000059605","","slow","6","2","5dd31ee6181abc335d955478","","","","","",""
"","image-keyboard-response","15","152012","0.0-5.0-1.0-0.0","3266.7000000029802","","","https://ziweizhang0304.github.io/Stats_learning_trig/img/Stim/FN_009_g.png","13","","","","","","","","","","","","","","","","","",""
"","animation","16","156433","0.0-5.0-1.0-1.0","","","","","","[{""stimulus"":""https://ziweizhang0304.github.io/Stats_learning_trig/img/Stim/FN_019_g.png"",""time"":343.3999999910593},{""stimulus"":""blank"",""time"":645.7000000029802},{""stimulus"":""https://ziweizhang0304.github.io/Stats_learning_trig/img/Stim/FN_020_g.png"",""time"":681.8999999910593},{""stimulus"":""blank"",""time"":984.7999999970198},{""stimulus"":""https://ziweizhang0304.github.io/Stats_learning_trig/img/Stim/FN_023_g.png"",""time"":1025},{""stimulus"":""blank"",""time"":1326.7000000029802},{""stimulus"":""https://ziweizhang0304.github.io/Stats_learning_trig/img/Stim/FN_017_g.png"",""time"":1361.0999999940395},{""stimulus"":""blank"",""time"":1666.3999999910593},{""stimulus"":""https://ziweizhang0304.github.io/Stats_learning_trig/img/Stim/FN_012_g.png"",""time"":1701.2000000029802},{""stimulus"":""blank"",""time"":2006.3999999910593},{""stimulus"":""https://ziweizhang0304.github.io/Stats_learning_trig/img/Stim/FN_021_g.png"",""time"":2042.8999999910593},{""stimulus"":""blank"",""time"":2344.5999999940395},{""stimulus"":""https://ziweizhang0304.github.io/Stats_learning_trig/img/Stim/FN_009_g.png"",""time"":2382.2999999970198},{""stimulus"":""blank"",""time"":2684.3999999910593},{""stimulus"":""https://ziweizhang0304.github.io/Stats_learning_trig/img/Stim/FN_018_g.png"",""time"":2724.3999999910593},{""stimulus"":""blank"",""time"":3025.2999999970198},{""stimulus"":""https://ziweizhang0304.github.io/Stats_learning_trig/img/Stim/FN_025_g.png"",""time"":3065.7999999970198},{""stimulus"":""blank"",""time"":3368.5999999940395},{""stimulus"":""https://ziweizhang0304.github.io/Stats_learning_trig/img/Stim/FN_003_g.png"",""time"":3403.8999999910593},{""stimulus"":""blank"",""time"":3705.2000000029802},{""stimulus"":""https://ziweizhang0304.github.io/Stats_learning_trig/img/Stim/FN_010_g.png"",""time"":3741.5999999940395},{""stimulus"":""blank"",""time"":4043.7000000029802},{""stimulus"":""https://ziweizhang0304.github.io/Stats_learning_trig/img/Stim/FN_004_g.png"",""time"":4083},{""stimulus"":""blank"",""time"":4385}]","[{""key_press"":32,""rt"":2863.2999999970198,""stimulus"":""https://ziweizhang0304.github.io/Stats_learning_trig/img/Stim/FN_018_g.png""}]","481","https://ziweizhang0304.github.io/Stats_learning_trig/img/Stim/FN_009_g.png","post_TD","2","2382.2999999970198","2863.2999999970198","slow","7","2","5dd31ee6181abc335d955478","","","","","",""
"","image-keyboard-response","17","158516","0.0-5.0-2.0-0.0","2080.6000000089407","","","https://ziweizhang0304.github.io/Stats_learning_trig/img/Stim/FN_021_g.png","13","","","","","","","","","","","","","","","","","",""
"","animation","18","162937","0.0-5.0-2.0-1.0","","","","","","[{""stimulus"":""https://ziweizhang0304.github.io/Stats_learning_trig/img/Stim/FN_019_g.png"",""time"":345.19999998807907},{""stimulus"":""blank"",""time"":649.3999999910593},{""stimulus"":""https://ziweizhang0304.github.io/Stats_learning_trig/img/Stim/FN_020_g.png"",""time"":684.0999999940395},{""stimulus"":""blank"",""time"":987.1999999880791},{""stimulus"":""https://ziweizhang0304.github.io/Stats_learning_trig/img/Stim/FN_023_g.png"",""time"":1022.3999999910593},{""stimulus"":""blank"",""time"":1322.8999999910593},{""stimulus"":""https://ziweizhang0304.github.io/Stats_learning_trig/img/Stim/FN_017_g.png"",""time"":1365.8999999910593},{""stimulus"":""blank"",""time"":1671.2999999970198},{""stimulus"":""https://ziweizhang0304.github.io/Stats_learning_trig/img/Stim/FN_012_g.png"",""time"":1705.3999999910593},{""stimulus"":""blank"",""time"":2006.699999988079},{""stimulus"":""https://ziweizhang0304.github.io/Stats_learning_trig/img/Stim/FN_021_g.png"",""time"":2043.199999988079},{""stimulus"":""blank"",""time"":2346.699999988079},{""stimulus"":""https://ziweizhang0304.github.io/Stats_learning_trig/img/Stim/FN_009_g.png"",""time"":2383.699999988079},{""stimulus"":""blank"",""time"":2687.7999999970198},{""stimulus"":""https://ziweizhang0304.github.io/Stats_learning_trig/img/Stim/FN_018_g.png"",""time"":2722.0999999940395},{""stimulus"":""blank"",""time"":3022.7999999970198},{""stimulus"":""https://ziweizhang0304.github.io/Stats_learning_trig/img/Stim/FN_025_g.png"",""time"":3065.3999999910593},{""stimulus"":""blank"",""time"":3370.2999999970198},{""stimulus"":""https://ziweizhang0304.github.io/Stats_learning_trig/img/Stim/FN_003_g.png"",""time"":3404},{""stimulus"":""blank"",""time"":3709.3999999910593},{""stimulus"":""https://ziweizhang0304.github.io/Stats_learning_trig/img/Stim/FN_010_g.png"",""time"":3743.8999999910593},{""stimulus"":""blank"",""time"":4047.3999999910593},{""stimulus"":""https://ziweizhang0304.github.io/Stats_learning_trig/img/Stim/FN_004_g.png"",""time"":4083.8999999910593},{""stimulus"":""blank"",""time"":4384.5999999940395}]","[{""key_press"":32,""rt"":2527.2000000029802,""stimulus"":""https://ziweizhang0304.github.io/Stats_learning_trig/img/Stim/FN_009_g.png""}]","484.00000001490116","https://ziweizhang0304.github.io/Stats_learning_trig/img/Stim/FN_021_g.png","post_TD","3","2043.199999988079","2527.2000000029802","slow","6","1","5dd31ee6181abc335d955478","","","","","",""
"","image-keyboard-response","19","168324","0.0-5.0-3.0-0.0","5385.20000000298","","","https://ziweizhang0304.github.io/Stats_learning_trig/img/Stim/FN_009_g.png","13","","","","","","","","","","","","","","","","","",""
"","animation","20","172747","0.0-5.0-3.0-1.0","","","","","","[{""stimulus"":""https://ziweizhang0304.github.io/Stats_learning_trig/img/Stim/FN_023_g.png"",""time"":346.40000000596046},{""stimulus"":""blank"",""time"":651.7000000029802},{""stimulus"":""https://ziweizhang0304.github.io/Stats_learning_trig/img/Stim/FN_020_g.png"",""time"":683.2999999970198},{""stimulus"":""blank"",""time"":984.4000000059605},{""stimulus"":""https://ziweizhang0304.github.io/Stats_learning_trig/img/Stim/FN_010_g.png"",""time"":1022.4000000059605},{""stimulus"":""blank"",""time"":1323.2999999970198},{""stimulus"":""https://ziweizhang0304.github.io/Stats_learning_trig/img/Stim/FN_003_g.png"",""time"":1360.9000000059605},{""stimulus"":""blank"",""time"":1661.7999999970198},{""stimulus"":""https://ziweizhang0304.github.io/Stats_learning_trig/img/Stim/FN_012_g.png"",""time"":1701.2999999970198},{""stimulus"":""blank"",""time"":2006.5999999940395},{""stimulus"":""https://ziweizhang0304.github.io/Stats_learning_trig/img/Stim/FN_019_g.png"",""time"":2041.0999999940395},{""stimulus"":""blank"",""time"":2346.5},{""stimulus"":""https://ziweizhang0304.github.io/Stats_learning_trig/img/Stim/FN_021_g.png"",""time"":2381.5999999940395},{""stimulus"":""blank"",""time"":2686.2999999970198},{""stimulus"":""https://ziweizhang0304.github.io/Stats_learning_trig/img/Stim/FN_009_g.png"",""time"":2722.2999999970198},{""stimulus"":""blank"",""time"":3022.7999999970198},{""stimulus"":""https://ziweizhang0304.github.io/Stats_learning_trig/img/Stim/FN_018_g.png"",""time"":3063.2000000029802},{""stimulus"":""blank"",""time"":3363.7999999970198},{""stimulus"":""https://ziweizhang0304.github.io/Stats_learning_trig/img/Stim/FN_025_g.png"",""time"":3405.0999999940395},{""stimulus"":""blank"",""time"":3710.5},{""stimulus"":""https://ziweizhang0304.github.io/Stats_learning_trig/img/Stim/FN_017_g.png"",""time"":3740.9000000059605},{""stimulus"":""blank"",""time"":4043.7999999970198},{""stimulus"":""https://ziweizhang0304.github.io/Stats_learning_trig/img/Stim/FN_004_g.png"",""time"":4085.5999999940395},{""stimulus"":""blank"",""time"":4386.0999999940395}]","[{""key_press"":32,""rt"":2183,""stimulus"":""https://ziweizhang0304.github.io/Stats_learning_trig/img/Stim/FN_019_g.png""}]","NaN","https://ziweizhang0304.github.io/Stats_learning_trig/img/Stim/FN_009_g.png","post_TD","4","2722.2999999970198","","slow","8","2","5dd31ee6181abc335d955478","","","","","",""
"","image-keyboard-response","21","174855","0.0-5.0-4.0-0.0","2105.2000000029802","","","https://ziweizhang0304.github.io/Stats_learning_trig/img/Stim/FN_011_g.png","13","","","","","","","","","","","","","","","","","",""
"","animation","22","179279","0.0-5.0-4.0-1.0","","","","","","[{""stimulus"":""https://ziweizhang0304.github.io/Stats_learning_trig/img/Stim/FN_017_g.png"",""time"":344.29999999701977},{""stimulus"":""blank"",""time"":644.7999999970198},{""stimulus"":""https://ziweizhang0304.github.io/Stats_learning_trig/img/Stim/FN_023_g.png"",""time"":682.7000000029802},{""stimulus"":""blank"",""time"":983.2999999970198},{""stimulus"":""https://ziweizhang0304.github.io/Stats_learning_trig/img/Stim/FN_012_g.png"",""time"":1022.5999999940395},{""stimulus"":""blank"",""time"":1327.0999999940395},{""stimulus"":""https://ziweizhang0304.github.io/Stats_learning_trig/img/Stim/FN_002_g.png"",""time"":1364.4000000059605},{""stimulus"":""blank"",""time"":1669.7999999970198},{""stimulus"":""https://ziweizhang0304.github.io/Stats_learning_trig/img/Stim/FN_011_g.png"",""time"":1703.4000000059605},{""stimulus"":""blank"",""time"":2003.7999999970198},{""stimulus"":""https://ziweizhang0304.github.io/Stats_learning_trig/img/Stim/FN_007_g.png"",""time"":2043.7000000029802},{""stimulus"":""blank"",""time"":2345.0999999940395},{""stimulus"":""https://ziweizhang0304.github.io/Stats_learning_trig/img/Stim/FN_020_g.png"",""time"":2380.7000000029802},{""stimulus"":""blank"",""time"":2683.9000000059605},{""stimulus"":""https://ziweizhang0304.github.io/Stats_learning_trig/img/Stim/FN_019_g.png"",""time"":2721.2999999970198},{""stimulus"":""blank"",""time"":3021.7999999970198},{""stimulus"":""https://ziweizhang0304.github.io/Stats_learning_trig/img/Stim/FN_025_g.png"",""time"":3061},{""stimulus"":""blank"",""time"":3366.2999999970198},{""stimulus"":""https://ziweizhang0304.github.io/Stats_learning_trig/img/Stim/FN_003_g.png"",""time"":3403.2000000029802},{""stimulus"":""blank"",""time"":3706.4000000059605},{""stimulus"":""https://ziweizhang0304.github.io/Stats_learning_trig/img/Stim/FN_010_g.png"",""time"":3742.2000000029802},{""stimulus"":""blank"",""time"":4045.2000000029802},{""stimulus"":""https://ziweizhang0304.github.io/Stats_learning_trig/img/Stim/FN_004_g.png"",""time"":4083.2000000029802},{""stimulus"":""blank"",""time"":4384.29999999702}]","[{""key_press"":32,""rt"":2479.0999999940395,""stimulus"":""https://ziweizhang0304.github.io/Stats_learning_trig/img/Stim/FN_020_g.png""}]","775.6999999880791","https://ziweizhang0304.github.io/Stats_learning_trig/img/Stim/FN_011_g.png","post_TD","5","1703.4000000059605","2479.0999999940395","fast","5","2","5dd31ee6181abc335d955478","","","","","",""
"","image-keyboard-response","23","180799","0.0-5.0-5.0-0.0","1518.300000011921","","","https://ziweizhang0304.github.io/Stats_learning_trig/img/Stim/FN_021_g.png","13","","","","","","","","","","","","","","","","","",""
"","animation","24","185222","0.0-5.0-5.0-1.0","","","","","","[{""stimulus"":""https://ziweizhang0304.github.io/Stats_learning_trig/img/Stim/FN_023_g.png"",""time"":342.70000000298023},{""stimulus"":""blank"",""time"":644},{""stimulus"":""https://ziweizhang0304.github.io/Stats_learning_trig/img/Stim/FN_004_g.png"",""time"":682.7999999970198},{""stimulus"":""blank"",""time"":988.0999999940395},{""stimulus"":""https://ziweizhang0304.github.io/Stats_learning_trig/img/Stim/FN_012_g.png"",""time"":1023.2999999970198},{""stimulus"":""blank"",""time"":1326.5},{""stimulus"":""https://ziweizhang0304.github.io/Stats_learning_trig/img/Stim/FN_003_g.png"",""time"":1361.5},{""stimulus"":""blank"",""time"":1665.0999999940395},{""stimulus"":""https://ziweizhang0304.github.io/Stats_learning_trig/img/Stim/FN_021_g.png"",""time"":1704.7999999970198},{""stimulus"":""blank"",""time"":2009.5},{""stimulus"":""https://ziweizhang0304.github.io/Stats_learning_trig/img/Stim/FN_009_g.png"",""time"":2042.2000000029802},{""stimulus"":""blank"",""time"":2343.8999999910593},{""stimulus"":""https://ziweizhang0304.github.io/Stats_learning_trig/img/Stim/FN_018_g.png"",""time"":2384.7999999970198},{""stimulus"":""blank"",""time"":2685.5999999940395},{""stimulus"":""https://ziweizhang0304.github.io/Stats_learning_trig/img/Stim/FN_020_g.png"",""time"":2726},{""stimulus"":""blank"",""time"":3031.2999999970198},{""stimulus"":""https://ziweizhang0304.github.io/Stats_learning_trig/img/Stim/FN_019_g.png"",""time"":3064.5999999940395},{""stimulus"":""blank"",""time"":3367},{""stimulus"":""https://ziweizhang0304.github.io/Stats_learning_trig/img/Stim/FN_025_g.png"",""time"":3401},{""stimulus"":""blank"",""time"":3705.7000000029802},{""stimulus"":""https://ziweizhang0304.github.io/Stats_learning_trig/img/Stim/FN_017_g.png"",""time"":3740.7999999970198},{""stimulus"":""blank"",""time"":4041.5},{""stimulus"":""https://ziweizhang0304.github.io/Stats_learning_trig/img/Stim/FN_010_g.png"",""time"":4082.7000000029802},{""stimulus"":""blank"",""time"":4388}]","[{""key_press"":32,""rt"":2142.4000000059605,""stimulus"":""https://ziweizhang0304.github.io/Stats_learning_trig/img/Stim/FN_009_g.png""}]","437.6000000089407","https://ziweizhang0304.github.io/Stats_learning_trig/img/Stim/FN_021_g.png","post_TD","6","1704.7999999970198","2142.4000000059605","slow","5","1","5dd31ee6181abc335d955478","","","","","",""
"","image-keyboard-response","25","186439","0.0-5.0-6.0-0.0","1214.1000000089407","","","https://ziweizhang0304.github.io/Stats_learning_trig/img/Stim/FN_007_g.png","13","","","","","","","","","","","","","","","","","",""
"","animation","26","190860","0.0-5.0-6.0-1.0","","","","","","[{""stimulus"":""https://ziweizhang0304.github.io/Stats_learning_trig/img/Stim/FN_017_g.png"",""time"":347.59999999403954},{""stimulus"":""blank"",""time"":648.5},{""stimulus"":""https://ziweizhang0304.github.io/Stats_learning_trig/img/Stim/FN_023_g.png"",""time"":685.5},{""stimulus"":""blank"",""time"":987},{""stimulus"":""https://ziweizhang0304.github.io/Stats_learning_trig/img/Stim/FN_004_g.png"",""time"":1021.2000000029802},{""stimulus"":""blank"",""time"":1325.5},{""stimulus"":""https://ziweizhang0304.github.io/Stats_learning_trig/img/Stim/FN_010_g.png"",""time"":1360.9000000059605},{""stimulus"":""blank"",""time"":1664},{""stimulus"":""https://ziweizhang0304.github.io/Stats_learning_trig/img/Stim/FN_003_g.png"",""time"":1701.0999999940395},{""stimulus"":""blank"",""time"":2001.5999999940395},{""stimulus"":""https://ziweizhang0304.github.io/Stats_learning_trig/img/Stim/FN_012_g.png"",""time"":2042.2999999970198},{""stimulus"":""blank"",""time"":2347.5999999940395},{""stimulus"":""https://ziweizhang0304.github.io/Stats_learning_trig/img/Stim/FN_002_g.png"",""time"":2384.0999999940395},{""stimulus"":""blank"",""time"":2689.4000000059605},{""stimulus"":""https://ziweizhang0304.github.io/Stats_learning_trig/img/Stim/FN_011_g.png"",""time"":2724},{""stimulus"":""blank"",""time"":3028.5},{""stimulus"":""https://ziweizhang0304.github.io/Stats_learning_trig/img/Stim/FN_007_g.png"",""time"":3064.7000000029802},{""stimulus"":""blank"",""time"":3365.0999999940395},{""stimulus"":""https://ziweizhang0304.github.io/Stats_learning_trig/img/Stim/FN_020_g.png"",""time"":3401.7999999970198},{""stimulus"":""blank"",""time"":3702.7000000029802},{""stimulus"":""https://ziweizhang0304.github.io/Stats_learning_trig/img/Stim/FN_019_g.png"",""time"":3745.5},{""stimulus"":""blank"",""time"":4046.4000000059605},{""stimulus"":""https://ziweizhang0304.github.io/Stats_learning_trig/img/Stim/FN_025_g.png"",""time"":4085.5999999940395},{""stimulus"":""blank"",""time"":4386.29999999702}]","[{""key_press"":32,""rt"":3559.5,""stimulus"":""https://ziweizhang0304.github.io/Stats_learning_trig/img/Stim/FN_020_g.png""}]","494.79999999701977","https://ziweizhang0304.github.io/Stats_learning_trig/img/Stim/FN_007_g.png","post_TD","7","3064.7000000029802","3559.5","fast","9","3","5dd31ee6181abc335d955478","","","","","",""
"","image-keyboard-response","27","192183","0.0-5.0-7.0-0.0","1320.699999988079","","","https://ziweizhang0304.github.io/Stats_learning_trig/img/Stim/FN_002_g.png","13","","","","","","","","","","","","","","","","","",""
"","animation","28","196604","0.0-5.0-7.0-1.0","","","","","","[{""stimulus"":""https://ziweizhang0304.github.io/Stats_learning_trig/img/Stim/FN_017_g.png"",""time"":347.5},{""stimulus"":""blank"",""time"":652.6000000089407},{""stimulus"":""https://ziweizhang0304.github.io/Stats_learning_trig/img/Stim/FN_023_g.png"",""time"":682.2000000029802},{""stimulus"":""blank"",""time"":986.7999999970198},{""stimulus"":""https://ziweizhang0304.github.io/Stats_learning_trig/img/Stim/FN_012_g.png"",""time"":1021.4000000059605},{""stimulus"":""blank"",""time"":1325.5},{""stimulus"":""https://ziweizhang0304.github.io/Stats_learning_trig/img/Stim/FN_002_g.png"",""time"":1362},{""stimulus"":""blank"",""time"":1662.4000000059605},{""stimulus"":""https://ziweizhang0304.github.io/Stats_learning_trig/img/Stim/FN_011_g.png"",""time"":1702.7999999970198},{""stimulus"":""blank"",""time"":2003.5},{""stimulus"":""https://ziweizhang0304.github.io/Stats_learning_trig/img/Stim/FN_007_g.png"",""time"":2041.9000000059605},{""stimulus"":""blank"",""time"":2345.9000000059605},{""stimulus"":""https://ziweizhang0304.github.io/Stats_learning_trig/img/Stim/FN_020_g.png"",""time"":2383.5},{""stimulus"":""blank"",""time"":2688.9000000059605},{""stimulus"":""https://ziweizhang0304.github.io/Stats_learning_trig/img/Stim/FN_019_g.png"",""time"":2725.6000000089407},{""stimulus"":""blank"",""time"":3030.9000000059605},{""stimulus"":""https://ziweizhang0304.github.io/Stats_learning_trig/img/Stim/FN_025_g.png"",""time"":3063.2999999970198},{""stimulus"":""blank"",""time"":3363.7999999970198},{""stimulus"":""https://ziweizhang0304.github.io/Stats_learning_trig/img/Stim/FN_003_g.png"",""time"":3404.9000000059605},{""stimulus"":""blank"",""time"":3705.6000000089407},{""stimulus"":""https://ziweizhang0304.github.io/Stats_learning_trig/img/Stim/FN_010_g.png"",""time"":3745.9000000059605},{""stimulus"":""blank"",""time"":4048.9000000059605},{""stimulus"":""https://ziweizhang0304.github.io/Stats_learning_trig/img/Stim/FN_004_g.png"",""time"":4085.2000000029802},{""stimulus"":""blank"",""time"":4387.600000008941}]","[{""key_press"":32,""rt"":1887.199999988079,""stimulus"":""https://ziweizhang0304.github.io/Stats_learning_trig/img/Stim/FN_011_g.png""}]","525.1999999880791","https://ziweizhang0304.github.io/Stats_learning_trig/img/Stim/FN_002_g.png","post_TD","8","1362","1887.199999988079","fast","4","1","5dd31ee6181abc335d955478","","","","","",""
"","image-keyboard-response","29","197446","0.0-5.0-8.0-0.0","840","","","https://ziweizhang0304.github.io/Stats_learning_trig/img/Stim/FN_007_g.png","13","","","","","","","","","","","","","","","","","",""
"","animation","30","201872","0.0-5.0-8.0-1.0","","","","","","[{""stimulus"":""https://ziweizhang0304.github.io/Stats_learning_trig/img/Stim/FN_020_g.png"",""time"":343},{""stimulus"":""blank"",""time"":644.7999999970198},{""stimulus"":""https://ziweizhang0304.github.io/Stats_learning_trig/img/Stim/FN_025_g.png"",""time"":685.5999999940395},{""stimulus"":""blank"",""time"":986.6999999880791},{""stimulus"":""https://ziweizhang0304.github.io/Stats_learning_trig/img/Stim/FN_003_g.png"",""time"":1025.8999999910593},{""stimulus"":""blank"",""time"":1326.3999999910593},{""stimulus"":""https://ziweizhang0304.github.io/Stats_learning_trig/img/Stim/FN_010_g.png"",""time"":1365.0999999940395},{""stimulus"":""blank"",""time"":1668.0999999940395},{""stimulus"":""https://ziweizhang0304.github.io/Stats_learning_trig/img/Stim/FN_002_g.png"",""time"":1700.8999999910593},{""stimulus"":""blank"",""time"":2001.5999999940395},{""stimulus"":""https://ziweizhang0304.github.io/Stats_learning_trig/img/Stim/FN_011_g.png"",""time"":2041.699999988079},{""stimulus"":""blank"",""time"":2342.2999999970198},{""stimulus"":""https://ziweizhang0304.github.io/Stats_learning_trig/img/Stim/FN_007_g.png"",""time"":2383.699999988079},{""stimulus"":""blank"",""time"":2685.7999999970198},{""stimulus"":""https://ziweizhang0304.github.io/Stats_learning_trig/img/Stim/FN_019_g.png"",""time"":2723.3999999910593},{""stimulus"":""blank"",""time"":3028.699999988079},{""stimulus"":""https://ziweizhang0304.github.io/Stats_learning_trig/img/Stim/FN_023_g.png"",""time"":3065.199999988079},{""stimulus"":""blank"",""time"":3369.199999988079},{""stimulus"":""https://ziweizhang0304.github.io/Stats_learning_trig/img/Stim/FN_017_g.png"",""time"":3400.8999999910593},{""stimulus"":""blank"",""time"":3701.2999999970198},{""stimulus"":""https://ziweizhang0304.github.io/Stats_learning_trig/img/Stim/FN_012_g.png"",""time"":3741.5999999940395},{""stimulus"":""blank"",""time"":4042.3999999910593},{""stimulus"":""https://ziweizhang0304.github.io/Stats_learning_trig/img/Stim/FN_004_g.png"",""time"":4081.7999999970198},{""stimulus"":""blank"",""time"":4385.79999999702}]","[{""key_press"":32,""rt"":3039.2000000029802,""stimulus"":""blank""}]","655.5000000149012","https://ziweizhang0304.github.io/Stats_learning_trig/img/Stim/FN_007_g.png","post_TD","9","2383.699999988079","3039.2000000029802","fast","7","3","5dd31ee6181abc335d955478","","","","","",""
"","image-keyboard-response","31","203335","0.0-5.0-9.0-0.0","1461.2000000029802","","","https://ziweizhang0304.github.io/Stats_learning_trig/img/Stim/FN_007_g.png","13","","","","","","","","","","","","","","","","","",""
"","animation","32","207758","0.0-5.0-9.0-1.0","","","","","","[{""stimulus"":""https://ziweizhang0304.github.io/Stats_learning_trig/img/Stim/FN_017_g.png"",""time"":345.3999999910593},{""stimulus"":""blank"",""time"":650.7999999970198},{""stimulus"":""https://ziweizhang0304.github.io/Stats_learning_trig/img/Stim/FN_004_g.png"",""time"":685.3999999910593},{""stimulus"":""blank"",""time"":990.7000000029802},{""stimulus"":""https://ziweizhang0304.github.io/Stats_learning_trig/img/Stim/FN_025_g.png"",""time"":1023.5},{""stimulus"":""blank"",""time"":1324.2000000029802},{""stimulus"":""https://ziweizhang0304.github.io/Stats_learning_trig/img/Stim/FN_019_g.png"",""time"":1363.3999999910593},{""stimulus"":""blank"",""time"":1665.8999999910593},{""stimulus"":""https://ziweizhang0304.github.io/Stats_learning_trig/img/Stim/FN_003_g.png"",""time"":1701},{""stimulus"":""blank"",""time"":2001.8999999910593},{""stimulus"":""https://ziweizhang0304.github.io/Stats_learning_trig/img/Stim/FN_002_g.png"",""time"":2045.8999999910593},{""stimulus"":""blank"",""time"":2349.5},{""stimulus"":""https://ziweizhang0304.github.io/Stats_learning_trig/img/Stim/FN_011_g.png"",""time"":2381.3999999910593},{""stimulus"":""blank"",""time"":2686.7000000029802},{""stimulus"":""https://ziweizhang0304.github.io/Stats_learning_trig/img/Stim/FN_007_g.png"",""time"":2721.5},{""stimulus"":""blank"",""time"":3022.2999999970198},{""stimulus"":""https://ziweizhang0304.github.io/Stats_learning_trig/img/Stim/FN_020_g.png"",""time"":3063},{""stimulus"":""blank"",""time"":3366.2000000029802},{""stimulus"":""https://ziweizhang0304.github.io/Stats_learning_trig/img/Stim/FN_023_g.png"",""time"":3402},{""stimulus"":""blank"",""time"":3702.3999999910593},{""stimulus"":""https://ziweizhang0304.github.io/Stats_learning_trig/img/Stim/FN_010_g.png"",""time"":3744.8999999910593},{""stimulus"":""blank"",""time"":4050.2999999970198},{""stimulus"":""https://ziweizhang0304.github.io/Stats_learning_trig/img/Stim/FN_012_g.png"",""time"":4083.8999999910593},{""stimulus"":""blank"",""time"":4389.29999999702}]","[{""key_press"":32,""rt"":3246.699999988079,""stimulus"":""https://ziweizhang0304.github.io/Stats_learning_trig/img/Stim/FN_020_g.png""}]","525.1999999880791","https://ziweizhang0304.github.io/Stats_learning_trig/img/Stim/FN_007_g.png","post_TD","10","2721.5","3246.699999988079","fast","8","3","5dd31ee6181abc335d955478","","","","","",""
"","image-keyboard-response","33","209007","0.0-5.0-10.0-0.0","1246.3999999910593","","","https://ziweizhang0304.github.io/Stats_learning_trig/img/Stim/FN_018_g.png","13","","","","","","","","","","","","","","","","","",""
"","animation","34","213431","0.0-5.0-10.0-1.0","","","","","","[{""stimulus"":""https://ziweizhang0304.github.io/Stats_learning_trig/img/Stim/FN_023_g.png"",""time"":342.6000000089407},{""stimulus"":""blank"",""time"":643.7999999970198},{""stimulus"":""https://ziweizhang0304.github.io/Stats_learning_trig/img/Stim/FN_004_g.png"",""time"":681.6000000089407},{""stimulus"":""blank"",""time"":981.7999999970198},{""stimulus"":""https://ziweizhang0304.github.io/Stats_learning_trig/img/Stim/FN_020_g.png"",""time"":1024.5},{""stimulus"":""blank"",""time"":1327},{""stimulus"":""https://ziweizhang0304.github.io/Stats_learning_trig/img/Stim/FN_021_g.png"",""time"":1364.7000000029802},{""stimulus"":""blank"",""time"":1670.2000000029802},{""stimulus"":""https://ziweizhang0304.github.io/Stats_learning_trig/img/Stim/FN_009_g.png"",""time"":1703.6000000089407},{""stimulus"":""blank"",""time"":2008.9000000059605},{""stimulus"":""https://ziweizhang0304.github.io/Stats_learning_trig/img/Stim/FN_018_g.png"",""time"":2041.5},{""stimulus"":""blank"",""time"":2342.4000000059605},{""stimulus"":""https://ziweizhang0304.github.io/Stats_learning_trig/img/Stim/FN_019_g.png"",""time"":2381},{""stimulus"":""blank"",""time"":2682.1000000089407},{""stimulus"":""https://ziweizhang0304.github.io/Stats_learning_trig/img/Stim/FN_025_g.png"",""time"":2725.9000000059605},{""stimulus"":""blank"",""time"":3027.4000000059605},{""stimulus"":""https://ziweizhang0304.github.io/Stats_learning_trig/img/Stim/FN_003_g.png"",""time"":3061},{""stimulus"":""blank"",""time"":3366.4000000059605},{""stimulus"":""https://ziweizhang0304.github.io/Stats_learning_trig/img/Stim/FN_017_g.png"",""time"":3401.1000000089407},{""stimulus"":""blank"",""time"":3706.4000000059605},{""stimulus"":""https://ziweizhang0304.github.io/Stats_learning_trig/img/Stim/FN_010_g.png"",""time"":3741},{""stimulus"":""blank"",""time"":4041.6000000089407},{""stimulus"":""https://ziweizhang0304.github.io/Stats_learning_trig/img/Stim/FN_012_g.png"",""time"":4081.9000000059605},{""stimulus"":""blank"",""time"":4382.4000000059605}]","[{""key_press"":32,""rt"":2511.2999999970198,""stimulus"":""https://ziweizhang0304.github.io/Stats_learning_trig/img/Stim/FN_019_g.png""}]","469.79999999701977","https://ziweizhang0304.github.io/Stats_learning_trig/img/Stim/FN_018_g.png","post_TD","11","2041.5","2511.2999999970198","slow","6","3","5dd31ee6181abc335d955478","","","","","",""
"","image-keyboard-response","35","215007","0.0-5.0-11.0-0.0","1573.2000000029802","","","https://ziweizhang0304.github.io/Stats_learning_trig/img/Stim/FN_002_g.png","13","","","","","","","","","","","","","","","","","",""
"","animation","36","219432","0.0-5.0-11.0-1.0","","","","","","[{""stimulus"":""https://ziweizhang0304.github.io/Stats_learning_trig/img/Stim/FN_017_g.png"",""time"":342.5},{""stimulus"":""blank"",""time"":642.8999999910593},{""stimulus"":""https://ziweizhang0304.github.io/Stats_learning_trig/img/Stim/FN_004_g.png"",""time"":681.7000000029802},{""stimulus"":""blank"",""time"":982.0999999940395},{""stimulus"":""https://ziweizhang0304.github.io/Stats_learning_trig/img/Stim/FN_025_g.png"",""time"":1025.7999999970198},{""stimulus"":""blank"",""time"":1331},{""stimulus"":""https://ziweizhang0304.github.io/Stats_learning_trig/img/Stim/FN_019_g.png"",""time"":1365.5},{""stimulus"":""blank"",""time"":1666.3999999910593},{""stimulus"":""https://ziweizhang0304.github.io/Stats_learning_trig/img/Stim/FN_003_g.png"",""time"":1705.7999999970198},{""stimulus"":""blank"",""time"":2006.3999999910593},{""stimulus"":""https://ziweizhang0304.github.io/Stats_learning_trig/img/Stim/FN_002_g.png"",""time"":2040.8999999910593},{""stimulus"":""blank"",""time"":2341.7999999970198},{""stimulus"":""https://ziweizhang0304.github.io/Stats_learning_trig/img/Stim/FN_011_g.png"",""time"":2381.8999999910593},{""stimulus"":""blank"",""time"":2682.5999999940395},{""stimulus"":""https://ziweizhang0304.github.io/Stats_learning_trig/img/Stim/FN_007_g.png"",""time"":2721.7999999970198},{""stimulus"":""blank"",""time"":3022.7999999970198},{""stimulus"":""https://ziweizhang0304.github.io/Stats_learning_trig/img/Stim/FN_020_g.png"",""time"":3063.5999999940395},{""stimulus"":""blank"",""time"":3369},{""stimulus"":""https://ziweizhang0304.github.io/Stats_learning_trig/img/Stim/FN_023_g.png"",""time"":3403.5999999940395},{""stimulus"":""blank"",""time"":3708.8999999910593},{""stimulus"":""https://ziweizhang0304.github.io/Stats_learning_trig/img/Stim/FN_010_g.png"",""time"":3741.2999999970198},{""stimulus"":""blank"",""time"":4041.8999999910593},{""stimulus"":""https://ziweizhang0304.github.io/Stats_learning_trig/img/Stim/FN_012_g.png"",""time"":4081.2999999970198},{""stimulus"":""blank"",""time"":4382.79999999702}]","[{""key_press"":32,""rt"":2527.4000000059605,""stimulus"":""https://ziweizhang0304.github.io/Stats_learning_trig/img/Stim/FN_011_g.png""}]","486.50000001490116","https://ziweizhang0304.github.io/Stats_learning_trig/img/Stim/FN_002_g.png","post_TD","12","2040.8999999910593","2527.4000000059605","fast","6","1","5dd31ee6181abc335d955478","","","","","",""
"","image-keyboard-response","37","222022","0.0-5.0-12.0-0.0","2587.7999999970198","","","https://ziweizhang0304.github.io/Stats_learning_trig/img/Stim/FN_002_g.png","13","","","","","","","","","","","","","","","","","",""
"","animation","38","226446","0.0-5.0-12.0-1.0","","","","","","[{""stimulus"":""https://ziweizhang0304.github.io/Stats_learning_trig/img/Stim/FN_020_g.png"",""time"":346.79999999701977},{""stimulus"":""blank"",""time"":652.0999999940395},{""stimulus"":""https://ziweizhang0304.github.io/Stats_learning_trig/img/Stim/FN_025_g.png"",""time"":683.7999999970198},{""stimulus"":""blank"",""time"":985.8999999910593},{""stimulus"":""https://ziweizhang0304.github.io/Stats_learning_trig/img/Stim/FN_003_g.png"",""time"":1021.5999999940395},{""stimulus"":""blank"",""time"":1323.3999999910593},{""stimulus"":""https://ziweizhang0304.github.io/Stats_learning_trig/img/Stim/FN_010_g.png"",""time"":1365.2999999970198},{""stimulus"":""blank"",""time"":1665.8999999910593},{""stimulus"":""https://ziweizhang0304.github.io/Stats_learning_trig/img/Stim/FN_002_g.png"",""time"":1702.8999999910593},{""stimulus"":""blank"",""time"":2007.5},{""stimulus"":""https://ziweizhang0304.github.io/Stats_learning_trig/img/Stim/FN_011_g.png"",""time"":2042.5},{""stimulus"":""blank"",""time"":2347.5},{""stimulus"":""https://ziweizhang0304.github.io/Stats_learning_trig/img/Stim/FN_007_g.png"",""time"":2383},{""stimulus"":""blank"",""time"":2683.3999999910593},{""stimulus"":""https://ziweizhang0304.github.io/Stats_learning_trig/img/Stim/FN_019_g.png"",""time"":2722.699999988079},{""stimulus"":""blank"",""time"":3023.0999999940395},{""stimulus"":""https://ziweizhang0304.github.io/Stats_learning_trig/img/Stim/FN_023_g.png"",""time"":3062.5999999940395},{""stimulus"":""blank"",""time"":3365.3999999910593},{""stimulus"":""https://ziweizhang0304.github.io/Stats_learning_trig/img/Stim/FN_017_g.png"",""time"":3404.7999999970198},{""stimulus"":""blank"",""time"":3710.199999988079},{""stimulus"":""https://ziweizhang0304.github.io/Stats_learning_trig/img/Stim/FN_012_g.png"",""time"":3745.5999999940395},{""stimulus"":""blank"",""time"":4048.5},{""stimulus"":""https://ziweizhang0304.github.io/Stats_learning_trig/img/Stim/FN_004_g.png"",""time"":4084.199999988079},{""stimulus"":""blank"",""time"":4385.199999988079}]","[{""key_press"":32,""rt"":2199.5,""stimulus"":""https://ziweizhang0304.github.io/Stats_learning_trig/img/Stim/FN_011_g.png""}]","496.6000000089407","https://ziweizhang0304.github.io/Stats_learning_trig/img/Stim/FN_002_g.png","post_TD","13","1702.8999999910593","2199.5","fast","5","1","5dd31ee6181abc335d955478","","","","","",""
"","image-keyboard-response","39","227807","0.0-5.0-13.0-0.0","1358.8999999910593","","","https://ziweizhang0304.github.io/Stats_learning_trig/img/Stim/FN_018_g.png","13","","","","","","","","","","","","","","","","","",""
"","animation","40","232229","0.0-5.0-13.0-1.0","","","","","","[{""stimulus"":""https://ziweizhang0304.github.io/Stats_learning_trig/img/Stim/FN_019_g.png"",""time"":343.1000000089407},{""stimulus"":""blank"",""time"":644.5},{""stimulus"":""https://ziweizhang0304.github.io/Stats_learning_trig/img/Stim/FN_020_g.png"",""time"":681},{""stimulus"":""blank"",""time"":981.9000000059605},{""stimulus"":""https://ziweizhang0304.github.io/Stats_learning_trig/img/Stim/FN_023_g.png"",""time"":1021.5},{""stimulus"":""blank"",""time"":1326.9000000059605},{""stimulus"":""https://ziweizhang0304.github.io/Stats_learning_trig/img/Stim/FN_017_g.png"",""time"":1361.5},{""stimulus"":""blank"",""time"":1666.7999999970198},{""stimulus"":""https://ziweizhang0304.github.io/Stats_learning_trig/img/Stim/FN_012_g.png"",""time"":1703.1000000089407},{""stimulus"":""blank"",""time"":2008.4000000059605},{""stimulus"":""https://ziweizhang0304.github.io/Stats_learning_trig/img/Stim/FN_021_g.png"",""time"":2041},{""stimulus"":""blank"",""time"":2341.7000000029802},{""stimulus"":""https://ziweizhang0304.github.io/Stats_learning_trig/img/Stim/FN_009_g.png"",""time"":2381.2000000029802},{""stimulus"":""blank"",""time"":2682.5},{""stimulus"":""https://ziweizhang0304.github.io/Stats_learning_trig/img/Stim/FN_018_g.png"",""time"":2724.7999999970198},{""stimulus"":""blank"",""time"":3030.1000000089407},{""stimulus"":""https://ziweizhang0304.github.io/Stats_learning_trig/img/Stim/FN_025_g.png"",""time"":3065.6000000089407},{""stimulus"":""blank"",""time"":3366.1000000089407},{""stimulus"":""https://ziweizhang0304.github.io/Stats_learning_trig/img/Stim/FN_003_g.png"",""time"":3401.2000000029802},{""stimulus"":""blank"",""time"":3705.5},{""stimulus"":""https://ziweizhang0304.github.io/Stats_learning_trig/img/Stim/FN_010_g.png"",""time"":3740.9000000059605},{""stimulus"":""blank"",""time"":4041.6000000089407},{""stimulus"":""https://ziweizhang0304.github.io/Stats_learning_trig/img/Stim/FN_004_g.png"",""time"":4081},{""stimulus"":""blank"",""time"":4381.70000000298}]","[{""key_press"":32,""rt"":3167,""stimulus"":""https://ziweizhang0304.github.io/Stats_learning_trig/img/Stim/FN_025_g.png""}]","442.20000000298023","https://ziweizhang0304.github.io/Stats_learning_trig/img/Stim/FN_018_g.png","post_TD","14","2724.7999999970198","3167","slow","8","3","5dd31ee6181abc335d955478","","","","","",""
"","image-keyboard-response","41","234462","0.0-5.0-14.0-0.0","2231.5","","","https://ziweizhang0304.github.io/Stats_learning_trig/img/Stim/FN_021_g.png","13","","","","","","","","","","","","","","","","","",""
"","animation","42","238887","0.0-5.0-14.0-1.0","","","","","","[{""stimulus"":""https://ziweizhang0304.github.io/Stats_learning_trig/img/Stim/FN_023_g.png"",""time"":345.59999999403954},{""stimulus"":""blank"",""time"":649.5},{""stimulus"":""https://ziweizhang0304.github.io/Stats_learning_trig/img/Stim/FN_020_g.png"",""time"":681.0999999940395},{""stimulus"":""blank"",""time"":982.8999999910593},{""stimulus"":""https://ziweizhang0304.github.io/Stats_learning_trig/img/Stim/FN_010_g.png"",""time"":1023.7999999970198},{""stimulus"":""blank"",""time"":1324.2999999970198},{""stimulus"":""https://ziweizhang0304.github.io/Stats_learning_trig/img/Stim/FN_003_g.png"",""time"":1364.7999999970198},{""stimulus"":""blank"",""time"":1665.0999999940395},{""stimulus"":""https://ziweizhang0304.github.io/Stats_learning_trig/img/Stim/FN_012_g.png"",""time"":1705.5},{""stimulus"":""blank"",""time"":2010.7999999970198},{""stimulus"":""https://ziweizhang0304.github.io/Stats_learning_trig/img/Stim/FN_019_g.png"",""time"":2043.3999999910593},{""stimulus"":""blank"",""time"":2346.3999999910593},{""stimulus"":""https://ziweizhang0304.github.io/Stats_learning_trig/img/Stim/FN_021_g.png"",""time"":2383.2000000029802},{""stimulus"":""blank"",""time"":2683.7000000029802},{""stimulus"":""https://ziweizhang0304.github.io/Stats_learning_trig/img/Stim/FN_009_g.png"",""time"":2721},{""stimulus"":""blank"",""time"":3022.5999999940395},{""stimulus"":""https://ziweizhang0304.github.io/Stats_learning_trig/img/Stim/FN_018_g.png"",""time"":3061.7999999970198},{""stimulus"":""blank"",""time"":3367.2000000029802},{""stimulus"":""https://ziweizhang0304.github.io/Stats_learning_trig/img/Stim/FN_025_g.png"",""time"":3401.8999999910593},{""stimulus"":""blank"",""time"":3706.5999999940395},{""stimulus"":""https://ziweizhang0304.github.io/Stats_learning_trig/img/Stim/FN_017_g.png"",""time"":3743.5},{""stimulus"":""blank"",""time"":4043.8999999910593},{""stimulus"":""https://ziweizhang0304.github.io/Stats_learning_trig/img/Stim/FN_004_g.png"",""time"":4082.8999999910593},{""stimulus"":""blank"",""time"":4383.0999999940395}]","[{""key_press"":32,""rt"":2814.8999999910593,""stimulus"":""https://ziweizhang0304.github.io/Stats_learning_trig/img/Stim/FN_009_g.png""}]","431.69999998807907","https://ziweizhang0304.github.io/Stats_learning_trig/img/Stim/FN_021_g.png","post_TD","15","2383.2000000029802","2814.8999999910593","slow","7","1","5dd31ee6181abc335d955478","","","","","",""
"","image-keyboard-response","43","240127","0.0-5.0-15.0-0.0","1237.0999999940395","","","https://ziweizhang0304.github.io/Stats_learning_trig/img/Stim/FN_021_g.png","13","","","","","","","","","","","","","","","","","",""
"","animation","44","244548","0.0-5.0-15.0-1.0","","","","","","[{""stimulus"":""https://ziweizhang0304.github.io/Stats_learning_trig/img/Stim/FN_023_g.png"",""time"":342.5},{""stimulus"":""blank"",""time"":646.7000000029802},{""stimulus"":""https://ziweizhang0304.github.io/Stats_learning_trig/img/Stim/FN_004_g.png"",""time"":681.5999999940395},{""stimulus"":""blank"",""time"":987},{""stimulus"":""https://ziweizhang0304.github.io/Stats_learning_trig/img/Stim/FN_020_g.png"",""time"":1020.9000000059605},{""stimulus"":""blank"",""time"":1321.4000000059605},{""stimulus"":""https://ziweizhang0304.github.io/Stats_learning_trig/img/Stim/FN_021_g.png"",""time"":1361.7000000029802},{""stimulus"":""blank"",""time"":1663.4000000059605},{""stimulus"":""https://ziweizhang0304.github.io/Stats_learning_trig/img/Stim/FN_009_g.png"",""time"":1704},{""stimulus"":""blank"",""time"":2005.5999999940395},{""stimulus"":""https://ziweizhang0304.github.io/Stats_learning_trig/img/Stim/FN_018_g.png"",""time"":2045.0999999940395},{""stimulus"":""blank"",""time"":2350.5},{""stimulus"":""https://ziweizhang0304.github.io/Stats_learning_trig/img/Stim/FN_019_g.png"",""time"":2384.5},{""stimulus"":""blank"",""time"":2685.2000000029802},{""stimulus"":""https://ziweizhang0304.github.io/Stats_learning_trig/img/Stim/FN_025_g.png"",""time"":2721.5},{""stimulus"":""blank"",""time"":3022.7999999970198},{""stimulus"":""https://ziweizhang0304.github.io/Stats_learning_trig/img/Stim/FN_003_g.png"",""time"":3061.5},{""stimulus"":""blank"",""time"":3363},{""stimulus"":""https://ziweizhang0304.github.io/Stats_learning_trig/img/Stim/FN_017_g.png"",""time"":3402},{""stimulus"":""blank"",""time"":3704.0999999940395},{""stimulus"":""https://ziweizhang0304.github.io/Stats_learning_trig/img/Stim/FN_010_g.png"",""time"":3745},{""stimulus"":""blank"",""time"":4048},{""stimulus"":""https://ziweizhang0304.github.io/Stats_learning_trig/img/Stim/FN_012_g.png"",""time"":4081.5999999940395},{""stimulus"":""blank"",""time"":4387}]","[{""key_press"":32,""rt"":1878.8999999910593,""stimulus"":""https://ziweizhang0304.github.io/Stats_learning_trig/img/Stim/FN_009_g.png""}]","517.1999999880791","https://ziweizhang0304.github.io/Stats_learning_trig/img/Stim/FN_021_g.png","post_TD","16","1361.7000000029802","1878.8999999910593","slow","4","1","5dd31ee6181abc335d955478","","","","","",""
"","image-keyboard-response","45","245733","0.0-5.0-16.0-0.0","1182.7999999970198","","","https://ziweizhang0304.github.io/Stats_learning_trig/img/Stim/FN_018_g.png","13","","","","","","","","","","","","","","","","","",""
"","animation","46","250156","0.0-5.0-16.0-1.0","","","","","","[{""stimulus"":""https://ziweizhang0304.github.io/Stats_learning_trig/img/Stim/FN_023_g.png"",""time"":346.79999999701977},{""stimulus"":""blank"",""time"":652.2000000029802},{""stimulus"":""https://ziweizhang0304.github.io/Stats_learning_trig/img/Stim/FN_020_g.png"",""time"":685.8999999910593},{""stimulus"":""blank"",""time"":986.2999999970198},{""stimulus"":""https://ziweizhang0304.github.io/Stats_learning_trig/img/Stim/FN_010_g.png"",""time"":1022.8999999910593},{""stimulus"":""blank"",""time"":1325.7000000029802},{""stimulus"":""https://ziweizhang0304.github.io/Stats_learning_trig/img/Stim/FN_003_g.png"",""time"":1362.8999999910593},{""stimulus"":""blank"",""time"":1666.2999999970198},{""stimulus"":""https://ziweizhang0304.github.io/Stats_learning_trig/img/Stim/FN_012_g.png"",""time"":1701.2999999970198},{""stimulus"":""blank"",""time"":2001.8999999910593},{""stimulus"":""https://ziweizhang0304.github.io/Stats_learning_trig/img/Stim/FN_019_g.png"",""time"":2041.0999999940395},{""stimulus"":""blank"",""time"":2343.7999999970198},{""stimulus"":""https://ziweizhang0304.github.io/Stats_learning_trig/img/Stim/FN_021_g.png"",""time"":2382.8999999910593},{""stimulus"":""blank"",""time"":2688.2999999970198},{""stimulus"":""https://ziweizhang0304.github.io/Stats_learning_trig/img/Stim/FN_009_g.png"",""time"":2723},{""stimulus"":""blank"",""time"":3025.8999999910593},{""stimulus"":""https://ziweizhang0304.github.io/Stats_learning_trig/img/Stim/FN_018_g.png"",""time"":3062.7999999970198},{""stimulus"":""blank"",""time"":3363.5},{""stimulus"":""https://ziweizhang0304.github.io/Stats_learning_trig/img/Stim/FN_025_g.png"",""time"":3404.5999999940395},{""stimulus"":""blank"",""time"":3705.0999999940395},{""stimulus"":""https://ziweizhang0304.github.io/Stats_learning_trig/img/Stim/FN_017_g.png"",""time"":3745.8999999910593},{""stimulus"":""blank"",""time"":4050.8999999910593},{""stimulus"":""https://ziweizhang0304.github.io/Stats_learning_trig/img/Stim/FN_004_g.png"",""time"":4083.7999999970198},{""stimulus"":""blank"",""time"":4385.0999999940395}]","[{""key_press"":32,""rt"":3527.2999999970198,""stimulus"":""https://ziweizhang0304.github.io/Stats_learning_trig/img/Stim/FN_025_g.png""}]","464.5","https://ziweizhang0304.github.io/Stats_learning_trig/img/Stim/FN_018_g.png","post_TD","17","3062.7999999970198","3527.2999999970198","slow","9","3","5dd31ee6181abc335d955478","","","","","",""
"","image-keyboard-response","47","251334","0.0-5.0-17.0-0.0","1175.2999999970198","","","https://ziweizhang0304.github.io/Stats_learning_trig/img/Stim/FN_011_g.png","13","","","","","","","","","","","","","","","","","",""
"","animation","48","255756","0.0-5.0-17.0-1.0","","","","","","[{""stimulus"":""https://ziweizhang0304.github.io/Stats_learning_trig/img/Stim/FN_020_g.png"",""time"":342.5},{""stimulus"":""blank"",""time"":646.6999999880791},{""stimulus"":""https://ziweizhang0304.github.io/Stats_learning_trig/img/Stim/FN_025_g.png"",""time"":681.6999999880791},{""stimulus"":""blank"",""time"":987.0999999940395},{""stimulus"":""https://ziweizhang0304.github.io/Stats_learning_trig/img/Stim/FN_003_g.png"",""time"":1022.2999999970198},{""stimulus"":""blank"",""time"":1325.3999999910593},{""stimulus"":""https://ziweizhang0304.github.io/Stats_learning_trig/img/Stim/FN_010_g.png"",""time"":1362.0999999940395},{""stimulus"":""blank"",""time"":1664.5999999940395},{""stimulus"":""https://ziweizhang0304.github.io/Stats_learning_trig/img/Stim/FN_002_g.png"",""time"":1704},{""stimulus"":""blank"",""time"":2004.699999988079},{""stimulus"":""https://ziweizhang0304.github.io/Stats_learning_trig/img/Stim/FN_011_g.png"",""time"":2043.8999999910593},{""stimulus"":""blank"",""time"":2349.199999988079},{""stimulus"":""https://ziweizhang0304.github.io/Stats_learning_trig/img/Stim/FN_007_g.png"",""time"":2386},{""stimulus"":""blank"",""time"":2689},{""stimulus"":""https://ziweizhang0304.github.io/Stats_learning_trig/img/Stim/FN_019_g.png"",""time"":2723.2999999970198},{""stimulus"":""blank"",""time"":3026.199999988079},{""stimulus"":""https://ziweizhang0304.github.io/Stats_learning_trig/img/Stim/FN_023_g.png"",""time"":3061.199999988079},{""stimulus"":""blank"",""time"":3364.5},{""stimulus"":""https://ziweizhang0304.github.io/Stats_learning_trig/img/Stim/FN_017_g.png"",""time"":3400.7999999970198},{""stimulus"":""blank"",""time"":3701.5},{""stimulus"":""https://ziweizhang0304.github.io/Stats_learning_trig/img/Stim/FN_012_g.png"",""time"":3740.8999999910593},{""stimulus"":""blank"",""time"":4046.2999999970198},{""stimulus"":""https://ziweizhang0304.github.io/Stats_learning_trig/img/Stim/FN_004_g.png"",""time"":4081.8999999910593},{""stimulus"":""blank"",""time"":4387.199999988079}]","[{""key_press"":32,""rt"":2638.5,""stimulus"":""https://ziweizhang0304.github.io/Stats_learning_trig/img/Stim/FN_007_g.png""}]","594.6000000089407","https://ziweizhang0304.github.io/Stats_learning_trig/img/Stim/FN_011_g.png","post_TD","18","2043.8999999910593","2638.5","fast","6","2","5dd31ee6181abc335d955478","","","","","",""
"","image-keyboard-response","49","256694","0.0-5.0-18.0-0.0","935.2999999970198","","","https://ziweizhang0304.github.io/Stats_learning_trig/img/Stim/FN_007_g.png","13","","","","","","","","","","","","","","","","","",""
"","animation","50","261119","0.0-5.0-18.0-1.0","","","","","","[{""stimulus"":""https://ziweizhang0304.github.io/Stats_learning_trig/img/Stim/FN_017_g.png"",""time"":343.90000000596046},{""stimulus"":""blank"",""time"":645},{""stimulus"":""https://ziweizhang0304.github.io/Stats_learning_trig/img/Stim/FN_023_g.png"",""time"":683.6000000089407},{""stimulus"":""blank"",""time"":989.1000000089407},{""stimulus"":""https://ziweizhang0304.github.io/Stats_learning_trig/img/Stim/FN_012_g.png"",""time"":1024.1000000089407},{""stimulus"":""blank"",""time"":1329.5},{""stimulus"":""https://ziweizhang0304.github.io/Stats_learning_trig/img/Stim/FN_002_g.png"",""time"":1362.7000000029802},{""stimulus"":""blank"",""time"":1664.6000000089407},{""stimulus"":""https://ziweizhang0304.github.io/Stats_learning_trig/img/Stim/FN_011_g.png"",""time"":1702.300000011921},{""stimulus"":""blank"",""time"":2004.5},{""stimulus"":""https://ziweizhang0304.github.io/Stats_learning_trig/img/Stim/FN_007_g.png"",""time"":2044.7000000029802},{""stimulus"":""blank"",""time"":2344.9000000059605},{""stimulus"":""https://ziweizhang0304.github.io/Stats_learning_trig/img/Stim/FN_020_g.png"",""time"":2385.9000000059605},{""stimulus"":""blank"",""time"":2686.4000000059605},{""stimulus"":""https://ziweizhang0304.github.io/Stats_learning_trig/img/Stim/FN_019_g.png"",""time"":2720.800000011921},{""stimulus"":""blank"",""time"":3023.5},{""stimulus"":""https://ziweizhang0304.github.io/Stats_learning_trig/img/Stim/FN_025_g.png"",""time"":3061.7000000029802},{""stimulus"":""blank"",""time"":3364.4000000059605},{""stimulus"":""https://ziweizhang0304.github.io/Stats_learning_trig/img/Stim/FN_003_g.png"",""time"":3401.6000000089407},{""stimulus"":""blank"",""time"":3701.9000000059605},{""stimulus"":""https://ziweizhang0304.github.io/Stats_learning_trig/img/Stim/FN_010_g.png"",""time"":3743.4000000059605},{""stimulus"":""blank"",""time"":4043.9000000059605},{""stimulus"":""https://ziweizhang0304.github.io/Stats_learning_trig/img/Stim/FN_004_g.png"",""time"":4083.7000000029802},{""stimulus"":""blank"",""time"":4389}]","[{""key_press"":32,""rt"":2607.0999999940395,""stimulus"":""https://ziweizhang0304.github.io/Stats_learning_trig/img/Stim/FN_020_g.png""}]","562.3999999910593","https://ziweizhang0304.github.io/Stats_learning_trig/img/Stim/FN_007_g.png","post_TD","19","2044.7000000029802","2607.0999999940395","fast","6","3","5dd31ee6181abc335d955478","","","","","",""
"","image-keyboard-response","51","262134","0.0-5.0-19.0-0.0","1012.5","","","https://ziweizhang0304.github.io/Stats_learning_trig/img/Stim/FN_011_g.png","13","","","","","","","","","","","","","","","","","",""
"","animation","52","266556","0.0-5.0-19.0-1.0","","","","","","[{""stimulus"":""https://ziweizhang0304.github.io/Stats_learning_trig/img/Stim/FN_017_g.png"",""time"":347.70000000298023},{""stimulus"":""blank"",""time"":648.2000000029802},{""stimulus"":""https://ziweizhang0304.github.io/Stats_learning_trig/img/Stim/FN_004_g.png"",""time"":681.3000000119209},{""stimulus"":""blank"",""time"":986.6000000089407},{""stimulus"":""https://ziweizhang0304.github.io/Stats_learning_trig/img/Stim/FN_025_g.png"",""time"":1021.3000000119209},{""stimulus"":""blank"",""time"":1323.800000011921},{""stimulus"":""https://ziweizhang0304.github.io/Stats_learning_trig/img/Stim/FN_019_g.png"",""time"":1362.800000011921},{""stimulus"":""blank"",""time"":1665.7000000029802},{""stimulus"":""https://ziweizhang0304.github.io/Stats_learning_trig/img/Stim/FN_003_g.png"",""time"":1702.9000000059605},{""stimulus"":""blank"",""time"":2003.4000000059605},{""stimulus"":""https://ziweizhang0304.github.io/Stats_learning_trig/img/Stim/FN_002_g.png"",""time"":2042.5},{""stimulus"":""blank"",""time"":2343.5},{""stimulus"":""https://ziweizhang0304.github.io/Stats_learning_trig/img/Stim/FN_011_g.png"",""time"":2384.5},{""stimulus"":""blank"",""time"":2689.1000000089407},{""stimulus"":""https://ziweizhang0304.github.io/Stats_learning_trig/img/Stim/FN_007_g.png"",""time"":2722.800000011921},{""stimulus"":""blank"",""time"":3025.300000011921},{""stimulus"":""https://ziweizhang0304.github.io/Stats_learning_trig/img/Stim/FN_020_g.png"",""time"":3063.2000000029802},{""stimulus"":""blank"",""time"":3365.2000000029802},{""stimulus"":""https://ziweizhang0304.github.io/Stats_learning_trig/img/Stim/FN_023_g.png"",""time"":3404.5},{""stimulus"":""blank"",""time"":3705},{""stimulus"":""https://ziweizhang0304.github.io/Stats_learning_trig/img/Stim/FN_010_g.png"",""time"":3740.800000011921},{""stimulus"":""blank"",""time"":4043.6000000089407},{""stimulus"":""https://ziweizhang0304.github.io/Stats_learning_trig/img/Stim/FN_012_g.png"",""time"":4081.7000000029802},{""stimulus"":""blank"",""time"":4387}]","[{""key_press"":32,""rt"":2830.5999999940395,""stimulus"":""https://ziweizhang0304.github.io/Stats_learning_trig/img/Stim/FN_007_g.png""}]","446.09999999403954","https://ziweizhang0304.github.io/Stats_learning_trig/img/Stim/FN_011_g.png","post_TD","20","2384.5","2830.5999999940395","fast","7","2","5dd31ee6181abc335d955478","","","","","",""
"","image-keyboard-response","53","267509","0.0-5.0-20.0-0.0","949.2000000029802","","","https://ziweizhang0304.github.io/Stats_learning_trig/img/Stim/FN_002_g.png","13","","","","","","","","","","","","","","","","","",""
"","animation","54","271934","0.0-5.0-20.0-1.0","","","","","","[{""stimulus"":""https://ziweizhang0304.github.io/Stats_learning_trig/img/Stim/FN_017_g.png"",""time"":343.20000000298023},{""stimulus"":""blank"",""time"":644.8999999910593},{""stimulus"":""https://ziweizhang0304.github.io/Stats_learning_trig/img/Stim/FN_023_g.png"",""time"":680.7999999970198},{""stimulus"":""blank"",""time"":982.5},{""stimulus"":""https://ziweizhang0304.github.io/Stats_learning_trig/img/Stim/FN_004_g.png"",""time"":1025.5},{""stimulus"":""blank"",""time"":1326.0999999940395},{""stimulus"":""https://ziweizhang0304.github.io/Stats_learning_trig/img/Stim/FN_010_g.png"",""time"":1365.3999999910593},{""stimulus"":""blank"",""time"":1670.3999999910593},{""stimulus"":""https://ziweizhang0304.github.io/Stats_learning_trig/img/Stim/FN_003_g.png"",""time"":1705.5999999940395},{""stimulus"":""blank"",""time"":2006},{""stimulus"":""https://ziweizhang0304.github.io/Stats_learning_trig/img/Stim/FN_012_g.png"",""time"":2041.8999999910593},{""stimulus"":""blank"",""time"":2343.5999999940395},{""stimulus"":""https://ziweizhang0304.github.io/Stats_learning_trig/img/Stim/FN_002_g.png"",""time"":2381.5999999940395},{""stimulus"":""blank"",""time"":2683.5999999940395},{""stimulus"":""https://ziweizhang0304.github.io/Stats_learning_trig/img/Stim/FN_011_g.png"",""time"":2721.3999999910593},{""stimulus"":""blank"",""time"":3026.7999999970198},{""stimulus"":""https://ziweizhang0304.github.io/Stats_learning_trig/img/Stim/FN_007_g.png"",""time"":3061.5},{""stimulus"":""blank"",""time"":3366.7999999970198},{""stimulus"":""https://ziweizhang0304.github.io/Stats_learning_trig/img/Stim/FN_020_g.png"",""time"":3403.0999999940395},{""stimulus"":""blank"",""time"":3708.5},{""stimulus"":""https://ziweizhang0304.github.io/Stats_learning_trig/img/Stim/FN_019_g.png"",""time"":3742},{""stimulus"":""blank"",""time"":4042.8999999910593},{""stimulus"":""https://ziweizhang0304.github.io/Stats_learning_trig/img/Stim/FN_025_g.png"",""time"":4081.0999999940395},{""stimulus"":""blank"",""time"":4382.79999999702}]","[{""key_press"":32,""rt"":2863.2999999970198,""stimulus"":""https://ziweizhang0304.github.io/Stats_learning_trig/img/Stim/FN_011_g.png""}]","481.70000000298023","https://ziweizhang0304.github.io/Stats_learning_trig/img/Stim/FN_002_g.png","post_TD","21","2381.5999999940395","2863.2999999970198","fast","7","1","5dd31ee6181abc335d955478","","","","","",""
"","image-keyboard-response","55","273029","0.0-5.0-21.0-0.0","1093","","","https://ziweizhang0304.github.io/Stats_learning_trig/img/Stim/FN_009_g.png","13","","","","","","","","","","","","","","","","","",""
"","animation","56","277451","0.0-5.0-21.0-1.0","","","","","","[{""stimulus"":""https://ziweizhang0304.github.io/Stats_learning_trig/img/Stim/FN_023_g.png"",""time"":345.79999999701977},{""stimulus"":""blank"",""time"":650},{""stimulus"":""https://ziweizhang0304.github.io/Stats_learning_trig/img/Stim/FN_004_g.png"",""time"":683.7999999970198},{""stimulus"":""blank"",""time"":989},{""stimulus"":""https://ziweizhang0304.github.io/Stats_learning_trig/img/Stim/FN_020_g.png"",""time"":1021.7999999970198},{""stimulus"":""blank"",""time"":1323.2999999970198},{""stimulus"":""https://ziweizhang0304.github.io/Stats_learning_trig/img/Stim/FN_021_g.png"",""time"":1361.4000000059605},{""stimulus"":""blank"",""time"":1661.9000000059605},{""stimulus"":""https://ziweizhang0304.github.io/Stats_learning_trig/img/Stim/FN_009_g.png"",""time"":1705.5},{""stimulus"":""blank"",""time"":2006.0999999940395},{""stimulus"":""https://ziweizhang0304.github.io/Stats_learning_trig/img/Stim/FN_018_g.png"",""time"":2045.9000000059605},{""stimulus"":""blank"",""time"":2346.4000000059605},{""stimulus"":""https://ziweizhang0304.github.io/Stats_learning_trig/img/Stim/FN_019_g.png"",""time"":2385.0999999940395},{""stimulus"":""blank"",""time"":2687.7999999970198},{""stimulus"":""https://ziweizhang0304.github.io/Stats_learning_trig/img/Stim/FN_025_g.png"",""time"":2721.2999999970198},{""stimulus"":""blank"",""time"":3022.5999999940395},{""stimulus"":""https://ziweizhang0304.github.io/Stats_learning_trig/img/Stim/FN_003_g.png"",""time"":3061.2999999970198},{""stimulus"":""blank"",""time"":3362.2000000029802},{""stimulus"":""https://ziweizhang0304.github.io/Stats_learning_trig/img/Stim/FN_017_g.png"",""time"":3403.2000000029802},{""stimulus"":""blank"",""time"":3708.5},{""stimulus"":""https://ziweizhang0304.github.io/Stats_learning_trig/img/Stim/FN_010_g.png"",""time"":3743.2999999970198},{""stimulus"":""blank"",""time"":4048.5999999940395},{""stimulus"":""https://ziweizhang0304.github.io/Stats_learning_trig/img/Stim/FN_012_g.png"",""time"":4085},{""stimulus"":""blank"",""time"":4389.5}]","[{""key_press"":32,""rt"":2335.300000011921,""stimulus"":""https://ziweizhang0304.github.io/Stats_learning_trig/img/Stim/FN_018_g.png""}]","629.8000000119209","https://ziweizhang0304.github.io/Stats_learning_trig/img/Stim/FN_009_g.png","post_TD","22","1705.5","2335.300000011921","slow","5","2","5dd31ee6181abc335d955478","","","","","",""
"","image-keyboard-response","57","284315","0.0-5.0-22.0-0.0","6861","","","https://ziweizhang0304.github.io/Stats_learning_trig/img/Stim/FN_018_g.png","13","","","","","","","","","","","","","","","","","",""
"","animation","58","288737","0.0-5.0-22.0-1.0","","","","","","[{""stimulus"":""https://ziweizhang0304.github.io/Stats_learning_trig/img/Stim/FN_023_g.png"",""time"":345},{""stimulus"":""blank"",""time"":647.2999999970198},{""stimulus"":""https://ziweizhang0304.github.io/Stats_learning_trig/img/Stim/FN_004_g.png"",""time"":681},{""stimulus"":""blank"",""time"":983.3999999910593},{""stimulus"":""https://ziweizhang0304.github.io/Stats_learning_trig/img/Stim/FN_012_g.png"",""time"":1020.8999999910593},{""stimulus"":""blank"",""time"":1321.5},{""stimulus"":""https://ziweizhang0304.github.io/Stats_learning_trig/img/Stim/FN_003_g.png"",""time"":1362.699999988079},{""stimulus"":""blank"",""time"":1668},{""stimulus"":""https://ziweizhang0304.github.io/Stats_learning_trig/img/Stim/FN_021_g.png"",""time"":1704},{""stimulus"":""blank"",""time"":2006.7999999970198},{""stimulus"":""https://ziweizhang0304.github.io/Stats_learning_trig/img/Stim/FN_009_g.png"",""time"":2043.2999999970198},{""stimulus"":""blank"",""time"":2343.7999999970198},{""stimulus"":""https://ziweizhang0304.github.io/Stats_learning_trig/img/Stim/FN_018_g.png"",""time"":2383.699999988079},{""stimulus"":""blank"",""time"":2686.5},{""stimulus"":""https://ziweizhang0304.github.io/Stats_learning_trig/img/Stim/FN_020_g.png"",""time"":2723.2999999970198},{""stimulus"":""blank"",""time"":3023.7999999970198},{""stimulus"":""https://ziweizhang0304.github.io/Stats_learning_trig/img/Stim/FN_019_g.png"",""time"":3065.699999988079},{""stimulus"":""blank"",""time"":3371.0999999940395},{""stimulus"":""https://ziweizhang0304.github.io/Stats_learning_trig/img/Stim/FN_025_g.png"",""time"":3405.0999999940395},{""stimulus"":""blank"",""time"":3706.7999999970198},{""stimulus"":""https://ziweizhang0304.github.io/Stats_learning_trig/img/Stim/FN_017_g.png"",""time"":3740.699999988079},{""stimulus"":""blank"",""time"":4043.7999999970198},{""stimulus"":""https://ziweizhang0304.github.io/Stats_learning_trig/img/Stim/FN_010_g.png"",""time"":4083.5},{""stimulus"":""blank"",""time"":4386.79999999702}]","[{""key_press"":32,""rt"":2934.2999999970198,""stimulus"":""https://ziweizhang0304.github.io/Stats_learning_trig/img/Stim/FN_020_g.png""}]","550.6000000089407","https://ziweizhang0304.github.io/Stats_learning_trig/img/Stim/FN_018_g.png","post_TD","23","2383.699999988079","2934.2999999970198","slow","7","3","5dd31ee6181abc335d955478","","","","","",""
"","image-keyboard-response","59","290474","0.0-5.0-23.0-0.0","1734.4000000059605","","","https://ziweizhang0304.github.io/Stats_learning_trig/img/Stim/FN_011_g.png","13","","","","","","","","","","","","","","","","","",""
"","animation","60","294896","0.0-5.0-23.0-1.0","","","","","","[{""stimulus"":""https://ziweizhang0304.github.io/Stats_learning_trig/img/Stim/FN_017_g.png"",""time"":345.20000000298023},{""stimulus"":""blank"",""time"":647.7000000029802},{""stimulus"":""https://ziweizhang0304.github.io/Stats_learning_trig/img/Stim/FN_023_g.png"",""time"":681.5999999940395},{""stimulus"":""blank"",""time"":984.4000000059605},{""stimulus"":""https://ziweizhang0304.github.io/Stats_learning_trig/img/Stim/FN_004_g.png"",""time"":1023.0999999940395},{""stimulus"":""blank"",""time"":1326},{""stimulus"":""https://ziweizhang0304.github.io/Stats_learning_trig/img/Stim/FN_010_g.png"",""time"":1362.5},{""stimulus"":""blank"",""time"":1662.9000000059605},{""stimulus"":""https://ziweizhang0304.github.io/Stats_learning_trig/img/Stim/FN_003_g.png"",""time"":1705},{""stimulus"":""blank"",""time"":2006},{""stimulus"":""https://ziweizhang0304.github.io/Stats_learning_trig/img/Stim/FN_012_g.png"",""time"":2044.7999999970198},{""stimulus"":""blank"",""time"":2350.0999999940395},{""stimulus"":""https://ziweizhang0304.github.io/Stats_learning_trig/img/Stim/FN_002_g.png"",""time"":2383.4000000059605},{""stimulus"":""blank"",""time"":2685.5},{""stimulus"":""https://ziweizhang0304.github.io/Stats_learning_trig/img/Stim/FN_011_g.png"",""time"":2723.5},{""stimulus"":""blank"",""time"":3025.4000000059605},{""stimulus"":""https://ziweizhang0304.github.io/Stats_learning_trig/img/Stim/FN_007_g.png"",""time"":3063.9000000059605},{""stimulus"":""blank"",""time"":3365.0999999940395},{""stimulus"":""https://ziweizhang0304.github.io/Stats_learning_trig/img/Stim/FN_020_g.png"",""time"":3401},{""stimulus"":""blank"",""time"":3706.4000000059605},{""stimulus"":""https://ziweizhang0304.github.io/Stats_learning_trig/img/Stim/FN_019_g.png"",""time"":3741},{""stimulus"":""blank"",""time"":4046.2999999970198},{""stimulus"":""https://ziweizhang0304.github.io/Stats_learning_trig/img/Stim/FN_025_g.png"",""time"":4082.5999999940395},{""stimulus"":""blank"",""time"":4385.70000000298}]","[{""key_press"":32,""rt"":3207.6000000089407,""stimulus"":""https://ziweizhang0304.github.io/Stats_learning_trig/img/Stim/FN_007_g.png""}]","484.1000000089407","https://ziweizhang0304.github.io/Stats_learning_trig/img/Stim/FN_011_g.png","post_TD","24","2723.5","3207.6000000089407","fast","8","2","5dd31ee6181abc335d955478","0dd8c","","","","",""
"","survey-text","61","306489","0.0-6.0","11563.10000000894","","","","","","","","","","","","","","","","","","{""Q0"":""no""}","","","",""
"","survey-text","62","327054","0.0-7.0","20560.40000000596","","","","","","","","","","","","","","","","","","{""[object Object]"":""no""}","","","",""
"","instructions","63","341905","0.0-8.0","14850","","[{""page_index"":0,""viewing_time"":14849.70000000298}]","","","","","","","","","","","","","","","","","","","",""
"","free-sort","64","385701","0.0-9.0","43793.5","","","","","","","","","post_drag","","","","fast","","","","","","[{""src"":""https://ziweizhang0304.github.io/Stats_learning_trig/img/Stim/FN_007_g.png"",""x"":475,""y"":0},{""src"":""https://ziweizhang0304.github.io/Stats_learning_trig/img/Stim/FN_002_g.png"",""x"":-225,""y"":50},{""src"":""https://ziweizhang0304.github.io/Stats_learning_trig/img/Stim/FN_011_g.png"",""x"":475,""y"":50}]","[{""src"":""https://ziweizhang0304.github.io/Stats_learning_trig/img/Stim/FN_011_g.png"",""x"":32,""y"":21},{""src"":""https://ziweizhang0304.github.io/Stats_learning_trig/img/Stim/FN_002_g.png"",""x"":109,""y"":49},{""src"":""https://ziweizhang0304.github.io/Stats_learning_trig/img/Stim/FN_007_g.png"",""x"":233,""y"":42},{""src"":""https://ziweizhang0304.github.io/Stats_learning_trig/img/Stim/FN_002_g.png"",""x"":127,""y"":31},{""src"":""https://ziweizhang0304.github.io/Stats_learning_trig/img/Stim/FN_007_g.png"",""x"":229,""y"":19}]","[{""src"":""https://ziweizhang0304.github.io/Stats_learning_trig/img/Stim/FN_007_g.png"",""x"":229,""y"":19},{""src"":""https://ziweizhang0304.github.io/Stats_learning_trig/img/Stim/FN_002_g.png"",""x"":127,""y"":31},{""src"":""https://ziweizhang0304.github.io/Stats_learning_trig/img/Stim/FN_011_g.png"",""x"":32,""y"":21}]",""
"","free-sort","65","417520","0.0-10.0","31818.09999999404","","","","","","","","","post_drag","","","","slow","","","","","","[{""src"":""https://ziweizhang0304.github.io/Stats_learning_trig/img/Stim/FN_009_g.png"",""x"":475,""y"":0},{""src"":""https://ziweizhang0304.github.io/Stats_learning_trig/img/Stim/FN_018_g.png"",""x"":-225,""y"":50},{""src"":""https://ziweizhang0304.github.io/Stats_learning_trig/img/Stim/FN_021_g.png"",""x"":475,""y"":50}]","[{""src"":""https://ziweizhang0304.github.io/Stats_learning_trig/img/Stim/FN_021_g.png"",""x"":28,""y"":28},{""src"":""https://ziweizhang0304.github.io/Stats_learning_trig/img/Stim/FN_018_g.png"",""x"":105,""y"":25},{""src"":""https://ziweizhang0304.github.io/Stats_learning_trig/img/Stim/FN_021_g.png"",""x"":178,""y"":19},{""src"":""https://ziweizhang0304.github.io/Stats_learning_trig/img/Stim/FN_018_g.png"",""x"":29,""y"":23},{""src"":""https://ziweizhang0304.github.io/Stats_learning_trig/img/Stim/FN_021_g.png"",""x"":118,""y"":28},{""src"":""https://ziweizhang0304.github.io/Stats_learning_trig/img/Stim/FN_009_g.png"",""x"":233,""y"":22}]","[{""src"":""https://ziweizhang0304.github.io/Stats_learning_trig/img/Stim/FN_009_g.png"",""x"":233,""y"":22},{""src"":""https://ziweizhang0304.github.io/Stats_learning_trig/img/Stim/FN_018_g.png"",""x"":29,""y"":23},{""src"":""https://ziweizhang0304.github.io/Stats_learning_trig/img/Stim/FN_021_g.png"",""x"":118,""y"":28}]",""
"","survey-multi-choice","66","436182","0.0-11.0","18655.70000000298","","","","","","","","","","","","","","","","5dd31ee6181abc335d955478","","{""awareness"":""No"",""attention_check"":""Press SPACEBAR to a target""}","","","","[0,1]"
