"success","trial_type","trial_index","time_elapsed","internal_node_id","rt","url","view_history","stimulus","key_press","animation_sequence","response","TD_rt","TD_target","test_part","TD_trial_number","onset","offset","attention_state","TD_target_position","TD_within_triplet_counter","participant","yoke_participant","responses","init_locations","moves","final_locations","question_order"
"true","fullscreen","0","2840","0.0-0.0","","","","","","","","","","","","","","","","","","","","","","",""
"","external-html","1","8276","0.0-1.0","5291.400000000009","https://ziweizhang0304.github.io/Stats_learning_trig/content/consent.html","","","","","","","","","","","","","","","","","","","","",""
"","instructions","2","38434","0.0-2.0","30150.40000000001","","[{""page_index"":0,""viewing_time"":2792.5},{""page_index"":1,""viewing_time"":18030.40000000001},{""page_index"":2,""viewing_time"":8019.399999999994},{""page_index"":3,""viewing_time"":1305.8999999999942}]","","","","","","","","","","","","","","","","","","","",""
"","image-keyboard-response","3","43142","0.0-3.0-0.0-0.0","4712.200000000012","","","https://ziweizhang0304.github.io/Stats_learning_trig/img/Stim/FN_020_g.png","13","","","","","","","","","","","","","","","","","",""
"","animation","4","47568","0.0-3.0-0.0-1.0","","","","","","[{""stimulus"":""https://ziweizhang0304.github.io/Stats_learning_trig/img/Stim/FN_009_g.png"",""time"":372.19999999998254},{""stimulus"":""blank"",""time"":678.0999999999767},{""stimulus"":""https://ziweizhang0304.github.io/Stats_learning_trig/img/Stim/FN_020_g.png"",""time"":681.2999999999884},{""stimulus"":""blank"",""time"":988.2999999999884},{""stimulus"":""https://ziweizhang0304.github.io/Stats_learning_trig/img/Stim/FN_007_g.png"",""time"":1025},{""stimulus"":""blank"",""time"":1327.7999999999884},{""stimulus"":""https://ziweizhang0304.github.io/Stats_learning_trig/img/Stim/FN_024_g.png"",""time"":1364.5},{""stimulus"":""blank"",""time"":1668},{""stimulus"":""https://ziweizhang0304.github.io/Stats_learning_trig/img/Stim/FN_003_g.png"",""time"":1704.3999999999942},{""stimulus"":""blank"",""time"":2013.1999999999825},{""stimulus"":""https://ziweizhang0304.github.io/Stats_learning_trig/img/Stim/FN_011_g.png"",""time"":2045.0999999999767},{""stimulus"":""blank"",""time"":2353.399999999994},{""stimulus"":""https://ziweizhang0304.github.io/Stats_learning_trig/img/Stim/FN_019_g.png"",""time"":2385},{""stimulus"":""blank"",""time"":2699.0999999999767},{""stimulus"":""https://ziweizhang0304.github.io/Stats_learning_trig/img/Stim/FN_025_g.png"",""time"":2730.899999999994},{""stimulus"":""blank"",""time"":3034.5999999999767},{""stimulus"":""https://ziweizhang0304.github.io/Stats_learning_trig/img/Stim/FN_015_g.png"",""time"":3066},{""stimulus"":""blank"",""time"":3380.6999999999825},{""stimulus"":""https://ziweizhang0304.github.io/Stats_learning_trig/img/Stim/FN_010_g.png"",""time"":3412.399999999994},{""stimulus"":""blank"",""time"":3716.5999999999767},{""stimulus"":""https://ziweizhang0304.github.io/Stats_learning_trig/img/Stim/FN_012_g.png"",""time"":3748.399999999994},{""stimulus"":""blank"",""time"":4051.6999999999825},{""stimulus"":""https://ziweizhang0304.github.io/Stats_learning_trig/img/Stim/FN_001_g.png"",""time"":4083.5},{""stimulus"":""blank"",""time"":4386.899999999994}]","[{""key_press"":32,""rt"":1233.6999999999825,""stimulus"":""https://ziweizhang0304.github.io/Stats_learning_trig/img/Stim/FN_007_g.png""},{""key_press"":32,""rt"":2400.2999999999884,""stimulus"":""https://ziweizhang0304.github.io/Stats_learning_trig/img/Stim/FN_019_g.png""}]","552.3999999999942","https://ziweizhang0304.github.io/Stats_learning_trig/img/Stim/FN_020_g.png","post_prac","","","","","","","","","","","","",""
"","html-keyboard-response","5","51916","0.0-3.0-0.0-2.0","4337.700000000012","","","<p>Your reaction time for this trial was 552.4 ms.</p><p>Remember that you should only press the SPACEBAR when you see the shape presented at the beginning of the trial. </b> </p><p>Press enter to move on.</p>","13","","","","","","","","","","","","","","","","","",""
"","image-keyboard-response","6","56091","0.0-3.0-1.0-0.0","4173.600000000006","","","https://ziweizhang0304.github.io/Stats_learning_trig/img/Stim/FN_012_g.png","13","","","","","","","","","","","","","","","","","",""
"","animation","7","60515","0.0-3.0-1.0-1.0","","","","","","[{""stimulus"":""https://ziweizhang0304.github.io/Stats_learning_trig/img/Stim/FN_015_g.png"",""time"":350},{""stimulus"":""blank"",""time"":665.5},{""stimulus"":""https://ziweizhang0304.github.io/Stats_learning_trig/img/Stim/FN_019_g.png"",""time"":681.4000000000233},{""stimulus"":""blank"",""time"":997},{""stimulus"":""https://ziweizhang0304.github.io/Stats_learning_trig/img/Stim/FN_025_g.png"",""time"":1028.8000000000175},{""stimulus"":""blank"",""time"":1340.3000000000175},{""stimulus"":""https://ziweizhang0304.github.io/Stats_learning_trig/img/Stim/FN_012_g.png"",""time"":1372.1000000000058},{""stimulus"":""blank"",""time"":1685.4000000000233},{""stimulus"":""https://ziweizhang0304.github.io/Stats_learning_trig/img/Stim/FN_020_g.png"",""time"":1701.5},{""stimulus"":""blank"",""time"":2016.3000000000175},{""stimulus"":""https://ziweizhang0304.github.io/Stats_learning_trig/img/Stim/FN_009_g.png"",""time"":2048.100000000006},{""stimulus"":""blank"",""time"":2356.4000000000233},{""stimulus"":""https://ziweizhang0304.github.io/Stats_learning_trig/img/Stim/FN_001_g.png"",""time"":2388.3000000000175},{""stimulus"":""blank"",""time"":2702.3000000000175},{""stimulus"":""https://ziweizhang0304.github.io/Stats_learning_trig/img/Stim/FN_007_g.png"",""time"":2734},{""stimulus"":""blank"",""time"":3048.100000000006},{""stimulus"":""https://ziweizhang0304.github.io/Stats_learning_trig/img/Stim/FN_011_g.png"",""time"":3064.100000000006},{""stimulus"":""blank"",""time"":3368.2000000000116},{""stimulus"":""https://ziweizhang0304.github.io/Stats_learning_trig/img/Stim/FN_010_g.png"",""time"":3404.9000000000233},{""stimulus"":""blank"",""time"":3719},{""stimulus"":""https://ziweizhang0304.github.io/Stats_learning_trig/img/Stim/FN_003_g.png"",""time"":3750.7000000000116},{""stimulus"":""blank"",""time"":4064.7000000000116},{""stimulus"":""https://ziweizhang0304.github.io/Stats_learning_trig/img/Stim/FN_024_g.png"",""time"":4080.9000000000233},{""stimulus"":""blank"",""time"":4385.600000000006}]","[{""key_press"":32,""rt"":1846.5,""stimulus"":""https://ziweizhang0304.github.io/Stats_learning_trig/img/Stim/FN_020_g.png""}]","474.3999999999942","https://ziweizhang0304.github.io/Stats_learning_trig/img/Stim/FN_012_g.png","post_prac","","","","","","","","","","","","",""
"","html-keyboard-response","8","64373","0.0-3.0-1.0-2.0","3853.7999999999884","","","<p>Your reaction time for this trial was 474.4 ms.</p><p>Remember that you should only press the SPACEBAR when you see the shape presented at the beginning of the trial. </b> </p><p>Press enter to move on.</p>","13","","","","","","","","","","","","","","","","","",""
"","image-keyboard-response","9","68641","0.0-3.0-2.0-0.0","4266.200000000012","","","https://ziweizhang0304.github.io/Stats_learning_trig/img/Stim/FN_023_g.png","13","","","","","","","","","","","","","","","","","",""
"","animation","10","73075","0.0-3.0-2.0-1.0","","","","","","[{""stimulus"":""https://ziweizhang0304.github.io/Stats_learning_trig/img/Stim/FN_001_g.png"",""time"":351.1000000000058},{""stimulus"":""blank"",""time"":666.7999999999884},{""stimulus"":""https://ziweizhang0304.github.io/Stats_learning_trig/img/Stim/FN_010_g.png"",""time"":682.7999999999884},{""stimulus"":""blank"",""time"":997.5},{""stimulus"":""https://ziweizhang0304.github.io/Stats_learning_trig/img/Stim/FN_025_g.png"",""time"":1029.2000000000116},{""stimulus"":""blank"",""time"":1337.7000000000116},{""stimulus"":""https://ziweizhang0304.github.io/Stats_learning_trig/img/Stim/FN_007_g.png"",""time"":1369.3999999999942},{""stimulus"":""blank"",""time"":1683.5},{""stimulus"":""https://ziweizhang0304.github.io/Stats_learning_trig/img/Stim/FN_018_g.png"",""time"":1715.2999999999884},{""stimulus"":""blank"",""time"":2018.8999999999942},{""stimulus"":""https://ziweizhang0304.github.io/Stats_learning_trig/img/Stim/FN_023_g.png"",""time"":2050.399999999994},{""stimulus"":""blank"",""time"":2353.899999999994},{""stimulus"":""https://ziweizhang0304.github.io/Stats_learning_trig/img/Stim/FN_021_g.png"",""time"":2385.5},{""stimulus"":""blank"",""time"":2699.600000000006},{""stimulus"":""https://ziweizhang0304.github.io/Stats_learning_trig/img/Stim/FN_015_g.png"",""time"":2731.5},{""stimulus"":""blank"",""time"":3034.7999999999884},{""stimulus"":""https://ziweizhang0304.github.io/Stats_learning_trig/img/Stim/FN_019_g.png"",""time"":3066.399999999994},{""stimulus"":""blank"",""time"":3370.5},{""stimulus"":""https://ziweizhang0304.github.io/Stats_learning_trig/img/Stim/FN_011_g.png"",""time"":3402.2999999999884},{""stimulus"":""blank"",""time"":3705.7999999999884},{""stimulus"":""https://ziweizhang0304.github.io/Stats_learning_trig/img/Stim/FN_003_g.png"",""time"":3741.2000000000116},{""stimulus"":""blank"",""time"":4054.7000000000116},{""stimulus"":""https://ziweizhang0304.github.io/Stats_learning_trig/img/Stim/FN_024_g.png"",""time"":4086.5},{""stimulus"":""blank"",""time"":4400.600000000006}]","[{""key_press"":32,""rt"":2787.5,""stimulus"":""https://ziweizhang0304.github.io/Stats_learning_trig/img/Stim/FN_015_g.png""}]","737.1000000000058","https://ziweizhang0304.github.io/Stats_learning_trig/img/Stim/FN_023_g.png","post_prac","","","","","","","","","","","","",""
"","html-keyboard-response","11","75063","0.0-3.0-2.0-2.0","1983.6999999999825","","","<p>Your reaction time for this trial was 737.1 ms.</p><p>Remember that you should only press the SPACEBAR when you see the shape presented at the beginning of the trial. </b> </p><p>Press enter to move on.</p>","13","","","","","","","","","","","","","","","","","",""
"","instructions","12","77181","0.0-4.0","2116.899999999994","","[{""page_index"":0,""viewing_time"":2116.5}]","","","","","","","","","","","","","","","","","","","",""
"","image-keyboard-response","13","79087","0.0-5.0-0.0-0.0","1903.5","","","https://ziweizhang0304.github.io/Stats_learning_trig/img/Stim/FN_012_g.png","13","","","","","","","","","","","","","","","","","",""
"","animation","14","83518","0.0-5.0-0.0-1.0","","","","","","[{""stimulus"":""https://ziweizhang0304.github.io/Stats_learning_trig/img/Stim/FN_015_g.png"",""time"":348.6000000000058},{""stimulus"":""blank"",""time"":657.8999999999942},{""stimulus"":""https://ziweizhang0304.github.io/Stats_learning_trig/img/Stim/FN_019_g.png"",""time"":689.8000000000175},{""stimulus"":""blank"",""time"":993.1000000000058},{""stimulus"":""https://ziweizhang0304.github.io/Stats_learning_trig/img/Stim/FN_025_g.png"",""time"":1025.2000000000116},{""stimulus"":""blank"",""time"":1339.6000000000058},{""stimulus"":""https://ziweizhang0304.github.io/Stats_learning_trig/img/Stim/FN_012_g.png"",""time"":1371.2000000000116},{""stimulus"":""blank"",""time"":1674.7000000000116},{""stimulus"":""https://ziweizhang0304.github.io/Stats_learning_trig/img/Stim/FN_020_g.png"",""time"":1706.3999999999942},{""stimulus"":""blank"",""time"":2009.8000000000175},{""stimulus"":""https://ziweizhang0304.github.io/Stats_learning_trig/img/Stim/FN_009_g.png"",""time"":2041.7000000000116},{""stimulus"":""blank"",""time"":2345.2000000000116},{""stimulus"":""https://ziweizhang0304.github.io/Stats_learning_trig/img/Stim/FN_001_g.png"",""time"":2381.8000000000175},{""stimulus"":""blank"",""time"":2690.8000000000175},{""stimulus"":""https://ziweizhang0304.github.io/Stats_learning_trig/img/Stim/FN_007_g.png"",""time"":2722.5},{""stimulus"":""blank"",""time"":3037.3000000000175},{""stimulus"":""https://ziweizhang0304.github.io/Stats_learning_trig/img/Stim/FN_011_g.png"",""time"":3069.100000000006},{""stimulus"":""blank"",""time"":3372.399999999994},{""stimulus"":""https://ziweizhang0304.github.io/Stats_learning_trig/img/Stim/FN_010_g.png"",""time"":3404.3000000000175},{""stimulus"":""blank"",""time"":3706.8000000000175},{""stimulus"":""https://ziweizhang0304.github.io/Stats_learning_trig/img/Stim/FN_003_g.png"",""time"":3743.399999999994},{""stimulus"":""blank"",""time"":4057.7000000000116},{""stimulus"":""https://ziweizhang0304.github.io/Stats_learning_trig/img/Stim/FN_024_g.png"",""time"":4089.100000000006},{""stimulus"":""blank"",""time"":4397.899999999994}]","[{""key_press"":32,""rt"":1873.8000000000175,""stimulus"":""https://ziweizhang0304.github.io/Stats_learning_trig/img/Stim/FN_020_g.png""}]","502.6000000000058","https://ziweizhang0304.github.io/Stats_learning_trig/img/Stim/FN_012_g.png","post_TD","1","1371.2000000000116","1873.8000000000175","fast","4","1","5fed6c9c0d786daf31f29f3d","","","","","",""
"","image-keyboard-response","15","85214","0.0-5.0-1.0-0.0","1691.3000000000175","","","https://ziweizhang0304.github.io/Stats_learning_trig/img/Stim/FN_018_g.png","13","","","","","","","","","","","","","","","","","",""
"","animation","16","89642","0.0-5.0-1.0-1.0","","","","","","[{""stimulus"":""https://ziweizhang0304.github.io/Stats_learning_trig/img/Stim/FN_015_g.png"",""time"":351.0999999999767},{""stimulus"":""blank"",""time"":661.1999999999825},{""stimulus"":""https://ziweizhang0304.github.io/Stats_learning_trig/img/Stim/FN_024_g.png"",""time"":692.8999999999942},{""stimulus"":""blank"",""time"":996.3999999999942},{""stimulus"":""https://ziweizhang0304.github.io/Stats_learning_trig/img/Stim/FN_011_g.png"",""time"":1028.0999999999767},{""stimulus"":""blank"",""time"":1332},{""stimulus"":""https://ziweizhang0304.github.io/Stats_learning_trig/img/Stim/FN_010_g.png"",""time"":1363.7999999999884},{""stimulus"":""blank"",""time"":1667.3999999999942},{""stimulus"":""https://ziweizhang0304.github.io/Stats_learning_trig/img/Stim/FN_019_g.png"",""time"":1704},{""stimulus"":""blank"",""time"":2013},{""stimulus"":""https://ziweizhang0304.github.io/Stats_learning_trig/img/Stim/FN_018_g.png"",""time"":2044.6999999999825},{""stimulus"":""blank"",""time"":2353.2999999999884},{""stimulus"":""https://ziweizhang0304.github.io/Stats_learning_trig/img/Stim/FN_023_g.png"",""time"":2384.7999999999884},{""stimulus"":""blank"",""time"":2698.899999999994},{""stimulus"":""https://ziweizhang0304.github.io/Stats_learning_trig/img/Stim/FN_021_g.png"",""time"":2730.6999999999825},{""stimulus"":""blank"",""time"":3034.2999999999884},{""stimulus"":""https://ziweizhang0304.github.io/Stats_learning_trig/img/Stim/FN_001_g.png"",""time"":3066},{""stimulus"":""blank"",""time"":3369.399999999994},{""stimulus"":""https://ziweizhang0304.github.io/Stats_learning_trig/img/Stim/FN_007_g.png"",""time"":3401.2999999999884},{""stimulus"":""blank"",""time"":3715.1999999999825},{""stimulus"":""https://ziweizhang0304.github.io/Stats_learning_trig/img/Stim/FN_025_g.png"",""time"":3747.0999999999767},{""stimulus"":""blank"",""time"":4050.399999999994},{""stimulus"":""https://ziweizhang0304.github.io/Stats_learning_trig/img/Stim/FN_003_g.png"",""time"":4081.7999999999884},{""stimulus"":""blank"",""time"":4395.399999999994}]","[{""key_press"":32,""rt"":2447.2000000000116,""stimulus"":""https://ziweizhang0304.github.io/Stats_learning_trig/img/Stim/FN_023_g.png""}]","402.5000000000291","https://ziweizhang0304.github.io/Stats_learning_trig/img/Stim/FN_018_g.png","post_TD","2","2044.6999999999825","2447.2000000000116","slow","6","1","5fed6c9c0d786daf31f29f3d","","","","","",""
"","image-keyboard-response","17","91088","0.0-5.0-2.0-0.0","1443.6000000000058","","","https://ziweizhang0304.github.io/Stats_learning_trig/img/Stim/FN_023_g.png","13","","","","","","","","","","","","","","","","","",""
"","animation","18","95518","0.0-5.0-2.0-1.0","","","","","","[{""stimulus"":""https://ziweizhang0304.github.io/Stats_learning_trig/img/Stim/FN_015_g.png"",""time"":354.5},{""stimulus"":""blank"",""time"":659.1000000000058},{""stimulus"":""https://ziweizhang0304.github.io/Stats_learning_trig/img/Stim/FN_024_g.png"",""time"":690.8000000000175},{""stimulus"":""blank"",""time"":994.3000000000175},{""stimulus"":""https://ziweizhang0304.github.io/Stats_learning_trig/img/Stim/FN_011_g.png"",""time"":1026},{""stimulus"":""blank"",""time"":1340},{""stimulus"":""https://ziweizhang0304.github.io/Stats_learning_trig/img/Stim/FN_010_g.png"",""time"":1371.7000000000116},{""stimulus"":""blank"",""time"":1675.2000000000116},{""stimulus"":""https://ziweizhang0304.github.io/Stats_learning_trig/img/Stim/FN_019_g.png"",""time"":1706.7000000000116},{""stimulus"":""blank"",""time"":2021.6000000000058},{""stimulus"":""https://ziweizhang0304.github.io/Stats_learning_trig/img/Stim/FN_018_g.png"",""time"":2053.3000000000175},{""stimulus"":""blank"",""time"":2356.7000000000116},{""stimulus"":""https://ziweizhang0304.github.io/Stats_learning_trig/img/Stim/FN_023_g.png"",""time"":2388.4000000000233},{""stimulus"":""blank"",""time"":2691.9000000000233},{""stimulus"":""https://ziweizhang0304.github.io/Stats_learning_trig/img/Stim/FN_021_g.png"",""time"":2723.5},{""stimulus"":""blank"",""time"":3027.100000000006},{""stimulus"":""https://ziweizhang0304.github.io/Stats_learning_trig/img/Stim/FN_001_g.png"",""time"":3063.600000000006},{""stimulus"":""blank"",""time"":3367.4000000000233},{""stimulus"":""https://ziweizhang0304.github.io/Stats_learning_trig/img/Stim/FN_007_g.png"",""time"":3404},{""stimulus"":""blank"",""time"":3707.5},{""stimulus"":""https://ziweizhang0304.github.io/Stats_learning_trig/img/Stim/FN_025_g.png"",""time"":3744.100000000006},{""stimulus"":""blank"",""time"":4058.4000000000233},{""stimulus"":""https://ziweizhang0304.github.io/Stats_learning_trig/img/Stim/FN_003_g.png"",""time"":4089.9000000000233},{""stimulus"":""blank"",""time"":4398.5}]","[{""key_press"":32,""rt"":2659.600000000006,""stimulus"":""https://ziweizhang0304.github.io/Stats_learning_trig/img/Stim/FN_023_g.png""}]","271.19999999998254","https://ziweizhang0304.github.io/Stats_learning_trig/img/Stim/FN_023_g.png","post_TD","3","2388.4000000000233","2659.600000000006","slow","7","2","5fed6c9c0d786daf31f29f3d","","","","","",""
"","image-keyboard-response","19","96994","0.0-5.0-3.0-0.0","1473.8999999999942","","","https://ziweizhang0304.github.io/Stats_learning_trig/img/Stim/FN_018_g.png","13","","","","","","","","","","","","","","","","","",""
"","animation","20","101426","0.0-5.0-3.0-1.0","","","","","","[{""stimulus"":""https://ziweizhang0304.github.io/Stats_learning_trig/img/Stim/FN_001_g.png"",""time"":348.80000000001746},{""stimulus"":""blank"",""time"":658.7000000000116},{""stimulus"":""https://ziweizhang0304.github.io/Stats_learning_trig/img/Stim/FN_010_g.png"",""time"":690.3000000000175},{""stimulus"":""blank"",""time"":1004},{""stimulus"":""https://ziweizhang0304.github.io/Stats_learning_trig/img/Stim/FN_025_g.png"",""time"":1035.5},{""stimulus"":""blank"",""time"":1349.7000000000116},{""stimulus"":""https://ziweizhang0304.github.io/Stats_learning_trig/img/Stim/FN_007_g.png"",""time"":1365.6000000000058},{""stimulus"":""blank"",""time"":1670.5},{""stimulus"":""https://ziweizhang0304.github.io/Stats_learning_trig/img/Stim/FN_018_g.png"",""time"":1702.1000000000058},{""stimulus"":""blank"",""time"":2016.2000000000116},{""stimulus"":""https://ziweizhang0304.github.io/Stats_learning_trig/img/Stim/FN_023_g.png"",""time"":2047.8000000000175},{""stimulus"":""blank"",""time"":2351.5},{""stimulus"":""https://ziweizhang0304.github.io/Stats_learning_trig/img/Stim/FN_021_g.png"",""time"":2383.3000000000175},{""stimulus"":""blank"",""time"":2691.7000000000116},{""stimulus"":""https://ziweizhang0304.github.io/Stats_learning_trig/img/Stim/FN_015_g.png"",""time"":2723.100000000006},{""stimulus"":""blank"",""time"":3037.3000000000175},{""stimulus"":""https://ziweizhang0304.github.io/Stats_learning_trig/img/Stim/FN_019_g.png"",""time"":3062.8000000000175},{""stimulus"":""blank"",""time"":3371.3000000000175},{""stimulus"":""https://ziweizhang0304.github.io/Stats_learning_trig/img/Stim/FN_011_g.png"",""time"":3402.899999999994},{""stimulus"":""blank"",""time"":3717.8000000000175},{""stimulus"":""https://ziweizhang0304.github.io/Stats_learning_trig/img/Stim/FN_003_g.png"",""time"":3749.399999999994},{""stimulus"":""blank"",""time"":4053.5},{""stimulus"":""https://ziweizhang0304.github.io/Stats_learning_trig/img/Stim/FN_024_g.png"",""time"":4085.5},{""stimulus"":""blank"",""time"":4399.3000000000175}]","[{""key_press"":32,""rt"":2179.399999999994,""stimulus"":""https://ziweizhang0304.github.io/Stats_learning_trig/img/Stim/FN_023_g.png""}]","477.29999999998836","https://ziweizhang0304.github.io/Stats_learning_trig/img/Stim/FN_018_g.png","post_TD","4","1702.1000000000058","2179.399999999994","slow","5","1","5fed6c9c0d786daf31f29f3d","","","","","",""
"","image-keyboard-response","21","103012","0.0-5.0-4.0-0.0","1583.1000000000058","","","https://ziweizhang0304.github.io/Stats_learning_trig/img/Stim/FN_012_g.png","13","","","","","","","","","","","","","","","","","",""
"","animation","22","107448","0.0-5.0-4.0-1.0","","","","","","[{""stimulus"":""https://ziweizhang0304.github.io/Stats_learning_trig/img/Stim/FN_019_g.png"",""time"":349.1000000000058},{""stimulus"":""blank"",""time"":659.1999999999825},{""stimulus"":""https://ziweizhang0304.github.io/Stats_learning_trig/img/Stim/FN_010_g.png"",""time"":690.6999999999825},{""stimulus"":""blank"",""time"":1004.3999999999942},{""stimulus"":""https://ziweizhang0304.github.io/Stats_learning_trig/img/Stim/FN_024_g.png"",""time"":1036},{""stimulus"":""blank"",""time"":1344.5},{""stimulus"":""https://ziweizhang0304.github.io/Stats_learning_trig/img/Stim/FN_007_g.png"",""time"":1376},{""stimulus"":""blank"",""time"":1685.1999999999825},{""stimulus"":""https://ziweizhang0304.github.io/Stats_learning_trig/img/Stim/FN_015_g.png"",""time"":1701.1000000000058},{""stimulus"":""blank"",""time"":2016.6999999999825},{""stimulus"":""https://ziweizhang0304.github.io/Stats_learning_trig/img/Stim/FN_001_g.png"",""time"":2048.399999999994},{""stimulus"":""blank"",""time"":2352.5},{""stimulus"":""https://ziweizhang0304.github.io/Stats_learning_trig/img/Stim/FN_012_g.png"",""time"":2384.1999999999825},{""stimulus"":""blank"",""time"":2692.7999999999884},{""stimulus"":""https://ziweizhang0304.github.io/Stats_learning_trig/img/Stim/FN_020_g.png"",""time"":2724.2999999999884},{""stimulus"":""blank"",""time"":3037.6999999999825},{""stimulus"":""https://ziweizhang0304.github.io/Stats_learning_trig/img/Stim/FN_009_g.png"",""time"":3069.399999999994},{""stimulus"":""blank"",""time"":3384.2999999999884},{""stimulus"":""https://ziweizhang0304.github.io/Stats_learning_trig/img/Stim/FN_025_g.png"",""time"":3415.7999999999884},{""stimulus"":""blank"",""time"":3719.600000000006},{""stimulus"":""https://ziweizhang0304.github.io/Stats_learning_trig/img/Stim/FN_011_g.png"",""time"":3751.100000000006},{""stimulus"":""blank"",""time"":4065.7999999999884},{""stimulus"":""https://ziweizhang0304.github.io/Stats_learning_trig/img/Stim/FN_003_g.png"",""time"":4081.6999999999825},{""stimulus"":""blank"",""time"":4386.600000000006}]","[{""key_press"":32,""rt"":1634.7000000000116,""stimulus"":""https://ziweizhang0304.github.io/Stats_learning_trig/img/Stim/FN_007_g.png""},{""key_press"":32,""rt"":2911.2000000000116,""stimulus"":""https://ziweizhang0304.github.io/Stats_learning_trig/img/Stim/FN_020_g.png""}]","527.0000000000291","https://ziweizhang0304.github.io/Stats_learning_trig/img/Stim/FN_012_g.png","post_TD","5","2384.1999999999825","2911.2000000000116","fast","7","1","5fed6c9c0d786daf31f29f3d","","","","","",""
"","image-keyboard-response","23","109377","0.0-5.0-5.0-0.0","1926.7000000000116","","","https://ziweizhang0304.github.io/Stats_learning_trig/img/Stim/FN_020_g.png","13","","","","","","","","","","","","","","","","","",""
"","animation","24","113801","0.0-5.0-5.0-1.0","","","","","","[{""stimulus"":""https://ziweizhang0304.github.io/Stats_learning_trig/img/Stim/FN_010_g.png"",""time"":352.69999999998254},{""stimulus"":""blank"",""time"":668.5999999999767},{""stimulus"":""https://ziweizhang0304.github.io/Stats_learning_trig/img/Stim/FN_024_g.png"",""time"":684.5},{""stimulus"":""blank"",""time"":994.3999999999942},{""stimulus"":""https://ziweizhang0304.github.io/Stats_learning_trig/img/Stim/FN_003_g.png"",""time"":1026},{""stimulus"":""blank"",""time"":1335.1999999999825},{""stimulus"":""https://ziweizhang0304.github.io/Stats_learning_trig/img/Stim/FN_019_g.png"",""time"":1366.8999999999942},{""stimulus"":""blank"",""time"":1681.5999999999767},{""stimulus"":""https://ziweizhang0304.github.io/Stats_learning_trig/img/Stim/FN_007_g.png"",""time"":1713.7999999999884},{""stimulus"":""blank"",""time"":2017.3999999999942},{""stimulus"":""https://ziweizhang0304.github.io/Stats_learning_trig/img/Stim/FN_012_g.png"",""time"":2049.1999999999825},{""stimulus"":""blank"",""time"":2357.5},{""stimulus"":""https://ziweizhang0304.github.io/Stats_learning_trig/img/Stim/FN_020_g.png"",""time"":2389.2999999999884},{""stimulus"":""blank"",""time"":2703.399999999994},{""stimulus"":""https://ziweizhang0304.github.io/Stats_learning_trig/img/Stim/FN_009_g.png"",""time"":2735.0999999999767},{""stimulus"":""blank"",""time"":3049.0999999999767},{""stimulus"":""https://ziweizhang0304.github.io/Stats_learning_trig/img/Stim/FN_001_g.png"",""time"":3065.1999999999825},{""stimulus"":""blank"",""time"":3369.899999999994},{""stimulus"":""https://ziweizhang0304.github.io/Stats_learning_trig/img/Stim/FN_015_g.png"",""time"":3401.6999999999825},{""stimulus"":""blank"",""time"":3715.6999999999825},{""stimulus"":""https://ziweizhang0304.github.io/Stats_learning_trig/img/Stim/FN_025_g.png"",""time"":3747.399999999994},{""stimulus"":""blank"",""time"":4051.5},{""stimulus"":""https://ziweizhang0304.github.io/Stats_learning_trig/img/Stim/FN_011_g.png"",""time"":4083.1999999999825},{""stimulus"":""blank"",""time"":4386.799999999988}]","[{""key_press"":32,""rt"":3102.3000000000175,""stimulus"":""https://ziweizhang0304.github.io/Stats_learning_trig/img/Stim/FN_001_g.png""}]","713.0000000000291","https://ziweizhang0304.github.io/Stats_learning_trig/img/Stim/FN_020_g.png","post_TD","6","2389.2999999999884","3102.3000000000175","fast","7","2","5fed6c9c0d786daf31f29f3d","","","","","",""
"","image-keyboard-response","25","148047","0.0-5.0-6.0-0.0","34242.100000000006","","","https://ziweizhang0304.github.io/Stats_learning_trig/img/Stim/FN_021_g.png","13","","","","","","","","","","","","","","","","","",""
"","animation","26","152471","0.0-5.0-6.0-1.0","","","","","","[{""stimulus"":""https://ziweizhang0304.github.io/Stats_learning_trig/img/Stim/FN_015_g.png"",""time"":351.5},{""stimulus"":""blank"",""time"":655.7000000000116},{""stimulus"":""https://ziweizhang0304.github.io/Stats_learning_trig/img/Stim/FN_003_g.png"",""time"":687.4000000000233},{""stimulus"":""blank"",""time"":1001.4000000000233},{""stimulus"":""https://ziweizhang0304.github.io/Stats_learning_trig/img/Stim/FN_010_g.png"",""time"":1033},{""stimulus"":""blank"",""time"":1347.2000000000116},{""stimulus"":""https://ziweizhang0304.github.io/Stats_learning_trig/img/Stim/FN_018_g.png"",""time"":1363},{""stimulus"":""blank"",""time"":1678},{""stimulus"":""https://ziweizhang0304.github.io/Stats_learning_trig/img/Stim/FN_023_g.png"",""time"":1709.7000000000116},{""stimulus"":""blank"",""time"":2018.8000000000175},{""stimulus"":""https://ziweizhang0304.github.io/Stats_learning_trig/img/Stim/FN_021_g.png"",""time"":2050.7000000000116},{""stimulus"":""blank"",""time"":2364.5},{""stimulus"":""https://ziweizhang0304.github.io/Stats_learning_trig/img/Stim/FN_001_g.png"",""time"":2396.4000000000233},{""stimulus"":""blank"",""time"":2704.8000000000175},{""stimulus"":""https://ziweizhang0304.github.io/Stats_learning_trig/img/Stim/FN_007_g.png"",""time"":2736.5},{""stimulus"":""blank"",""time"":3040},{""stimulus"":""https://ziweizhang0304.github.io/Stats_learning_trig/img/Stim/FN_025_g.png"",""time"":3065.5},{""stimulus"":""blank"",""time"":3380.100000000035},{""stimulus"":""https://ziweizhang0304.github.io/Stats_learning_trig/img/Stim/FN_019_g.png"",""time"":3412},{""stimulus"":""blank"",""time"":3714.7000000000116},{""stimulus"":""https://ziweizhang0304.github.io/Stats_learning_trig/img/Stim/FN_011_g.png"",""time"":3746.5},{""stimulus"":""blank"",""time"":4050},{""stimulus"":""https://ziweizhang0304.github.io/Stats_learning_trig/img/Stim/FN_024_g.png"",""time"":4081.600000000035},{""stimulus"":""blank"",""time"":4385.100000000035}]","[{""key_press"":32,""rt"":2471,""stimulus"":""https://ziweizhang0304.github.io/Stats_learning_trig/img/Stim/FN_001_g.png""}]","420.29999999998836","https://ziweizhang0304.github.io/Stats_learning_trig/img/Stim/FN_021_g.png","post_TD","7","2050.7000000000116","2471","slow","6","3","5fed6c9c0d786daf31f29f3d","","","","","",""
"","image-keyboard-response","27","153846","0.0-5.0-7.0-0.0","1370.9000000000233","","","https://ziweizhang0304.github.io/Stats_learning_trig/img/Stim/FN_009_g.png","13","","","","","","","","","","","","","","","","","",""
"","animation","28","158278","0.0-5.0-7.0-1.0","","","","","","[{""stimulus"":""https://ziweizhang0304.github.io/Stats_learning_trig/img/Stim/FN_015_g.png"",""time"":350.29999999998836},{""stimulus"":""blank"",""time"":664.7000000000116},{""stimulus"":""https://ziweizhang0304.github.io/Stats_learning_trig/img/Stim/FN_019_g.png"",""time"":696.3999999999651},{""stimulus"":""blank"",""time"":999.2000000000116},{""stimulus"":""https://ziweizhang0304.github.io/Stats_learning_trig/img/Stim/FN_025_g.png"",""time"":1030.7999999999884},{""stimulus"":""blank"",""time"":1334.5999999999767},{""stimulus"":""https://ziweizhang0304.github.io/Stats_learning_trig/img/Stim/FN_012_g.png"",""time"":1366.2999999999884},{""stimulus"":""blank"",""time"":1670.399999999965},{""stimulus"":""https://ziweizhang0304.github.io/Stats_learning_trig/img/Stim/FN_020_g.png"",""time"":1702.2000000000116},{""stimulus"":""blank"",""time"":2005.399999999965},{""stimulus"":""https://ziweizhang0304.github.io/Stats_learning_trig/img/Stim/FN_009_g.png"",""time"":2041.899999999965},{""stimulus"":""blank"",""time"":2351.0999999999767},{""stimulus"":""https://ziweizhang0304.github.io/Stats_learning_trig/img/Stim/FN_001_g.png"",""time"":2382.7000000000116},{""stimulus"":""blank"",""time"":2686.5},{""stimulus"":""https://ziweizhang0304.github.io/Stats_learning_trig/img/Stim/FN_007_g.png"",""time"":2723.0999999999767},{""stimulus"":""blank"",""time"":3037.0999999999767},{""stimulus"":""https://ziweizhang0304.github.io/Stats_learning_trig/img/Stim/FN_011_g.png"",""time"":3068.899999999965},{""stimulus"":""blank"",""time"":3372.2000000000116},{""stimulus"":""https://ziweizhang0304.github.io/Stats_learning_trig/img/Stim/FN_010_g.png"",""time"":3403.7999999999884},{""stimulus"":""blank"",""time"":3718.2000000000116},{""stimulus"":""https://ziweizhang0304.github.io/Stats_learning_trig/img/Stim/FN_003_g.png"",""time"":3750},{""stimulus"":""blank"",""time"":4053.399999999965},{""stimulus"":""https://ziweizhang0304.github.io/Stats_learning_trig/img/Stim/FN_024_g.png"",""time"":4085.0999999999767},{""stimulus"":""blank"",""time"":4399.799999999988}]","[{""key_press"":32,""rt"":2383.7999999999884,""stimulus"":""https://ziweizhang0304.github.io/Stats_learning_trig/img/Stim/FN_001_g.png""}]","341.9000000000233","https://ziweizhang0304.github.io/Stats_learning_trig/img/Stim/FN_009_g.png","post_TD","8","2041.899999999965","2383.7999999999884","fast","6","3","5fed6c9c0d786daf31f29f3d","","","","","",""
"","image-keyboard-response","29","159282","0.0-5.0-8.0-0.0","999.8000000000466","","","https://ziweizhang0304.github.io/Stats_learning_trig/img/Stim/FN_023_g.png","13","","","","","","","","","","","","","","","","","",""
"","animation","30","163710","0.0-5.0-8.0-1.0","","","","","","[{""stimulus"":""https://ziweizhang0304.github.io/Stats_learning_trig/img/Stim/FN_015_g.png"",""time"":341.5999999999767},{""stimulus"":""blank"",""time"":651},{""stimulus"":""https://ziweizhang0304.github.io/Stats_learning_trig/img/Stim/FN_003_g.png"",""time"":682.5999999999767},{""stimulus"":""blank"",""time"":986.1999999999534},{""stimulus"":""https://ziweizhang0304.github.io/Stats_learning_trig/img/Stim/FN_010_g.png"",""time"":1022.7999999999884},{""stimulus"":""blank"",""time"":1332.0999999999767},{""stimulus"":""https://ziweizhang0304.github.io/Stats_learning_trig/img/Stim/FN_018_g.png"",""time"":1363.5},{""stimulus"":""blank"",""time"":1667},{""stimulus"":""https://ziweizhang0304.github.io/Stats_learning_trig/img/Stim/FN_023_g.png"",""time"":1703.5999999999767},{""stimulus"":""blank"",""time"":2017.899999999965},{""stimulus"":""https://ziweizhang0304.github.io/Stats_learning_trig/img/Stim/FN_021_g.png"",""time"":2049.7999999999884},{""stimulus"":""blank"",""time"":2353.0999999999767},{""stimulus"":""https://ziweizhang0304.github.io/Stats_learning_trig/img/Stim/FN_001_g.png"",""time"":2384.1999999999534},{""stimulus"":""blank"",""time"":2698.2999999999884},{""stimulus"":""https://ziweizhang0304.github.io/Stats_learning_trig/img/Stim/FN_007_g.png"",""time"":2729.899999999965},{""stimulus"":""blank"",""time"":3033.5999999999767},{""stimulus"":""https://ziweizhang0304.github.io/Stats_learning_trig/img/Stim/FN_025_g.png"",""time"":3065.2999999999884},{""stimulus"":""blank"",""time"":3368.5999999999767},{""stimulus"":""https://ziweizhang0304.github.io/Stats_learning_trig/img/Stim/FN_019_g.png"",""time"":3405.399999999965},{""stimulus"":""blank"",""time"":3719.5},{""stimulus"":""https://ziweizhang0304.github.io/Stats_learning_trig/img/Stim/FN_011_g.png"",""time"":3751.0999999999767},{""stimulus"":""blank"",""time"":4065.2999999999884},{""stimulus"":""https://ziweizhang0304.github.io/Stats_learning_trig/img/Stim/FN_024_g.png"",""time"":4081.399999999965},{""stimulus"":""blank"",""time"":4390.799999999988}]","[{""key_press"":32,""rt"":2251.9000000000233,""stimulus"":""https://ziweizhang0304.github.io/Stats_learning_trig/img/Stim/FN_021_g.png""}]","548.3000000000466","https://ziweizhang0304.github.io/Stats_learning_trig/img/Stim/FN_023_g.png","post_TD","9","1703.5999999999767","2251.9000000000233","slow","5","2","5fed6c9c0d786daf31f29f3d","","","","","",""
"","image-keyboard-response","31","164554","0.0-5.0-9.0-0.0","842.6999999999534","","","https://ziweizhang0304.github.io/Stats_learning_trig/img/Stim/FN_018_g.png","13","","","","","","","","","","","","","","","","","",""
"","animation","32","168989","0.0-5.0-9.0-1.0","","","","","","[{""stimulus"":""https://ziweizhang0304.github.io/Stats_learning_trig/img/Stim/FN_015_g.png"",""time"":346.29999999998836},{""stimulus"":""blank"",""time"":656.2000000000116},{""stimulus"":""https://ziweizhang0304.github.io/Stats_learning_trig/img/Stim/FN_003_g.png"",""time"":687.9000000000233},{""stimulus"":""blank"",""time"":997.0999999999767},{""stimulus"":""https://ziweizhang0304.github.io/Stats_learning_trig/img/Stim/FN_010_g.png"",""time"":1028.7999999999884},{""stimulus"":""blank"",""time"":1332.7999999999884},{""stimulus"":""https://ziweizhang0304.github.io/Stats_learning_trig/img/Stim/FN_018_g.png"",""time"":1364.5999999999767},{""stimulus"":""blank"",""time"":1668},{""stimulus"":""https://ziweizhang0304.github.io/Stats_learning_trig/img/Stim/FN_023_g.png"",""time"":1704.7000000000116},{""stimulus"":""blank"",""time"":2013.7999999999884},{""stimulus"":""https://ziweizhang0304.github.io/Stats_learning_trig/img/Stim/FN_021_g.png"",""time"":2045.5999999999767},{""stimulus"":""blank"",""time"":2349},{""stimulus"":""https://ziweizhang0304.github.io/Stats_learning_trig/img/Stim/FN_001_g.png"",""time"":2385.5999999999767},{""stimulus"":""blank"",""time"":2699.7000000000116},{""stimulus"":""https://ziweizhang0304.github.io/Stats_learning_trig/img/Stim/FN_007_g.png"",""time"":2731.5999999999767},{""stimulus"":""blank"",""time"":3034.7999999999884},{""stimulus"":""https://ziweizhang0304.github.io/Stats_learning_trig/img/Stim/FN_025_g.png"",""time"":3066.2999999999884},{""stimulus"":""blank"",""time"":3375.7000000000116},{""stimulus"":""https://ziweizhang0304.github.io/Stats_learning_trig/img/Stim/FN_019_g.png"",""time"":3407.4000000000233},{""stimulus"":""blank"",""time"":3716.5},{""stimulus"":""https://ziweizhang0304.github.io/Stats_learning_trig/img/Stim/FN_011_g.png"",""time"":3748.2999999999884},{""stimulus"":""blank"",""time"":4056.7000000000116},{""stimulus"":""https://ziweizhang0304.github.io/Stats_learning_trig/img/Stim/FN_024_g.png"",""time"":4088.4000000000233},{""stimulus"":""blank"",""time"":4402.5}]","[{""key_press"":32,""rt"":1845.7000000000116,""stimulus"":""https://ziweizhang0304.github.io/Stats_learning_trig/img/Stim/FN_023_g.png""}]","481.1000000000349","https://ziweizhang0304.github.io/Stats_learning_trig/img/Stim/FN_018_g.png","post_TD","10","1364.5999999999767","1845.7000000000116","slow","4","1","5fed6c9c0d786daf31f29f3d","","","","","",""
"","image-keyboard-response","33","170036","0.0-5.0-10.0-0.0","1043.4000000000233","","","https://ziweizhang0304.github.io/Stats_learning_trig/img/Stim/FN_009_g.png","13","","","","","","","","","","","","","","","","","",""
"","animation","34","174459","0.0-5.0-10.0-1.0","","","","","","[{""stimulus"":""https://ziweizhang0304.github.io/Stats_learning_trig/img/Stim/FN_007_g.png"",""time"":346.79999999998836},{""stimulus"":""blank"",""time"":651.5},{""stimulus"":""https://ziweizhang0304.github.io/Stats_learning_trig/img/Stim/FN_010_g.png"",""time"":683.2999999999884},{""stimulus"":""blank"",""time"":987.3999999999651},{""stimulus"":""https://ziweizhang0304.github.io/Stats_learning_trig/img/Stim/FN_019_g.png"",""time"":1024},{""stimulus"":""blank"",""time"":1338.1999999999534},{""stimulus"":""https://ziweizhang0304.github.io/Stats_learning_trig/img/Stim/FN_001_g.png"",""time"":1369.899999999965},{""stimulus"":""blank"",""time"":1673.1999999999534},{""stimulus"":""https://ziweizhang0304.github.io/Stats_learning_trig/img/Stim/FN_012_g.png"",""time"":1705},{""stimulus"":""blank"",""time"":2019.7999999999884},{""stimulus"":""https://ziweizhang0304.github.io/Stats_learning_trig/img/Stim/FN_020_g.png"",""time"":2051.5},{""stimulus"":""blank"",""time"":2353.899999999965},{""stimulus"":""https://ziweizhang0304.github.io/Stats_learning_trig/img/Stim/FN_009_g.png"",""time"":2380.899999999965},{""stimulus"":""blank"",""time"":2684.5},{""stimulus"":""https://ziweizhang0304.github.io/Stats_learning_trig/img/Stim/FN_015_g.png"",""time"":2721.1999999999534},{""stimulus"":""blank"",""time"":3035.2999999999884},{""stimulus"":""https://ziweizhang0304.github.io/Stats_learning_trig/img/Stim/FN_025_g.png"",""time"":3067},{""stimulus"":""blank"",""time"":3370.2999999999884},{""stimulus"":""https://ziweizhang0304.github.io/Stats_learning_trig/img/Stim/FN_011_g.png"",""time"":3401.899999999965},{""stimulus"":""blank"",""time"":3710.5999999999767},{""stimulus"":""https://ziweizhang0304.github.io/Stats_learning_trig/img/Stim/FN_003_g.png"",""time"":3742.5},{""stimulus"":""blank"",""time"":4050.7999999999884},{""stimulus"":""https://ziweizhang0304.github.io/Stats_learning_trig/img/Stim/FN_024_g.png"",""time"":4082.5},{""stimulus"":""blank"",""time"":4386.699999999953}]","[{""key_press"":32,""rt"":2353.0999999999767,""stimulus"":""https://ziweizhang0304.github.io/Stats_learning_trig/img/Stim/FN_020_g.png""}]","NaN","https://ziweizhang0304.github.io/Stats_learning_trig/img/Stim/FN_009_g.png","post_TD","11","2380.899999999965","","fast","7","3","5fed6c9c0d786daf31f29f3d","","","","","",""
"","image-keyboard-response","35","175665","0.0-5.0-11.0-0.0","1202.399999999965","","","https://ziweizhang0304.github.io/Stats_learning_trig/img/Stim/FN_021_g.png","13","","","","","","","","","","","","","","","","","",""
"","animation","36","180089","0.0-5.0-11.0-1.0","","","","","","[{""stimulus"":""https://ziweizhang0304.github.io/Stats_learning_trig/img/Stim/FN_015_g.png"",""time"":341.8999999999651},{""stimulus"":""blank"",""time"":656.7999999999884},{""stimulus"":""https://ziweizhang0304.github.io/Stats_learning_trig/img/Stim/FN_024_g.png"",""time"":688.5999999999767},{""stimulus"":""blank"",""time"":992.0999999999767},{""stimulus"":""https://ziweizhang0304.github.io/Stats_learning_trig/img/Stim/FN_011_g.png"",""time"":1024},{""stimulus"":""blank"",""time"":1337.899999999965},{""stimulus"":""https://ziweizhang0304.github.io/Stats_learning_trig/img/Stim/FN_010_g.png"",""time"":1369.6999999999534},{""stimulus"":""blank"",""time"":1673},{""stimulus"":""https://ziweizhang0304.github.io/Stats_learning_trig/img/Stim/FN_019_g.png"",""time"":1704.7999999999884},{""stimulus"":""blank"",""time"":2008.1999999999534},{""stimulus"":""https://ziweizhang0304.github.io/Stats_learning_trig/img/Stim/FN_018_g.png"",""time"":2044.399999999965},{""stimulus"":""blank"",""time"":2358.399999999965},{""stimulus"":""https://ziweizhang0304.github.io/Stats_learning_trig/img/Stim/FN_023_g.png"",""time"":2390.1999999999534},{""stimulus"":""blank"",""time"":2693.5999999999767},{""stimulus"":""https://ziweizhang0304.github.io/Stats_learning_trig/img/Stim/FN_021_g.png"",""time"":2725.1999999999534},{""stimulus"":""blank"",""time"":3039.2999999999884},{""stimulus"":""https://ziweizhang0304.github.io/Stats_learning_trig/img/Stim/FN_001_g.png"",""time"":3070.899999999965},{""stimulus"":""blank"",""time"":3375.0999999999767},{""stimulus"":""https://ziweizhang0304.github.io/Stats_learning_trig/img/Stim/FN_007_g.png"",""time"":3406.7999999999884},{""stimulus"":""blank"",""time"":3720.7999999999884},{""stimulus"":""https://ziweizhang0304.github.io/Stats_learning_trig/img/Stim/FN_025_g.png"",""time"":3752.2999999999884},{""stimulus"":""blank"",""time"":4060.899999999965},{""stimulus"":""https://ziweizhang0304.github.io/Stats_learning_trig/img/Stim/FN_003_g.png"",""time"":4092.5},{""stimulus"":""blank"",""time"":4406.899999999965}]","[{""key_press"":32,""rt"":3391.9000000000233,""stimulus"":""blank""}]","666.7000000000698","https://ziweizhang0304.github.io/Stats_learning_trig/img/Stim/FN_021_g.png","post_TD","12","2725.1999999999534","3391.9000000000233","slow","8","3","5fed6c9c0d786daf31f29f3d","","","","","",""
"","image-keyboard-response","37","181623","0.0-5.0-12.0-0.0","1530.4000000000233","","","https://ziweizhang0304.github.io/Stats_learning_trig/img/Stim/FN_020_g.png","13","","","","","","","","","","","","","","","","","",""
"","animation","38","186054","0.0-5.0-12.0-1.0","","","","","","[{""stimulus"":""https://ziweizhang0304.github.io/Stats_learning_trig/img/Stim/FN_007_g.png"",""time"":343.29999999998836},{""stimulus"":""blank"",""time"":648.2999999999884},{""stimulus"":""https://ziweizhang0304.github.io/Stats_learning_trig/img/Stim/FN_010_g.png"",""time"":685},{""stimulus"":""blank"",""time"":999},{""stimulus"":""https://ziweizhang0304.github.io/Stats_learning_trig/img/Stim/FN_019_g.png"",""time"":1030.899999999965},{""stimulus"":""blank"",""time"":1334.2999999999884},{""stimulus"":""https://ziweizhang0304.github.io/Stats_learning_trig/img/Stim/FN_001_g.png"",""time"":1366.0999999999767},{""stimulus"":""blank"",""time"":1680.0999999999767},{""stimulus"":""https://ziweizhang0304.github.io/Stats_learning_trig/img/Stim/FN_012_g.png"",""time"":1711.7000000000116},{""stimulus"":""blank"",""time"":2015.2999999999884},{""stimulus"":""https://ziweizhang0304.github.io/Stats_learning_trig/img/Stim/FN_020_g.png"",""time"":2046.899999999965},{""stimulus"":""blank"",""time"":2350.7999999999884},{""stimulus"":""https://ziweizhang0304.github.io/Stats_learning_trig/img/Stim/FN_009_g.png"",""time"":2382.399999999965},{""stimulus"":""blank"",""time"":2684.7999999999884},{""stimulus"":""https://ziweizhang0304.github.io/Stats_learning_trig/img/Stim/FN_015_g.png"",""time"":2722.899999999965},{""stimulus"":""blank"",""time"":3036.2999999999884},{""stimulus"":""https://ziweizhang0304.github.io/Stats_learning_trig/img/Stim/FN_025_g.png"",""time"":3068.0999999999767},{""stimulus"":""blank"",""time"":3382},{""stimulus"":""https://ziweizhang0304.github.io/Stats_learning_trig/img/Stim/FN_011_g.png"",""time"":3414},{""stimulus"":""blank"",""time"":3728.0999999999767},{""stimulus"":""https://ziweizhang0304.github.io/Stats_learning_trig/img/Stim/FN_003_g.png"",""time"":3744},{""stimulus"":""blank"",""time"":4048.0999999999767},{""stimulus"":""https://ziweizhang0304.github.io/Stats_learning_trig/img/Stim/FN_024_g.png"",""time"":4084.2000000000116},{""stimulus"":""blank"",""time"":4398.299999999988}]","[{""key_press"":32,""rt"":2550.899999999965,""stimulus"":""https://ziweizhang0304.github.io/Stats_learning_trig/img/Stim/FN_009_g.png""}]","504","https://ziweizhang0304.github.io/Stats_learning_trig/img/Stim/FN_020_g.png","post_TD","13","2046.899999999965","2550.899999999965","fast","6","2","5fed6c9c0d786daf31f29f3d","","","","","",""
"","image-keyboard-response","39","187080","0.0-5.0-13.0-0.0","1021.6999999999534","","","https://ziweizhang0304.github.io/Stats_learning_trig/img/Stim/FN_021_g.png","13","","","","","","","","","","","","","","","","","",""
"","animation","40","191503","0.0-5.0-13.0-1.0","","","","","","[{""stimulus"":""https://ziweizhang0304.github.io/Stats_learning_trig/img/Stim/FN_001_g.png"",""time"":356.8999999999651},{""stimulus"":""blank"",""time"":662.3999999999651},{""stimulus"":""https://ziweizhang0304.github.io/Stats_learning_trig/img/Stim/FN_010_g.png"",""time"":694.0999999999767},{""stimulus"":""blank"",""time"":1008.2000000000116},{""stimulus"":""https://ziweizhang0304.github.io/Stats_learning_trig/img/Stim/FN_025_g.png"",""time"":1024.5},{""stimulus"":""blank"",""time"":1339.5},{""stimulus"":""https://ziweizhang0304.github.io/Stats_learning_trig/img/Stim/FN_007_g.png"",""time"":1371.2999999999884},{""stimulus"":""blank"",""time"":1675.399999999965},{""stimulus"":""https://ziweizhang0304.github.io/Stats_learning_trig/img/Stim/FN_018_g.png"",""time"":1707.0999999999767},{""stimulus"":""blank"",""time"":2011.2000000000116},{""stimulus"":""https://ziweizhang0304.github.io/Stats_learning_trig/img/Stim/FN_023_g.png"",""time"":2042.7000000000116},{""stimulus"":""blank"",""time"":2357.399999999965},{""stimulus"":""https://ziweizhang0304.github.io/Stats_learning_trig/img/Stim/FN_021_g.png"",""time"":2383.2999999999884},{""stimulus"":""blank"",""time"":2697.0999999999767},{""stimulus"":""https://ziweizhang0304.github.io/Stats_learning_trig/img/Stim/FN_015_g.png"",""time"":2728.7999999999884},{""stimulus"":""blank"",""time"":3042.7999999999884},{""stimulus"":""https://ziweizhang0304.github.io/Stats_learning_trig/img/Stim/FN_019_g.png"",""time"":3074.5999999999767},{""stimulus"":""blank"",""time"":3389.2000000000116},{""stimulus"":""https://ziweizhang0304.github.io/Stats_learning_trig/img/Stim/FN_011_g.png"",""time"":3405.2000000000116},{""stimulus"":""blank"",""time"":3710},{""stimulus"":""https://ziweizhang0304.github.io/Stats_learning_trig/img/Stim/FN_003_g.png"",""time"":3741.7999999999884},{""stimulus"":""blank"",""time"":4045},{""stimulus"":""https://ziweizhang0304.github.io/Stats_learning_trig/img/Stim/FN_024_g.png"",""time"":4081.5999999999767},{""stimulus"":""blank"",""time"":4390.799999999988}]","[{""key_press"":32,""rt"":2791.7999999999884,""stimulus"":""https://ziweizhang0304.github.io/Stats_learning_trig/img/Stim/FN_015_g.png""}]","408.5","https://ziweizhang0304.github.io/Stats_learning_trig/img/Stim/FN_021_g.png","post_TD","14","2383.2999999999884","2791.7999999999884","slow","7","3","5fed6c9c0d786daf31f29f3d","","","","","",""
"","image-keyboard-response","41","192534","0.0-5.0-14.0-0.0","1029.2999999999884","","","https://ziweizhang0304.github.io/Stats_learning_trig/img/Stim/FN_020_g.png","13","","","","","","","","","","","","","","","","","",""
"","animation","42","196970","0.0-5.0-14.0-1.0","","","","","","[{""stimulus"":""https://ziweizhang0304.github.io/Stats_learning_trig/img/Stim/FN_015_g.png"",""time"":356.5999999999767},{""stimulus"":""blank"",""time"":671.7000000000116},{""stimulus"":""https://ziweizhang0304.github.io/Stats_learning_trig/img/Stim/FN_019_g.png"",""time"":687.5999999999767},{""stimulus"":""blank"",""time"":1002.9000000000233},{""stimulus"":""https://ziweizhang0304.github.io/Stats_learning_trig/img/Stim/FN_025_g.png"",""time"":1034.7000000000116},{""stimulus"":""blank"",""time"":1343.9000000000233},{""stimulus"":""https://ziweizhang0304.github.io/Stats_learning_trig/img/Stim/FN_012_g.png"",""time"":1375.4000000000233},{""stimulus"":""blank"",""time"":1683.7999999999884},{""stimulus"":""https://ziweizhang0304.github.io/Stats_learning_trig/img/Stim/FN_020_g.png"",""time"":1715.4000000000233},{""stimulus"":""blank"",""time"":2018.4000000000233},{""stimulus"":""https://ziweizhang0304.github.io/Stats_learning_trig/img/Stim/FN_009_g.png"",""time"":2049.9000000000233},{""stimulus"":""blank"",""time"":2358.7000000000116},{""stimulus"":""https://ziweizhang0304.github.io/Stats_learning_trig/img/Stim/FN_001_g.png"",""time"":2390.2999999999884},{""stimulus"":""blank"",""time"":2693.9000000000233},{""stimulus"":""https://ziweizhang0304.github.io/Stats_learning_trig/img/Stim/FN_007_g.png"",""time"":2725.5999999999767},{""stimulus"":""blank"",""time"":3039.7000000000116},{""stimulus"":""https://ziweizhang0304.github.io/Stats_learning_trig/img/Stim/FN_011_g.png"",""time"":3071.4000000000233},{""stimulus"":""blank"",""time"":3375.2999999999884},{""stimulus"":""https://ziweizhang0304.github.io/Stats_learning_trig/img/Stim/FN_010_g.png"",""time"":3406.9000000000233},{""stimulus"":""blank"",""time"":3721.2000000000116},{""stimulus"":""https://ziweizhang0304.github.io/Stats_learning_trig/img/Stim/FN_003_g.png"",""time"":3752.9000000000233},{""stimulus"":""blank"",""time"":4056.4000000000233},{""stimulus"":""https://ziweizhang0304.github.io/Stats_learning_trig/img/Stim/FN_024_g.png"",""time"":4088.0999999999767},{""stimulus"":""blank"",""time"":4402.799999999988}]","[{""key_press"":32,""rt"":2193.9000000000233,""stimulus"":""https://ziweizhang0304.github.io/Stats_learning_trig/img/Stim/FN_009_g.png""}]","478.5","https://ziweizhang0304.github.io/Stats_learning_trig/img/Stim/FN_020_g.png","post_TD","15","1715.4000000000233","2193.9000000000233","fast","5","2","5fed6c9c0d786daf31f29f3d","","","","","",""
"","image-keyboard-response","43","197863","0.0-5.0-15.0-0.0","889.5","","","https://ziweizhang0304.github.io/Stats_learning_trig/img/Stim/FN_012_g.png","13","","","","","","","","","","","","","","","","","",""
"","animation","44","202289","0.0-5.0-15.0-1.0","","","","","","[{""stimulus"":""https://ziweizhang0304.github.io/Stats_learning_trig/img/Stim/FN_007_g.png"",""time"":342.8999999999651},{""stimulus"":""blank"",""time"":647.1999999999534},{""stimulus"":""https://ziweizhang0304.github.io/Stats_learning_trig/img/Stim/FN_010_g.png"",""time"":683.6999999999534},{""stimulus"":""blank"",""time"":992.3999999999651},{""stimulus"":""https://ziweizhang0304.github.io/Stats_learning_trig/img/Stim/FN_019_g.png"",""time"":1023.8999999999651},{""stimulus"":""blank"",""time"":1327.6999999999534},{""stimulus"":""https://ziweizhang0304.github.io/Stats_learning_trig/img/Stim/FN_001_g.png"",""time"":1364.2999999999884},{""stimulus"":""blank"",""time"":1672.7999999999884},{""stimulus"":""https://ziweizhang0304.github.io/Stats_learning_trig/img/Stim/FN_012_g.png"",""time"":1704.5},{""stimulus"":""blank"",""time"":2013.5999999999767},{""stimulus"":""https://ziweizhang0304.github.io/Stats_learning_trig/img/Stim/FN_020_g.png"",""time"":2045.2999999999884},{""stimulus"":""blank"",""time"":2359.5},{""stimulus"":""https://ziweizhang0304.github.io/Stats_learning_trig/img/Stim/FN_009_g.png"",""time"":2391.1999999999534},{""stimulus"":""blank"",""time"":2704.5},{""stimulus"":""https://ziweizhang0304.github.io/Stats_learning_trig/img/Stim/FN_015_g.png"",""time"":2721},{""stimulus"":""blank"",""time"":3025.2999999999884},{""stimulus"":""https://ziweizhang0304.github.io/Stats_learning_trig/img/Stim/FN_025_g.png"",""time"":3062.0999999999767},{""stimulus"":""blank"",""time"":3376.0999999999767},{""stimulus"":""https://ziweizhang0304.github.io/Stats_learning_trig/img/Stim/FN_011_g.png"",""time"":3407.899999999965},{""stimulus"":""blank"",""time"":3711.899999999965},{""stimulus"":""https://ziweizhang0304.github.io/Stats_learning_trig/img/Stim/FN_003_g.png"",""time"":3743.5},{""stimulus"":""blank"",""time"":4051.899999999965},{""stimulus"":""https://ziweizhang0304.github.io/Stats_learning_trig/img/Stim/FN_024_g.png"",""time"":4083.5},{""stimulus"":""blank"",""time"":4393}]","[{""key_press"":32,""rt"":1638.8000000000466,""stimulus"":""https://ziweizhang0304.github.io/Stats_learning_trig/img/Stim/FN_001_g.png""}]","NaN","https://ziweizhang0304.github.io/Stats_learning_trig/img/Stim/FN_012_g.png","post_TD","16","1704.5","","fast","5","1","5fed6c9c0d786daf31f29f3d","","","","","",""
"","image-keyboard-response","45","203515","0.0-5.0-16.0-0.0","1222.5999999999767","","","https://ziweizhang0304.github.io/Stats_learning_trig/img/Stim/FN_021_g.png","13","","","","","","","","","","","","","","","","","",""
"","animation","46","207946","0.0-5.0-16.0-1.0","","","","","","[{""stimulus"":""https://ziweizhang0304.github.io/Stats_learning_trig/img/Stim/FN_010_g.png"",""time"":348.0999999999767},{""stimulus"":""blank"",""time"":658.2000000000116},{""stimulus"":""https://ziweizhang0304.github.io/Stats_learning_trig/img/Stim/FN_003_g.png"",""time"":689.7999999999884},{""stimulus"":""blank"",""time"":1003.2999999999884},{""stimulus"":""https://ziweizhang0304.github.io/Stats_learning_trig/img/Stim/FN_001_g.png"",""time"":1034.899999999965},{""stimulus"":""blank"",""time"":1343.5999999999767},{""stimulus"":""https://ziweizhang0304.github.io/Stats_learning_trig/img/Stim/FN_007_g.png"",""time"":1375.2000000000116},{""stimulus"":""blank"",""time"":1690},{""stimulus"":""https://ziweizhang0304.github.io/Stats_learning_trig/img/Stim/FN_015_g.png"",""time"":1706.0999999999767},{""stimulus"":""blank"",""time"":2010.5999999999767},{""stimulus"":""https://ziweizhang0304.github.io/Stats_learning_trig/img/Stim/FN_024_g.png"",""time"":2042.2000000000116},{""stimulus"":""blank"",""time"":2350.899999999965},{""stimulus"":""https://ziweizhang0304.github.io/Stats_learning_trig/img/Stim/FN_018_g.png"",""time"":2382.7999999999884},{""stimulus"":""blank"",""time"":2691.2000000000116},{""stimulus"":""https://ziweizhang0304.github.io/Stats_learning_trig/img/Stim/FN_023_g.png"",""time"":2722.899999999965},{""stimulus"":""blank"",""time"":3026.2999999999884},{""stimulus"":""https://ziweizhang0304.github.io/Stats_learning_trig/img/Stim/FN_021_g.png"",""time"":3063.0999999999767},{""stimulus"":""blank"",""time"":3377.0999999999767},{""stimulus"":""https://ziweizhang0304.github.io/Stats_learning_trig/img/Stim/FN_025_g.png"",""time"":3408.7999999999884},{""stimulus"":""blank"",""time"":3712.2000000000116},{""stimulus"":""https://ziweizhang0304.github.io/Stats_learning_trig/img/Stim/FN_019_g.png"",""time"":3744.2000000000116},{""stimulus"":""blank"",""time"":4058.0999999999767},{""stimulus"":""https://ziweizhang0304.github.io/Stats_learning_trig/img/Stim/FN_011_g.png"",""time"":4089.7999999999884},{""stimulus"":""blank"",""time"":4398.799999999988}]","[{""key_press"":32,""rt"":3421.2999999999884,""stimulus"":""https://ziweizhang0304.github.io/Stats_learning_trig/img/Stim/FN_025_g.png""}]","358.20000000001164","https://ziweizhang0304.github.io/Stats_learning_trig/img/Stim/FN_021_g.png","post_TD","17","3063.0999999999767","3421.2999999999884","slow","9","3","5fed6c9c0d786daf31f29f3d","","","","","",""
"","image-keyboard-response","47","208904","0.0-5.0-17.0-0.0","953.5","","","https://ziweizhang0304.github.io/Stats_learning_trig/img/Stim/FN_018_g.png","13","","","","","","","","","","","","","","","","","",""
"","animation","48","213338","0.0-5.0-17.0-1.0","","","","","","[{""stimulus"":""https://ziweizhang0304.github.io/Stats_learning_trig/img/Stim/FN_010_g.png"",""time"":351.5999999999767},{""stimulus"":""blank"",""time"":666.5999999999767},{""stimulus"":""https://ziweizhang0304.github.io/Stats_learning_trig/img/Stim/FN_003_g.png"",""time"":682.5},{""stimulus"":""blank"",""time"":992.5},{""stimulus"":""https://ziweizhang0304.github.io/Stats_learning_trig/img/Stim/FN_001_g.png"",""time"":1024.399999999965},{""stimulus"":""blank"",""time"":1338.2999999999884},{""stimulus"":""https://ziweizhang0304.github.io/Stats_learning_trig/img/Stim/FN_007_g.png"",""time"":1370.2000000000116},{""stimulus"":""blank"",""time"":1673.5},{""stimulus"":""https://ziweizhang0304.github.io/Stats_learning_trig/img/Stim/FN_015_g.png"",""time"":1705.2000000000116},{""stimulus"":""blank"",""time"":2019.2999999999884},{""stimulus"":""https://ziweizhang0304.github.io/Stats_learning_trig/img/Stim/FN_024_g.png"",""time"":2051.2000000000116},{""stimulus"":""blank"",""time"":2354.5999999999767},{""stimulus"":""https://ziweizhang0304.github.io/Stats_learning_trig/img/Stim/FN_018_g.png"",""time"":2386.2000000000116},{""stimulus"":""blank"",""time"":2689.7000000000116},{""stimulus"":""https://ziweizhang0304.github.io/Stats_learning_trig/img/Stim/FN_023_g.png"",""time"":2721.5},{""stimulus"":""blank"",""time"":3024.899999999965},{""stimulus"":""https://ziweizhang0304.github.io/Stats_learning_trig/img/Stim/FN_021_g.png"",""time"":3061.5999999999767},{""stimulus"":""blank"",""time"":3370.7000000000116},{""stimulus"":""https://ziweizhang0304.github.io/Stats_learning_trig/img/Stim/FN_025_g.png"",""time"":3402.399999999965},{""stimulus"":""blank"",""time"":3715.2999999999884},{""stimulus"":""https://ziweizhang0304.github.io/Stats_learning_trig/img/Stim/FN_019_g.png"",""time"":3747},{""stimulus"":""blank"",""time"":4056},{""stimulus"":""https://ziweizhang0304.github.io/Stats_learning_trig/img/Stim/FN_011_g.png"",""time"":4087.899999999965},{""stimulus"":""blank"",""time"":4401.599999999977}]","[{""key_press"":32,""rt"":2975.2999999999884,""stimulus"":""https://ziweizhang0304.github.io/Stats_learning_trig/img/Stim/FN_023_g.png""}]","589.0999999999767","https://ziweizhang0304.github.io/Stats_learning_trig/img/Stim/FN_018_g.png","post_TD","18","2386.2000000000116","2975.2999999999884","slow","7","1","5fed6c9c0d786daf31f29f3d","","","","","",""
"","image-keyboard-response","49","214307","0.0-5.0-18.0-0.0","966.2000000000116","","","https://ziweizhang0304.github.io/Stats_learning_trig/img/Stim/FN_012_g.png","13","","","","","","","","","","","","","","","","","",""
"","animation","50","218733","0.0-5.0-18.0-1.0","","","","","","[{""stimulus"":""https://ziweizhang0304.github.io/Stats_learning_trig/img/Stim/FN_010_g.png"",""time"":344.70000000001164},{""stimulus"":""blank"",""time"":649.7000000000116},{""stimulus"":""https://ziweizhang0304.github.io/Stats_learning_trig/img/Stim/FN_024_g.png"",""time"":681.5},{""stimulus"":""blank"",""time"":984.9000000000233},{""stimulus"":""https://ziweizhang0304.github.io/Stats_learning_trig/img/Stim/FN_003_g.png"",""time"":1021.5},{""stimulus"":""blank"",""time"":1335.7000000000116},{""stimulus"":""https://ziweizhang0304.github.io/Stats_learning_trig/img/Stim/FN_019_g.png"",""time"":1367.4000000000233},{""stimulus"":""blank"",""time"":1675.9000000000233},{""stimulus"":""https://ziweizhang0304.github.io/Stats_learning_trig/img/Stim/FN_007_g.png"",""time"":1707.2999999999884},{""stimulus"":""blank"",""time"":2016.5999999999767},{""stimulus"":""https://ziweizhang0304.github.io/Stats_learning_trig/img/Stim/FN_012_g.png"",""time"":2048.7999999999884},{""stimulus"":""blank"",""time"":2351.7999999999884},{""stimulus"":""https://ziweizhang0304.github.io/Stats_learning_trig/img/Stim/FN_020_g.png"",""time"":2383.5999999999767},{""stimulus"":""blank"",""time"":2687.2000000000116},{""stimulus"":""https://ziweizhang0304.github.io/Stats_learning_trig/img/Stim/FN_009_g.png"",""time"":2723.7000000000116},{""stimulus"":""blank"",""time"":3032.7999999999884},{""stimulus"":""https://ziweizhang0304.github.io/Stats_learning_trig/img/Stim/FN_001_g.png"",""time"":3064.5999999999767},{""stimulus"":""blank"",""time"":3368},{""stimulus"":""https://ziweizhang0304.github.io/Stats_learning_trig/img/Stim/FN_015_g.png"",""time"":3404.7999999999884},{""stimulus"":""blank"",""time"":3718.9000000000233},{""stimulus"":""https://ziweizhang0304.github.io/Stats_learning_trig/img/Stim/FN_025_g.png"",""time"":3750.5999999999767},{""stimulus"":""blank"",""time"":4054.0999999999767},{""stimulus"":""https://ziweizhang0304.github.io/Stats_learning_trig/img/Stim/FN_011_g.png"",""time"":4085.7000000000116},{""stimulus"":""blank"",""time"":4389.099999999977}]","[{""key_press"":32,""rt"":2047.600000000035,""stimulus"":""blank""}]","NaN","https://ziweizhang0304.github.io/Stats_learning_trig/img/Stim/FN_012_g.png","post_TD","19","2048.7999999999884","","fast","6","1","5fed6c9c0d786daf31f29f3d","","","","","",""
"","image-keyboard-response","51","219439","0.0-5.0-19.0-0.0","702.6999999999534","","","https://ziweizhang0304.github.io/Stats_learning_trig/img/Stim/FN_023_g.png","13","","","","","","","","","","","","","","","","","",""
"","animation","52","223864","0.0-5.0-19.0-1.0","","","","","","[{""stimulus"":""https://ziweizhang0304.github.io/Stats_learning_trig/img/Stim/FN_010_g.png"",""time"":350.4000000000233},{""stimulus"":""blank"",""time"":654.9000000000233},{""stimulus"":""https://ziweizhang0304.github.io/Stats_learning_trig/img/Stim/FN_003_g.png"",""time"":686.1000000000349},{""stimulus"":""blank"",""time"":1001.1000000000349},{""stimulus"":""https://ziweizhang0304.github.io/Stats_learning_trig/img/Stim/FN_001_g.png"",""time"":1032.7999999999884},{""stimulus"":""blank"",""time"":1336.9000000000233},{""stimulus"":""https://ziweizhang0304.github.io/Stats_learning_trig/img/Stim/FN_007_g.png"",""time"":1368.7000000000116},{""stimulus"":""blank"",""time"":1672},{""stimulus"":""https://ziweizhang0304.github.io/Stats_learning_trig/img/Stim/FN_015_g.png"",""time"":1703.7999999999884},{""stimulus"":""blank"",""time"":2017.9000000000233},{""stimulus"":""https://ziweizhang0304.github.io/Stats_learning_trig/img/Stim/FN_024_g.png"",""time"":2049.5},{""stimulus"":""blank"",""time"":2353.100000000035},{""stimulus"":""https://ziweizhang0304.github.io/Stats_learning_trig/img/Stim/FN_018_g.png"",""time"":2384.100000000035},{""stimulus"":""blank"",""time"":2687.600000000035},{""stimulus"":""https://ziweizhang0304.github.io/Stats_learning_trig/img/Stim/FN_023_g.png"",""time"":2724.100000000035},{""stimulus"":""blank"",""time"":3038.5},{""stimulus"":""https://ziweizhang0304.github.io/Stats_learning_trig/img/Stim/FN_021_g.png"",""time"":3062.7999999999884},{""stimulus"":""blank"",""time"":3369.4000000000233},{""stimulus"":""https://ziweizhang0304.github.io/Stats_learning_trig/img/Stim/FN_025_g.png"",""time"":3401},{""stimulus"":""blank"",""time"":3704.4000000000233},{""stimulus"":""https://ziweizhang0304.github.io/Stats_learning_trig/img/Stim/FN_019_g.png"",""time"":3740.9000000000233},{""stimulus"":""blank"",""time"":4055.100000000035},{""stimulus"":""https://ziweizhang0304.github.io/Stats_learning_trig/img/Stim/FN_011_g.png"",""time"":4086.9000000000233},{""stimulus"":""blank"",""time"":4390.900000000023}]","[{""key_press"":32,""rt"":3061.5999999999767,""stimulus"":""blank""}]","337.4999999999418","https://ziweizhang0304.github.io/Stats_learning_trig/img/Stim/FN_023_g.png","post_TD","20","2724.100000000035","3061.5999999999767","slow","8","2","5fed6c9c0d786daf31f29f3d","","","","","",""
"","image-keyboard-response","53","224920","0.0-5.0-20.0-0.0","1052.2000000000116","","","https://ziweizhang0304.github.io/Stats_learning_trig/img/Stim/FN_023_g.png","13","","","","","","","","","","","","","","","","","",""
"","animation","54","229346","0.0-5.0-20.0-1.0","","","","","","[{""stimulus"":""https://ziweizhang0304.github.io/Stats_learning_trig/img/Stim/FN_001_g.png"",""time"":355.8999999999651},{""stimulus"":""blank"",""time"":660.1999999999534},{""stimulus"":""https://ziweizhang0304.github.io/Stats_learning_trig/img/Stim/FN_010_g.png"",""time"":685.5999999999767},{""stimulus"":""blank"",""time"":994.6999999999534},{""stimulus"":""https://ziweizhang0304.github.io/Stats_learning_trig/img/Stim/FN_025_g.png"",""time"":1026.5},{""stimulus"":""blank"",""time"":1340.5},{""stimulus"":""https://ziweizhang0304.github.io/Stats_learning_trig/img/Stim/FN_007_g.png"",""time"":1372.399999999965},{""stimulus"":""blank"",""time"":1675.7999999999884},{""stimulus"":""https://ziweizhang0304.github.io/Stats_learning_trig/img/Stim/FN_018_g.png"",""time"":1707.399999999965},{""stimulus"":""blank"",""time"":2011},{""stimulus"":""https://ziweizhang0304.github.io/Stats_learning_trig/img/Stim/FN_023_g.png"",""time"":2042.5},{""stimulus"":""blank"",""time"":2356.5999999999767},{""stimulus"":""https://ziweizhang0304.github.io/Stats_learning_trig/img/Stim/FN_021_g.png"",""time"":2388.6999999999534},{""stimulus"":""blank"",""time"":2691.7999999999884},{""stimulus"":""https://ziweizhang0304.github.io/Stats_learning_trig/img/Stim/FN_015_g.png"",""time"":2723.2999999999884},{""stimulus"":""blank"",""time"":3032},{""stimulus"":""https://ziweizhang0304.github.io/Stats_learning_trig/img/Stim/FN_019_g.png"",""time"":3063.6999999999534},{""stimulus"":""blank"",""time"":3371.5},{""stimulus"":""https://ziweizhang0304.github.io/Stats_learning_trig/img/Stim/FN_011_g.png"",""time"":3403.399999999965},{""stimulus"":""blank"",""time"":3711.6999999999534},{""stimulus"":""https://ziweizhang0304.github.io/Stats_learning_trig/img/Stim/FN_003_g.png"",""time"":3743.2999999999884},{""stimulus"":""blank"",""time"":4057.6999999999534},{""stimulus"":""https://ziweizhang0304.github.io/Stats_learning_trig/img/Stim/FN_024_g.png"",""time"":4089.5},{""stimulus"":""blank"",""time"":4393.399999999965}]","[{""key_press"":32,""rt"":2447.899999999965,""stimulus"":""https://ziweizhang0304.github.io/Stats_learning_trig/img/Stim/FN_021_g.png""}]","405.3999999999651","https://ziweizhang0304.github.io/Stats_learning_trig/img/Stim/FN_023_g.png","post_TD","21","2042.5","2447.899999999965","slow","6","2","5fed6c9c0d786daf31f29f3d","","","","","",""
"","image-keyboard-response","55","230070","0.0-5.0-21.0-0.0","719.4000000000233","","","https://ziweizhang0304.github.io/Stats_learning_trig/img/Stim/FN_020_g.png","13","","","","","","","","","","","","","","","","","",""
"","animation","56","234496","0.0-5.0-21.0-1.0","","","","","","[{""stimulus"":""https://ziweizhang0304.github.io/Stats_learning_trig/img/Stim/FN_019_g.png"",""time"":341.5999999999767},{""stimulus"":""blank"",""time"":655.8999999999651},{""stimulus"":""https://ziweizhang0304.github.io/Stats_learning_trig/img/Stim/FN_010_g.png"",""time"":687.8999999999651},{""stimulus"":""blank"",""time"":991.0999999999767},{""stimulus"":""https://ziweizhang0304.github.io/Stats_learning_trig/img/Stim/FN_024_g.png"",""time"":1022.8999999999651},{""stimulus"":""blank"",""time"":1327},{""stimulus"":""https://ziweizhang0304.github.io/Stats_learning_trig/img/Stim/FN_007_g.png"",""time"":1363.5},{""stimulus"":""blank"",""time"":1677.5999999999767},{""stimulus"":""https://ziweizhang0304.github.io/Stats_learning_trig/img/Stim/FN_015_g.png"",""time"":1709.399999999965},{""stimulus"":""blank"",""time"":2023.5999999999767},{""stimulus"":""https://ziweizhang0304.github.io/Stats_learning_trig/img/Stim/FN_001_g.png"",""time"":2055.2000000000116},{""stimulus"":""blank"",""time"":2358.5999999999767},{""stimulus"":""https://ziweizhang0304.github.io/Stats_learning_trig/img/Stim/FN_012_g.png"",""time"":2390.0999999999767},{""stimulus"":""blank"",""time"":2704.899999999965},{""stimulus"":""https://ziweizhang0304.github.io/Stats_learning_trig/img/Stim/FN_020_g.png"",""time"":2720.899999999965},{""stimulus"":""blank"",""time"":3025.899999999965},{""stimulus"":""https://ziweizhang0304.github.io/Stats_learning_trig/img/Stim/FN_009_g.png"",""time"":3062.5999999999767},{""stimulus"":""blank"",""time"":3371.7000000000116},{""stimulus"":""https://ziweizhang0304.github.io/Stats_learning_trig/img/Stim/FN_025_g.png"",""time"":3403.2999999999884},{""stimulus"":""blank"",""time"":3707.399999999965},{""stimulus"":""https://ziweizhang0304.github.io/Stats_learning_trig/img/Stim/FN_011_g.png"",""time"":3744.0999999999767},{""stimulus"":""blank"",""time"":4058.2999999999884},{""stimulus"":""https://ziweizhang0304.github.io/Stats_learning_trig/img/Stim/FN_003_g.png"",""time"":4090.2000000000116},{""stimulus"":""blank"",""time"":4398.399999999965}]","[{""key_press"":32,""rt"":2614.899999999965,""stimulus"":""https://ziweizhang0304.github.io/Stats_learning_trig/img/Stim/FN_012_g.png""}]","NaN","https://ziweizhang0304.github.io/Stats_learning_trig/img/Stim/FN_020_g.png","post_TD","22","2720.899999999965","","fast","8","2","5fed6c9c0d786daf31f29f3d","","","","","",""
"","image-keyboard-response","57","235445","0.0-5.0-22.0-0.0","945.1999999999534","","","https://ziweizhang0304.github.io/Stats_learning_trig/img/Stim/FN_009_g.png","13","","","","","","","","","","","","","","","","","",""
"","animation","58","239869","0.0-5.0-22.0-1.0","","","","","","[{""stimulus"":""https://ziweizhang0304.github.io/Stats_learning_trig/img/Stim/FN_019_g.png"",""time"":350.70000000001164},{""stimulus"":""blank"",""time"":665.7999999999884},{""stimulus"":""https://ziweizhang0304.github.io/Stats_learning_trig/img/Stim/FN_010_g.png"",""time"":681.9000000000233},{""stimulus"":""blank"",""time"":997.1000000000349},{""stimulus"":""https://ziweizhang0304.github.io/Stats_learning_trig/img/Stim/FN_024_g.png"",""time"":1028.9000000000233},{""stimulus"":""blank"",""time"":1337.2000000000116},{""stimulus"":""https://ziweizhang0304.github.io/Stats_learning_trig/img/Stim/FN_007_g.png"",""time"":1368.9000000000233},{""stimulus"":""blank"",""time"":1683.100000000035},{""stimulus"":""https://ziweizhang0304.github.io/Stats_learning_trig/img/Stim/FN_015_g.png"",""time"":1714.7000000000116},{""stimulus"":""blank"",""time"":2018.2000000000116},{""stimulus"":""https://ziweizhang0304.github.io/Stats_learning_trig/img/Stim/FN_001_g.png"",""time"":2050},{""stimulus"":""blank"",""time"":2364.600000000035},{""stimulus"":""https://ziweizhang0304.github.io/Stats_learning_trig/img/Stim/FN_012_g.png"",""time"":2396},{""stimulus"":""blank"",""time"":2699.7999999999884},{""stimulus"":""https://ziweizhang0304.github.io/Stats_learning_trig/img/Stim/FN_020_g.png"",""time"":2731.7000000000116},{""stimulus"":""blank"",""time"":3034.9000000000233},{""stimulus"":""https://ziweizhang0304.github.io/Stats_learning_trig/img/Stim/FN_009_g.png"",""time"":3066.5},{""stimulus"":""blank"",""time"":3370.100000000035},{""stimulus"":""https://ziweizhang0304.github.io/Stats_learning_trig/img/Stim/FN_025_g.png"",""time"":3401.600000000035},{""stimulus"":""blank"",""time"":3716.100000000035},{""stimulus"":""https://ziweizhang0304.github.io/Stats_learning_trig/img/Stim/FN_011_g.png"",""time"":3747.600000000035},{""stimulus"":""blank"",""time"":4061.2000000000116},{""stimulus"":""https://ziweizhang0304.github.io/Stats_learning_trig/img/Stim/FN_003_g.png"",""time"":4092.9000000000233},{""stimulus"":""blank"",""time"":4402}]","[{""key_press"":32,""rt"":3435.0999999999767,""stimulus"":""https://ziweizhang0304.github.io/Stats_learning_trig/img/Stim/FN_025_g.png""}]","368.5999999999767","https://ziweizhang0304.github.io/Stats_learning_trig/img/Stim/FN_009_g.png","post_TD","23","3066.5","3435.0999999999767","fast","9","3","5fed6c9c0d786daf31f29f3d","","","","","",""
"","image-keyboard-response","59","240708","0.0-5.0-23.0-0.0","835.5","","","https://ziweizhang0304.github.io/Stats_learning_trig/img/Stim/FN_009_g.png","13","","","","","","","","","","","","","","","","","",""
"","animation","60","245131","0.0-5.0-23.0-1.0","","","","","","[{""stimulus"":""https://ziweizhang0304.github.io/Stats_learning_trig/img/Stim/FN_010_g.png"",""time"":355.30000000004657},{""stimulus"":""blank"",""time"":670.3000000000466},{""stimulus"":""https://ziweizhang0304.github.io/Stats_learning_trig/img/Stim/FN_024_g.png"",""time"":686.4000000000233},{""stimulus"":""blank"",""time"":1001.7000000000116},{""stimulus"":""https://ziweizhang0304.github.io/Stats_learning_trig/img/Stim/FN_003_g.png"",""time"":1033.5},{""stimulus"":""blank"",""time"":1342},{""stimulus"":""https://ziweizhang0304.github.io/Stats_learning_trig/img/Stim/FN_019_g.png"",""time"":1373.5},{""stimulus"":""blank"",""time"":1687.7000000000116},{""stimulus"":""https://ziweizhang0304.github.io/Stats_learning_trig/img/Stim/FN_007_g.png"",""time"":1703.8000000000466},{""stimulus"":""blank"",""time"":2013.4000000000233},{""stimulus"":""https://ziweizhang0304.github.io/Stats_learning_trig/img/Stim/FN_012_g.png"",""time"":2045.4000000000233},{""stimulus"":""blank"",""time"":2354.100000000035},{""stimulus"":""https://ziweizhang0304.github.io/Stats_learning_trig/img/Stim/FN_020_g.png"",""time"":2386.100000000035},{""stimulus"":""blank"",""time"":2689.2000000000116},{""stimulus"":""https://ziweizhang0304.github.io/Stats_learning_trig/img/Stim/FN_009_g.png"",""time"":2720.8000000000466},{""stimulus"":""blank"",""time"":3024.5},{""stimulus"":""https://ziweizhang0304.github.io/Stats_learning_trig/img/Stim/FN_001_g.png"",""time"":3061.7000000000116},{""stimulus"":""blank"",""time"":3369.8000000000466},{""stimulus"":""https://ziweizhang0304.github.io/Stats_learning_trig/img/Stim/FN_015_g.png"",""time"":3401.600000000035},{""stimulus"":""blank"",""time"":3704.9000000000233},{""stimulus"":""https://ziweizhang0304.github.io/Stats_learning_trig/img/Stim/FN_025_g.png"",""time"":3741},{""stimulus"":""blank"",""time"":4055.100000000035},{""stimulus"":""https://ziweizhang0304.github.io/Stats_learning_trig/img/Stim/FN_011_g.png"",""time"":4086.8000000000466},{""stimulus"":""blank"",""time"":4390.400000000023}]","[{""key_press"":32,""rt"":3030.100000000035,""stimulus"":""blank""}]","309.29999999998836","https://ziweizhang0304.github.io/Stats_learning_trig/img/Stim/FN_009_g.png","post_TD","24","2720.8000000000466","3030.100000000035","fast","8","3","5fed6c9c0d786daf31f29f3d","634cc","","","","",""
"","survey-text","61","309815","0.0-6.0","64661.79999999999","","","","","","","","","","","","","","","","","","{""Q0"":""i realized they went in same order, so after couple rounds, I started counting as they appeared and associate the number with the symbol. It works, but within short period of time, I still made lots of slow judgement or mistakes""}","","","",""
"","survey-text","62","414803","0.0-7.0","104977","","","","","","","","","","","","","","","","","","{""[object Object]"":""Yes, i did noticed they appeared in certain order. As said from previous answered, I think the first symbol always appear at No4 position, others I linked to 5, 6, 7 and so on""}","","","",""
"","instructions","63","427563","0.0-8.0","12758.400000000023","","[{""page_index"":0,""viewing_time"":12757.79999999993}]","","","","","","","","","","","","","","","","","","","",""
"","free-sort","64","449722","0.0-9.0","22155","","","","","","","","","post_drag","","","","fast","","","","","","[{""src"":""https://ziweizhang0304.github.io/Stats_learning_trig/img/Stim/FN_020_g.png"",""x"":475,""y"":0},{""src"":""https://ziweizhang0304.github.io/Stats_learning_trig/img/Stim/FN_009_g.png"",""x"":-225,""y"":50},{""src"":""https://ziweizhang0304.github.io/Stats_learning_trig/img/Stim/FN_012_g.png"",""x"":475,""y"":50}]","[{""src"":""https://ziweizhang0304.github.io/Stats_learning_trig/img/Stim/FN_012_g.png"",""x"":31,""y"":14},{""src"":""https://ziweizhang0304.github.io/Stats_learning_trig/img/Stim/FN_020_g.png"",""x"":102,""y"":30},{""src"":""https://ziweizhang0304.github.io/Stats_learning_trig/img/Stim/FN_009_g.png"",""x"":214,""y"":22},{""src"":""https://ziweizhang0304.github.io/Stats_learning_trig/img/Stim/FN_020_g.png"",""x"":120,""y"":17},{""src"":""https://ziweizhang0304.github.io/Stats_learning_trig/img/Stim/FN_009_g.png"",""x"":214,""y"":7},{""src"":""https://ziweizhang0304.github.io/Stats_learning_trig/img/Stim/FN_009_g.png"",""x"":214,""y"":18}]","[{""src"":""https://ziweizhang0304.github.io/Stats_learning_trig/img/Stim/FN_020_g.png"",""x"":120,""y"":17},{""src"":""https://ziweizhang0304.github.io/Stats_learning_trig/img/Stim/FN_009_g.png"",""x"":214,""y"":18},{""src"":""https://ziweizhang0304.github.io/Stats_learning_trig/img/Stim/FN_012_g.png"",""x"":31,""y"":14}]",""
"","free-sort","65","460317","0.0-10.0","10591.70000000007","","","","","","","","","post_drag","","","","slow","","","","","","[{""src"":""https://ziweizhang0304.github.io/Stats_learning_trig/img/Stim/FN_023_g.png"",""x"":475,""y"":0},{""src"":""https://ziweizhang0304.github.io/Stats_learning_trig/img/Stim/FN_018_g.png"",""x"":-225,""y"":50},{""src"":""https://ziweizhang0304.github.io/Stats_learning_trig/img/Stim/FN_021_g.png"",""x"":475,""y"":50}]","[{""src"":""https://ziweizhang0304.github.io/Stats_learning_trig/img/Stim/FN_018_g.png"",""x"":40,""y"":17},{""src"":""https://ziweizhang0304.github.io/Stats_learning_trig/img/Stim/FN_023_g.png"",""x"":112,""y"":20},{""src"":""https://ziweizhang0304.github.io/Stats_learning_trig/img/Stim/FN_021_g.png"",""x"":203,""y"":25}]","[{""src"":""https://ziweizhang0304.github.io/Stats_learning_trig/img/Stim/FN_023_g.png"",""x"":112,""y"":20},{""src"":""https://ziweizhang0304.github.io/Stats_learning_trig/img/Stim/FN_018_g.png"",""x"":40,""y"":17},{""src"":""https://ziweizhang0304.github.io/Stats_learning_trig/img/Stim/FN_021_g.png"",""x"":203,""y"":25}]",""
"","survey-multi-choice","66","473838","0.0-11.0","13505.599999999977","","","","","","","","","","","","","","","","5fed6c9c0d786daf31f29f3d","","{""awareness"":""Yes"",""attention_check"":""Press SPACEBAR to a target""}","","","","[0,1]"
