"success","trial_type","trial_index","time_elapsed","internal_node_id","rt","url","view_history","stimulus","key_press","animation_sequence","response","TD_rt","TD_target","test_part","TD_trial_number","onset","offset","attention_state","TD_target_position","TD_within_triplet_counter","participant","yoke_participant","responses","init_locations","moves","final_locations","question_order"
"true","fullscreen","0","4845","0.0-0.0","","","","","","","","","","","","","","","","","","","","","","",""
"","external-html","1","11146","0.0-1.0","6210.800000011921","https://ziweizhang0304.github.io/Stats_learning_trig/content/consent.html","","","","","","","","","","","","","","","","","","","","",""
"","instructions","2","45009","0.0-2.0","33862","","[{""page_index"":0,""viewing_time"":3812.2999999821186},{""page_index"":1,""viewing_time"":13039.5},{""page_index"":2,""viewing_time"":14017.5},{""page_index"":3,""viewing_time"":2992.2000000178814}]","","","","","","","","","","","","","","","","","","","",""
"","image-keyboard-response","3","51625","0.0-3.0-0.0-0.0","6615.5","","","https://ziweizhang0304.github.io/Stats_learning_trig/img/Stim/FN_017_g.png","13","","","","","","","","","","","","","","","","","",""
"","animation","4","56046","0.0-3.0-0.0-1.0","","","","","","[{""stimulus"":""https://ziweizhang0304.github.io/Stats_learning_trig/img/Stim/FN_019_g.png"",""time"":354.40000000596046},{""stimulus"":""blank"",""time"":656.3000000119209},{""stimulus"":""https://ziweizhang0304.github.io/Stats_learning_trig/img/Stim/FN_014_g.png"",""time"":681.3000000119209},{""stimulus"":""blank"",""time"":982.8000000119209},{""stimulus"":""https://ziweizhang0304.github.io/Stats_learning_trig/img/Stim/FN_004_g.png"",""time"":1022.6999999880791},{""stimulus"":""blank"",""time"":1328.300000011921},{""stimulus"":""https://ziweizhang0304.github.io/Stats_learning_trig/img/Stim/FN_020_g.png"",""time"":1362.199999988079},{""stimulus"":""blank"",""time"":1679.0999999940395},{""stimulus"":""https://ziweizhang0304.github.io/Stats_learning_trig/img/Stim/FN_010_g.png"",""time"":1701.0999999940395},{""stimulus"":""blank"",""time"":2009.0999999940395},{""stimulus"":""https://ziweizhang0304.github.io/Stats_learning_trig/img/Stim/FN_011_g.png"",""time"":2041.0999999940395},{""stimulus"":""blank"",""time"":2342.199999988079},{""stimulus"":""https://ziweizhang0304.github.io/Stats_learning_trig/img/Stim/FN_024_g.png"",""time"":2381.0999999940395},{""stimulus"":""blank"",""time"":2687.0999999940395},{""stimulus"":""https://ziweizhang0304.github.io/Stats_learning_trig/img/Stim/FN_005_g.png"",""time"":2721},{""stimulus"":""blank"",""time"":3026},{""stimulus"":""https://ziweizhang0304.github.io/Stats_learning_trig/img/Stim/FN_002_g.png"",""time"":3061.9000000059605},{""stimulus"":""blank"",""time"":3365.9000000059605},{""stimulus"":""https://ziweizhang0304.github.io/Stats_learning_trig/img/Stim/FN_017_g.png"",""time"":3402.4000000059605},{""stimulus"":""blank"",""time"":3709.0999999940395},{""stimulus"":""https://ziweizhang0304.github.io/Stats_learning_trig/img/Stim/FN_021_g.png"",""time"":3741},{""stimulus"":""blank"",""time"":4049.300000011921},{""stimulus"":""https://ziweizhang0304.github.io/Stats_learning_trig/img/Stim/FN_015_g.png"",""time"":4084.800000011921},{""stimulus"":""blank"",""time"":4401.0999999940395}]","[{""key_press"":32,""rt"":3950.9000000059605,""stimulus"":""https://ziweizhang0304.github.io/Stats_learning_trig/img/Stim/FN_021_g.png""}]","548.5","https://ziweizhang0304.github.io/Stats_learning_trig/img/Stim/FN_017_g.png","post_prac","","","","","","","","","","","","",""
"","html-keyboard-response","5","61760","0.0-3.0-0.0-2.0","5711.800000011921","","","<p>Your reaction time for this trial was 548.5 ms.</p><p>Remember that you should only press the SPACEBAR when you see the shape presented at the beginning of the trial. </b> </p><p>Press enter to move on.</p>","13","","","","","","","","","","","","","","","","","",""
"","image-keyboard-response","6","67424","0.0-3.0-1.0-0.0","5663.5999999940395","","","https://ziweizhang0304.github.io/Stats_learning_trig/img/Stim/FN_016_g.png","13","","","","","","","","","","","","","","","","","",""
"","animation","7","71845","0.0-3.0-1.0-1.0","","","","","","[{""stimulus"":""https://ziweizhang0304.github.io/Stats_learning_trig/img/Stim/FN_005_g.png"",""time"":344.09999999403954},{""stimulus"":""blank"",""time"":644.6999999880791},{""stimulus"":""https://ziweizhang0304.github.io/Stats_learning_trig/img/Stim/FN_024_g.png"",""time"":681.6999999880791},{""stimulus"":""blank"",""time"":985.6999999880791},{""stimulus"":""https://ziweizhang0304.github.io/Stats_learning_trig/img/Stim/FN_021_g.png"",""time"":1021},{""stimulus"":""blank"",""time"":1322.699999988079},{""stimulus"":""https://ziweizhang0304.github.io/Stats_learning_trig/img/Stim/FN_002_g.png"",""time"":1361.300000011921},{""stimulus"":""blank"",""time"":1669.5},{""stimulus"":""https://ziweizhang0304.github.io/Stats_learning_trig/img/Stim/FN_008_g.png"",""time"":1701},{""stimulus"":""blank"",""time"":2010},{""stimulus"":""https://ziweizhang0304.github.io/Stats_learning_trig/img/Stim/FN_007_g.png"",""time"":2041.4000000059605},{""stimulus"":""blank"",""time"":2347.5},{""stimulus"":""https://ziweizhang0304.github.io/Stats_learning_trig/img/Stim/FN_016_g.png"",""time"":2380.5},{""stimulus"":""blank"",""time"":2685.199999988079},{""stimulus"":""https://ziweizhang0304.github.io/Stats_learning_trig/img/Stim/FN_015_g.png"",""time"":2720.9000000059605},{""stimulus"":""blank"",""time"":3035.699999988079},{""stimulus"":""https://ziweizhang0304.github.io/Stats_learning_trig/img/Stim/FN_004_g.png"",""time"":3061},{""stimulus"":""blank"",""time"":3362.5},{""stimulus"":""https://ziweizhang0304.github.io/Stats_learning_trig/img/Stim/FN_011_g.png"",""time"":3401.5999999940395},{""stimulus"":""blank"",""time"":3708},{""stimulus"":""https://ziweizhang0304.github.io/Stats_learning_trig/img/Stim/FN_020_g.png"",""time"":3741.0999999940395},{""stimulus"":""blank"",""time"":4046.199999988079},{""stimulus"":""https://ziweizhang0304.github.io/Stats_learning_trig/img/Stim/FN_014_g.png"",""time"":4080.5},{""stimulus"":""blank"",""time"":4387.699999988079}]","[{""key_press"":32,""rt"":2975.4000000059605,""stimulus"":""https://ziweizhang0304.github.io/Stats_learning_trig/img/Stim/FN_015_g.png""}]","594.9000000059605","https://ziweizhang0304.github.io/Stats_learning_trig/img/Stim/FN_016_g.png","post_prac","","","","","","","","","","","","",""
"","html-keyboard-response","8","78792","0.0-3.0-1.0-2.0","6946","","","<p>Your reaction time for this trial was 594.9 ms.</p><p>Remember that you should only press the SPACEBAR when you see the shape presented at the beginning of the trial. </b> </p><p>Press enter to move on.</p>","13","","","","","","","","","","","","","","","","","",""
"","image-keyboard-response","9","81904","0.0-3.0-2.0-0.0","3111","","","https://ziweizhang0304.github.io/Stats_learning_trig/img/Stim/FN_008_g.png","13","","","","","","","","","","","","","","","","","",""
"","animation","10","86325","0.0-3.0-2.0-1.0","","","","","","[{""stimulus"":""https://ziweizhang0304.github.io/Stats_learning_trig/img/Stim/FN_005_g.png"",""time"":341.2999999821186},{""stimulus"":""blank"",""time"":650.5999999940395},{""stimulus"":""https://ziweizhang0304.github.io/Stats_learning_trig/img/Stim/FN_024_g.png"",""time"":681.2999999821186},{""stimulus"":""blank"",""time"":991},{""stimulus"":""https://ziweizhang0304.github.io/Stats_learning_trig/img/Stim/FN_021_g.png"",""time"":1020.7999999821186},{""stimulus"":""blank"",""time"":1321.2999999821186},{""stimulus"":""https://ziweizhang0304.github.io/Stats_learning_trig/img/Stim/FN_002_g.png"",""time"":1367.5},{""stimulus"":""blank"",""time"":1676.199999988079},{""stimulus"":""https://ziweizhang0304.github.io/Stats_learning_trig/img/Stim/FN_008_g.png"",""time"":1701.699999988079},{""stimulus"":""blank"",""time"":2006.199999988079},{""stimulus"":""https://ziweizhang0304.github.io/Stats_learning_trig/img/Stim/FN_007_g.png"",""time"":2040.7999999821186},{""stimulus"":""blank"",""time"":2342.7999999821186},{""stimulus"":""https://ziweizhang0304.github.io/Stats_learning_trig/img/Stim/FN_016_g.png"",""time"":2380.9000000059605},{""stimulus"":""blank"",""time"":2688.5},{""stimulus"":""https://ziweizhang0304.github.io/Stats_learning_trig/img/Stim/FN_015_g.png"",""time"":2720.2999999821186},{""stimulus"":""blank"",""time"":3026.7999999821186},{""stimulus"":""https://ziweizhang0304.github.io/Stats_learning_trig/img/Stim/FN_004_g.png"",""time"":3060.699999988079},{""stimulus"":""blank"",""time"":3361.5},{""stimulus"":""https://ziweizhang0304.github.io/Stats_learning_trig/img/Stim/FN_011_g.png"",""time"":3401.5999999940395},{""stimulus"":""blank"",""time"":3708.0999999940395},{""stimulus"":""https://ziweizhang0304.github.io/Stats_learning_trig/img/Stim/FN_020_g.png"",""time"":3742.0999999940395},{""stimulus"":""blank"",""time"":4048.199999988079},{""stimulus"":""https://ziweizhang0304.github.io/Stats_learning_trig/img/Stim/FN_014_g.png"",""time"":4082.0999999940395},{""stimulus"":""blank"",""time"":4383.5999999940395}]","[{""key_press"":32,""rt"":2407.699999988079,""stimulus"":""https://ziweizhang0304.github.io/Stats_learning_trig/img/Stim/FN_016_g.png""}]","706","https://ziweizhang0304.github.io/Stats_learning_trig/img/Stim/FN_008_g.png","post_prac","","","","","","","","","","","","",""
"","html-keyboard-response","11","89416","0.0-3.0-2.0-2.0","3090.699999988079","","","<p>Your reaction time for this trial was 706 ms.</p><p>Remember that you should only press the SPACEBAR when you see the shape presented at the beginning of the trial. </b> </p><p>Press enter to move on.</p>","13","","","","","","","","","","","","","","","","","",""
"","instructions","12","93339","0.0-4.0","3922.2000000178814","","[{""page_index"":0,""viewing_time"":3922}]","","","","","","","","","","","","","","","","","","","",""
"","image-keyboard-response","13","97568","0.0-5.0-0.0-0.0","4229","","","https://ziweizhang0304.github.io/Stats_learning_trig/img/Stim/FN_019_g.png","13","","","","","","","","","","","","","","","","","",""
"","animation","14","101988","0.0-5.0-0.0-1.0","","","","","","[{""stimulus"":""https://ziweizhang0304.github.io/Stats_learning_trig/img/Stim/FN_004_g.png"",""time"":349.5},{""stimulus"":""blank"",""time"":650},{""stimulus"":""https://ziweizhang0304.github.io/Stats_learning_trig/img/Stim/FN_011_g.png"",""time"":681.3000000119209},{""stimulus"":""blank"",""time"":982.4000000059605},{""stimulus"":""https://ziweizhang0304.github.io/Stats_learning_trig/img/Stim/FN_002_g.png"",""time"":1020.5},{""stimulus"":""blank"",""time"":1329.0999999940395},{""stimulus"":""https://ziweizhang0304.github.io/Stats_learning_trig/img/Stim/FN_020_g.png"",""time"":1360.5999999940395},{""stimulus"":""blank"",""time"":1668.9000000059605},{""stimulus"":""https://ziweizhang0304.github.io/Stats_learning_trig/img/Stim/FN_024_g.png"",""time"":1700.9000000059605},{""stimulus"":""blank"",""time"":2002},{""stimulus"":""https://ziweizhang0304.github.io/Stats_learning_trig/img/Stim/FN_010_g.png"",""time"":2040.4000000059605},{""stimulus"":""blank"",""time"":2345.5999999940395},{""stimulus"":""https://ziweizhang0304.github.io/Stats_learning_trig/img/Stim/FN_019_g.png"",""time"":2385.5},{""stimulus"":""blank"",""time"":2695.9000000059605},{""stimulus"":""https://ziweizhang0304.github.io/Stats_learning_trig/img/Stim/FN_017_g.png"",""time"":2721},{""stimulus"":""blank"",""time"":3022.5},{""stimulus"":""https://ziweizhang0304.github.io/Stats_learning_trig/img/Stim/FN_015_g.png"",""time"":3071.0999999940395},{""stimulus"":""blank"",""time"":3374.699999988079},{""stimulus"":""https://ziweizhang0304.github.io/Stats_learning_trig/img/Stim/FN_005_g.png"",""time"":3406.699999988079},{""stimulus"":""blank"",""time"":3719},{""stimulus"":""https://ziweizhang0304.github.io/Stats_learning_trig/img/Stim/FN_021_g.png"",""time"":3741},{""stimulus"":""blank"",""time"":4041.9000000059605},{""stimulus"":""https://ziweizhang0304.github.io/Stats_learning_trig/img/Stim/FN_014_g.png"",""time"":4082.199999988079},{""stimulus"":""blank"",""time"":4392.199999988079}]","[{""key_press"":32,""rt"":2863.300000011921,""stimulus"":""https://ziweizhang0304.github.io/Stats_learning_trig/img/Stim/FN_017_g.png""}]","477.80000001192093","https://ziweizhang0304.github.io/Stats_learning_trig/img/Stim/FN_019_g.png","post_TD","1","2385.5","2863.300000011921","slow","7","2","60d897f8e73f969d51282445","","","","","",""
"","image-keyboard-response","15","106063","0.0-5.0-1.0-0.0","4074","","","https://ziweizhang0304.github.io/Stats_learning_trig/img/Stim/FN_010_g.png","13","","","","","","","","","","","","","","","","","",""
"","animation","16","110485","0.0-5.0-1.0-1.0","","","","","","[{""stimulus"":""https://ziweizhang0304.github.io/Stats_learning_trig/img/Stim/FN_015_g.png"",""time"":343.7999999821186},{""stimulus"":""blank"",""time"":644.3999999761581},{""stimulus"":""https://ziweizhang0304.github.io/Stats_learning_trig/img/Stim/FN_002_g.png"",""time"":690.3999999761581},{""stimulus"":""blank"",""time"":994.1999999880791},{""stimulus"":""https://ziweizhang0304.github.io/Stats_learning_trig/img/Stim/FN_005_g.png"",""time"":1023.6999999880791},{""stimulus"":""blank"",""time"":1329.8999999761581},{""stimulus"":""https://ziweizhang0304.github.io/Stats_learning_trig/img/Stim/FN_010_g.png"",""time"":1360.7999999821186},{""stimulus"":""blank"",""time"":1662},{""stimulus"":""https://ziweizhang0304.github.io/Stats_learning_trig/img/Stim/FN_019_g.png"",""time"":1701.199999988079},{""stimulus"":""blank"",""time"":2002.199999988079},{""stimulus"":""https://ziweizhang0304.github.io/Stats_learning_trig/img/Stim/FN_017_g.png"",""time"":2041.2999999821186},{""stimulus"":""blank"",""time"":2348.5999999940395},{""stimulus"":""https://ziweizhang0304.github.io/Stats_learning_trig/img/Stim/FN_004_g.png"",""time"":2381.5},{""stimulus"":""blank"",""time"":2681.7999999821186},{""stimulus"":""https://ziweizhang0304.github.io/Stats_learning_trig/img/Stim/FN_011_g.png"",""time"":2721.699999988079},{""stimulus"":""blank"",""time"":3029.7999999821186},{""stimulus"":""https://ziweizhang0304.github.io/Stats_learning_trig/img/Stim/FN_020_g.png"",""time"":3060.699999988079},{""stimulus"":""blank"",""time"":3367.0999999940395},{""stimulus"":""https://ziweizhang0304.github.io/Stats_learning_trig/img/Stim/FN_021_g.png"",""time"":3401.899999976158},{""stimulus"":""blank"",""time"":3702.399999976158},{""stimulus"":""https://ziweizhang0304.github.io/Stats_learning_trig/img/Stim/FN_024_g.png"",""time"":3741.0999999940395},{""stimulus"":""blank"",""time"":4047.699999988079},{""stimulus"":""https://ziweizhang0304.github.io/Stats_learning_trig/img/Stim/FN_014_g.png"",""time"":4081.699999988079},{""stimulus"":""blank"",""time"":4388.799999982119}]","[{""key_press"":32,""rt"":1886.7999999821186,""stimulus"":""https://ziweizhang0304.github.io/Stats_learning_trig/img/Stim/FN_019_g.png""}]","526","https://ziweizhang0304.github.io/Stats_learning_trig/img/Stim/FN_010_g.png","post_TD","2","1360.7999999821186","1886.7999999821186","slow","4","1","60d897f8e73f969d51282445","","","","","",""
"","image-keyboard-response","17","115456","0.0-5.0-2.0-0.0","4970.5","","","https://ziweizhang0304.github.io/Stats_learning_trig/img/Stim/FN_017_g.png","13","","","","","","","","","","","","","","","","","",""
"","animation","18","119877","0.0-5.0-2.0-1.0","","","","","","[{""stimulus"":""https://ziweizhang0304.github.io/Stats_learning_trig/img/Stim/FN_004_g.png"",""time"":341.80000001192093},{""stimulus"":""blank"",""time"":644.0999999940395},{""stimulus"":""https://ziweizhang0304.github.io/Stats_learning_trig/img/Stim/FN_011_g.png"",""time"":680.7000000178814},{""stimulus"":""blank"",""time"":989.2000000178814},{""stimulus"":""https://ziweizhang0304.github.io/Stats_learning_trig/img/Stim/FN_002_g.png"",""time"":1021},{""stimulus"":""blank"",""time"":1330.5999999940395},{""stimulus"":""https://ziweizhang0304.github.io/Stats_learning_trig/img/Stim/FN_020_g.png"",""time"":1360.5},{""stimulus"":""blank"",""time"":1662},{""stimulus"":""https://ziweizhang0304.github.io/Stats_learning_trig/img/Stim/FN_024_g.png"",""time"":1701.4000000059605},{""stimulus"":""blank"",""time"":2007.5},{""stimulus"":""https://ziweizhang0304.github.io/Stats_learning_trig/img/Stim/FN_010_g.png"",""time"":2041.4000000059605},{""stimulus"":""blank"",""time"":2347.2000000178814},{""stimulus"":""https://ziweizhang0304.github.io/Stats_learning_trig/img/Stim/FN_019_g.png"",""time"":2381.0999999940395},{""stimulus"":""blank"",""time"":2681.300000011921},{""stimulus"":""https://ziweizhang0304.github.io/Stats_learning_trig/img/Stim/FN_017_g.png"",""time"":2721.0999999940395},{""stimulus"":""blank"",""time"":3022.5999999940395},{""stimulus"":""https://ziweizhang0304.github.io/Stats_learning_trig/img/Stim/FN_015_g.png"",""time"":3060.5},{""stimulus"":""blank"",""time"":3362.2000000178814},{""stimulus"":""https://ziweizhang0304.github.io/Stats_learning_trig/img/Stim/FN_005_g.png"",""time"":3401},{""stimulus"":""blank"",""time"":3705.300000011921},{""stimulus"":""https://ziweizhang0304.github.io/Stats_learning_trig/img/Stim/FN_021_g.png"",""time"":3740.800000011921},{""stimulus"":""blank"",""time"":4044.300000011921},{""stimulus"":""https://ziweizhang0304.github.io/Stats_learning_trig/img/Stim/FN_014_g.png"",""time"":4081.5999999940395},{""stimulus"":""blank"",""time"":4390.700000017881}]","[{""key_press"":32,""rt"":3207.0999999940395,""stimulus"":""https://ziweizhang0304.github.io/Stats_learning_trig/img/Stim/FN_015_g.png""}]","486","https://ziweizhang0304.github.io/Stats_learning_trig/img/Stim/FN_017_g.png","post_TD","3","2721.0999999940395","3207.0999999940395","slow","8","3","60d897f8e73f969d51282445","","","","","",""
"","image-keyboard-response","19","121495","0.0-5.0-3.0-0.0","1617.2000000178814","","","https://ziweizhang0304.github.io/Stats_learning_trig/img/Stim/FN_016_g.png","13","","","","","","","","","","","","","","","","","",""
"","animation","20","125916","0.0-5.0-3.0-1.0","","","","","","[{""stimulus"":""https://ziweizhang0304.github.io/Stats_learning_trig/img/Stim/FN_024_g.png"",""time"":349},{""stimulus"":""blank"",""time"":651.6000000238419},{""stimulus"":""https://ziweizhang0304.github.io/Stats_learning_trig/img/Stim/FN_020_g.png"",""time"":681.1000000238419},{""stimulus"":""blank"",""time"":992.7000000178814},{""stimulus"":""https://ziweizhang0304.github.io/Stats_learning_trig/img/Stim/FN_021_g.png"",""time"":1020.4000000059605},{""stimulus"":""blank"",""time"":1323.4000000059605},{""stimulus"":""https://ziweizhang0304.github.io/Stats_learning_trig/img/Stim/FN_005_g.png"",""time"":1361.300000011921},{""stimulus"":""blank"",""time"":1664.800000011921},{""stimulus"":""https://ziweizhang0304.github.io/Stats_learning_trig/img/Stim/FN_014_g.png"",""time"":1701.6000000238419},{""stimulus"":""blank"",""time"":2008},{""stimulus"":""https://ziweizhang0304.github.io/Stats_learning_trig/img/Stim/FN_004_g.png"",""time"":2041.6000000238419},{""stimulus"":""blank"",""time"":2349.600000023842},{""stimulus"":""https://ziweizhang0304.github.io/Stats_learning_trig/img/Stim/FN_008_g.png"",""time"":2380.5},{""stimulus"":""blank"",""time"":2690},{""stimulus"":""https://ziweizhang0304.github.io/Stats_learning_trig/img/Stim/FN_007_g.png"",""time"":2721.7000000178814},{""stimulus"":""blank"",""time"":3030.600000023842},{""stimulus"":""https://ziweizhang0304.github.io/Stats_learning_trig/img/Stim/FN_016_g.png"",""time"":3060.800000011921},{""stimulus"":""blank"",""time"":3369.7000000178814},{""stimulus"":""https://ziweizhang0304.github.io/Stats_learning_trig/img/Stim/FN_015_g.png"",""time"":3401.100000023842},{""stimulus"":""blank"",""time"":3705.800000011921},{""stimulus"":""https://ziweizhang0304.github.io/Stats_learning_trig/img/Stim/FN_011_g.png"",""time"":3741.300000011921},{""stimulus"":""blank"",""time"":4051.4000000059605},{""stimulus"":""https://ziweizhang0304.github.io/Stats_learning_trig/img/Stim/FN_002_g.png"",""time"":4081.5},{""stimulus"":""blank"",""time"":4386}]","[{""key_press"":32,""rt"":2871.5999999940395,""stimulus"":""https://ziweizhang0304.github.io/Stats_learning_trig/img/Stim/FN_007_g.png""}]","NaN","https://ziweizhang0304.github.io/Stats_learning_trig/img/Stim/FN_016_g.png","post_TD","4","3060.800000011921","","fast","9","3","60d897f8e73f969d51282445","","","","","",""
"","image-keyboard-response","21","130143","0.0-5.0-4.0-0.0","4225.800000011921","","","https://ziweizhang0304.github.io/Stats_learning_trig/img/Stim/FN_010_g.png","13","","","","","","","","","","","","","","","","","",""
"","animation","22","134571","0.0-5.0-4.0-1.0","","","","","","[{""stimulus"":""https://ziweizhang0304.github.io/Stats_learning_trig/img/Stim/FN_005_g.png"",""time"":345.30000001192093},{""stimulus"":""blank"",""time"":652.1999999880791},{""stimulus"":""https://ziweizhang0304.github.io/Stats_learning_trig/img/Stim/FN_024_g.png"",""time"":681.1999999880791},{""stimulus"":""blank"",""time"":982.5},{""stimulus"":""https://ziweizhang0304.github.io/Stats_learning_trig/img/Stim/FN_020_g.png"",""time"":1021.1999999880791},{""stimulus"":""blank"",""time"":1321.800000011921},{""stimulus"":""https://ziweizhang0304.github.io/Stats_learning_trig/img/Stim/FN_014_g.png"",""time"":1361.800000011921},{""stimulus"":""blank"",""time"":1668.300000011921},{""stimulus"":""https://ziweizhang0304.github.io/Stats_learning_trig/img/Stim/FN_010_g.png"",""time"":1702.0999999940395},{""stimulus"":""blank"",""time"":2009.5},{""stimulus"":""https://ziweizhang0304.github.io/Stats_learning_trig/img/Stim/FN_019_g.png"",""time"":2041.4000000059605},{""stimulus"":""blank"",""time"":2347.0999999940395},{""stimulus"":""https://ziweizhang0304.github.io/Stats_learning_trig/img/Stim/FN_017_g.png"",""time"":2381.300000011921},{""stimulus"":""blank"",""time"":2693.4000000059605},{""stimulus"":""https://ziweizhang0304.github.io/Stats_learning_trig/img/Stim/FN_015_g.png"",""time"":2720.9000000059605},{""stimulus"":""blank"",""time"":3022.5},{""stimulus"":""https://ziweizhang0304.github.io/Stats_learning_trig/img/Stim/FN_004_g.png"",""time"":3061.4000000059605},{""stimulus"":""blank"",""time"":3371},{""stimulus"":""https://ziweizhang0304.github.io/Stats_learning_trig/img/Stim/FN_011_g.png"",""time"":3400.9000000059605},{""stimulus"":""blank"",""time"":3708.5999999940395},{""stimulus"":""https://ziweizhang0304.github.io/Stats_learning_trig/img/Stim/FN_002_g.png"",""time"":3742.0999999940395},{""stimulus"":""blank"",""time"":4050},{""stimulus"":""https://ziweizhang0304.github.io/Stats_learning_trig/img/Stim/FN_021_g.png"",""time"":4082.0999999940395},{""stimulus"":""blank"",""time"":4387.9000000059605}]","[{""key_press"":32,""rt"":2166.0999999940395,""stimulus"":""https://ziweizhang0304.github.io/Stats_learning_trig/img/Stim/FN_019_g.png""}]","464","https://ziweizhang0304.github.io/Stats_learning_trig/img/Stim/FN_010_g.png","post_TD","5","1702.0999999940395","2166.0999999940395","slow","5","1","60d897f8e73f969d51282445","","","","","",""
"","image-keyboard-response","23","137015","0.0-5.0-5.0-0.0","2443.2000000178814","","","https://ziweizhang0304.github.io/Stats_learning_trig/img/Stim/FN_008_g.png","13","","","","","","","","","","","","","","","","","",""
"","animation","24","141436","0.0-5.0-5.0-1.0","","","","","","[{""stimulus"":""https://ziweizhang0304.github.io/Stats_learning_trig/img/Stim/FN_024_g.png"",""time"":341.10000002384186},{""stimulus"":""blank"",""time"":641.5},{""stimulus"":""https://ziweizhang0304.github.io/Stats_learning_trig/img/Stim/FN_020_g.png"",""time"":689.9000000059605},{""stimulus"":""blank"",""time"":991.8000000119209},{""stimulus"":""https://ziweizhang0304.github.io/Stats_learning_trig/img/Stim/FN_021_g.png"",""time"":1021.3000000119209},{""stimulus"":""blank"",""time"":1329.2000000178814},{""stimulus"":""https://ziweizhang0304.github.io/Stats_learning_trig/img/Stim/FN_005_g.png"",""time"":1360.9000000059605},{""stimulus"":""blank"",""time"":1671.6000000238419},{""stimulus"":""https://ziweizhang0304.github.io/Stats_learning_trig/img/Stim/FN_014_g.png"",""time"":1700.6000000238419},{""stimulus"":""blank"",""time"":2006.7000000178814},{""stimulus"":""https://ziweizhang0304.github.io/Stats_learning_trig/img/Stim/FN_004_g.png"",""time"":2041.6000000238419},{""stimulus"":""blank"",""time"":2355.9000000059605},{""stimulus"":""https://ziweizhang0304.github.io/Stats_learning_trig/img/Stim/FN_008_g.png"",""time"":2380.7000000178814},{""stimulus"":""blank"",""time"":2685.600000023842},{""stimulus"":""https://ziweizhang0304.github.io/Stats_learning_trig/img/Stim/FN_007_g.png"",""time"":2721},{""stimulus"":""blank"",""time"":3023.600000023842},{""stimulus"":""https://ziweizhang0304.github.io/Stats_learning_trig/img/Stim/FN_016_g.png"",""time"":3060.5},{""stimulus"":""blank"",""time"":3369.800000011921},{""stimulus"":""https://ziweizhang0304.github.io/Stats_learning_trig/img/Stim/FN_015_g.png"",""time"":3400.800000011921},{""stimulus"":""blank"",""time"":3709.600000023842},{""stimulus"":""https://ziweizhang0304.github.io/Stats_learning_trig/img/Stim/FN_011_g.png"",""time"":3745.4000000059605},{""stimulus"":""blank"",""time"":4054},{""stimulus"":""https://ziweizhang0304.github.io/Stats_learning_trig/img/Stim/FN_002_g.png"",""time"":4089.4000000059605},{""stimulus"":""blank"",""time"":4396.4000000059605}]","[{""key_press"":32,""rt"":2887.899999976158,""stimulus"":""https://ziweizhang0304.github.io/Stats_learning_trig/img/Stim/FN_007_g.png""}]","507.19999995827675","https://ziweizhang0304.github.io/Stats_learning_trig/img/Stim/FN_008_g.png","post_TD","6","2380.7000000178814","2887.899999976158","fast","7","1","60d897f8e73f969d51282445","","","","","",""
"","image-keyboard-response","25","144431","0.0-5.0-6.0-0.0","2994.4000000059605","","","https://ziweizhang0304.github.io/Stats_learning_trig/img/Stim/FN_008_g.png","13","","","","","","","","","","","","","","","","","",""
"","animation","26","148852","0.0-5.0-6.0-1.0","","","","","","[{""stimulus"":""https://ziweizhang0304.github.io/Stats_learning_trig/img/Stim/FN_011_g.png"",""time"":343.59999999403954},{""stimulus"":""blank"",""time"":655.1999999880791},{""stimulus"":""https://ziweizhang0304.github.io/Stats_learning_trig/img/Stim/FN_024_g.png"",""time"":681.8000000119209},{""stimulus"":""blank"",""time"":990.5},{""stimulus"":""https://ziweizhang0304.github.io/Stats_learning_trig/img/Stim/FN_004_g.png"",""time"":1020.4000000059605},{""stimulus"":""blank"",""time"":1323.5999999940395},{""stimulus"":""https://ziweizhang0304.github.io/Stats_learning_trig/img/Stim/FN_008_g.png"",""time"":1361.4000000059605},{""stimulus"":""blank"",""time"":1669.199999988079},{""stimulus"":""https://ziweizhang0304.github.io/Stats_learning_trig/img/Stim/FN_007_g.png"",""time"":1701.0999999940395},{""stimulus"":""blank"",""time"":2007.5999999940395},{""stimulus"":""https://ziweizhang0304.github.io/Stats_learning_trig/img/Stim/FN_016_g.png"",""time"":2041},{""stimulus"":""blank"",""time"":2356.699999988079},{""stimulus"":""https://ziweizhang0304.github.io/Stats_learning_trig/img/Stim/FN_015_g.png"",""time"":2381},{""stimulus"":""blank"",""time"":2687.5},{""stimulus"":""https://ziweizhang0304.github.io/Stats_learning_trig/img/Stim/FN_005_g.png"",""time"":2721.4000000059605},{""stimulus"":""blank"",""time"":3029.199999988079},{""stimulus"":""https://ziweizhang0304.github.io/Stats_learning_trig/img/Stim/FN_020_g.png"",""time"":3060.4000000059605},{""stimulus"":""blank"",""time"":3360.9000000059605},{""stimulus"":""https://ziweizhang0304.github.io/Stats_learning_trig/img/Stim/FN_002_g.png"",""time"":3401.5999999940395},{""stimulus"":""blank"",""time"":3702.5},{""stimulus"":""https://ziweizhang0304.github.io/Stats_learning_trig/img/Stim/FN_021_g.png"",""time"":3741},{""stimulus"":""blank"",""time"":4053.800000011921},{""stimulus"":""https://ziweizhang0304.github.io/Stats_learning_trig/img/Stim/FN_014_g.png"",""time"":4081.300000011921},{""stimulus"":""blank"",""time"":4389.5999999940395}]","[{""key_press"":32,""rt"":1943.5999999940395,""stimulus"":""https://ziweizhang0304.github.io/Stats_learning_trig/img/Stim/FN_007_g.png""}]","582.1999999880791","https://ziweizhang0304.github.io/Stats_learning_trig/img/Stim/FN_008_g.png","post_TD","7","1361.4000000059605","1943.5999999940395","fast","4","1","60d897f8e73f969d51282445","","","","","",""
"","image-keyboard-response","27","150247","0.0-5.0-7.0-0.0","1394.3999999761581","","","https://ziweizhang0304.github.io/Stats_learning_trig/img/Stim/FN_010_g.png","13","","","","","","","","","","","","","","","","","",""
"","animation","28","154668","0.0-5.0-7.0-1.0","","","","","","[{""stimulus"":""https://ziweizhang0304.github.io/Stats_learning_trig/img/Stim/FN_021_g.png"",""time"":347},{""stimulus"":""blank"",""time"":654.9000000059605},{""stimulus"":""https://ziweizhang0304.github.io/Stats_learning_trig/img/Stim/FN_011_g.png"",""time"":682},{""stimulus"":""blank"",""time"":986.5},{""stimulus"":""https://ziweizhang0304.github.io/Stats_learning_trig/img/Stim/FN_004_g.png"",""time"":1020.5},{""stimulus"":""blank"",""time"":1324},{""stimulus"":""https://ziweizhang0304.github.io/Stats_learning_trig/img/Stim/FN_024_g.png"",""time"":1360.9000000059605},{""stimulus"":""blank"",""time"":1662.0999999940395},{""stimulus"":""https://ziweizhang0304.github.io/Stats_learning_trig/img/Stim/FN_014_g.png"",""time"":1702},{""stimulus"":""blank"",""time"":2008.0999999940395},{""stimulus"":""https://ziweizhang0304.github.io/Stats_learning_trig/img/Stim/FN_002_g.png"",""time"":2042},{""stimulus"":""blank"",""time"":2348.5999999940395},{""stimulus"":""https://ziweizhang0304.github.io/Stats_learning_trig/img/Stim/FN_010_g.png"",""time"":2381.699999988079},{""stimulus"":""blank"",""time"":2684.300000011921},{""stimulus"":""https://ziweizhang0304.github.io/Stats_learning_trig/img/Stim/FN_019_g.png"",""time"":2723.800000011921},{""stimulus"":""blank"",""time"":3032.5999999940395},{""stimulus"":""https://ziweizhang0304.github.io/Stats_learning_trig/img/Stim/FN_017_g.png"",""time"":3060.9000000059605},{""stimulus"":""blank"",""time"":3367.199999988079},{""stimulus"":""https://ziweizhang0304.github.io/Stats_learning_trig/img/Stim/FN_015_g.png"",""time"":3401.4000000059605},{""stimulus"":""blank"",""time"":3704},{""stimulus"":""https://ziweizhang0304.github.io/Stats_learning_trig/img/Stim/FN_005_g.png"",""time"":3741},{""stimulus"":""blank"",""time"":4043.9000000059605},{""stimulus"":""https://ziweizhang0304.github.io/Stats_learning_trig/img/Stim/FN_020_g.png"",""time"":4090.800000011921},{""stimulus"":""blank"",""time"":4408.5}]","[{""key_press"":32,""rt"":2847.7000000178814,""stimulus"":""https://ziweizhang0304.github.io/Stats_learning_trig/img/Stim/FN_019_g.png""}]","466.0000000298023","https://ziweizhang0304.github.io/Stats_learning_trig/img/Stim/FN_010_g.png","post_TD","8","2381.699999988079","2847.7000000178814","slow","7","1","60d897f8e73f969d51282445","","","","","",""
"","image-keyboard-response","29","155944","0.0-5.0-8.0-0.0","1275.4000000059605","","","https://ziweizhang0304.github.io/Stats_learning_trig/img/Stim/FN_016_g.png","13","","","","","","","","","","","","","","","","","",""
"","animation","30","160365","0.0-5.0-8.0-1.0","","","","","","[{""stimulus"":""https://ziweizhang0304.github.io/Stats_learning_trig/img/Stim/FN_014_g.png"",""time"":340.69999998807907},{""stimulus"":""blank"",""time"":642.5},{""stimulus"":""https://ziweizhang0304.github.io/Stats_learning_trig/img/Stim/FN_015_g.png"",""time"":681.3999999761581},{""stimulus"":""blank"",""time"":991.8999999761581},{""stimulus"":""https://ziweizhang0304.github.io/Stats_learning_trig/img/Stim/FN_024_g.png"",""time"":1021.3999999761581},{""stimulus"":""blank"",""time"":1324.5},{""stimulus"":""https://ziweizhang0304.github.io/Stats_learning_trig/img/Stim/FN_002_g.png"",""time"":1361.3999999761581},{""stimulus"":""blank"",""time"":1666.3999999761581},{""stimulus"":""https://ziweizhang0304.github.io/Stats_learning_trig/img/Stim/FN_021_g.png"",""time"":1700.3999999761581},{""stimulus"":""blank"",""time"":2003.8999999761581},{""stimulus"":""https://ziweizhang0304.github.io/Stats_learning_trig/img/Stim/FN_008_g.png"",""time"":2041.0999999940395},{""stimulus"":""blank"",""time"":2341.899999976158},{""stimulus"":""https://ziweizhang0304.github.io/Stats_learning_trig/img/Stim/FN_007_g.png"",""time"":2380.7999999821186},{""stimulus"":""blank"",""time"":2683.7999999821186},{""stimulus"":""https://ziweizhang0304.github.io/Stats_learning_trig/img/Stim/FN_016_g.png"",""time"":2721.199999988079},{""stimulus"":""blank"",""time"":3034.899999976158},{""stimulus"":""https://ziweizhang0304.github.io/Stats_learning_trig/img/Stim/FN_004_g.png"",""time"":3061.699999988079},{""stimulus"":""blank"",""time"":3369.5},{""stimulus"":""https://ziweizhang0304.github.io/Stats_learning_trig/img/Stim/FN_005_g.png"",""time"":3401.699999988079},{""stimulus"":""blank"",""time"":3703.2999999821186},{""stimulus"":""https://ziweizhang0304.github.io/Stats_learning_trig/img/Stim/FN_011_g.png"",""time"":3741.2999999821186},{""stimulus"":""blank"",""time"":4043.7999999821186},{""stimulus"":""https://ziweizhang0304.github.io/Stats_learning_trig/img/Stim/FN_020_g.png"",""time"":4080.699999988079},{""stimulus"":""blank"",""time"":4387.0999999940395}]","[{""key_press"":32,""rt"":2526.899999976158,""stimulus"":""https://ziweizhang0304.github.io/Stats_learning_trig/img/Stim/FN_007_g.png""}]","NaN","https://ziweizhang0304.github.io/Stats_learning_trig/img/Stim/FN_016_g.png","post_TD","9","2721.199999988079","","fast","8","3","60d897f8e73f969d51282445","","","","","",""
"","image-keyboard-response","31","166011","0.0-5.0-9.0-0.0","5649.299999982119","","","https://ziweizhang0304.github.io/Stats_learning_trig/img/Stim/FN_007_g.png","13","","","","","","","","","","","","","","","","","",""
"","animation","32","170433","0.0-5.0-9.0-1.0","","","","","","[{""stimulus"":""https://ziweizhang0304.github.io/Stats_learning_trig/img/Stim/FN_024_g.png"",""time"":344.5},{""stimulus"":""blank"",""time"":647.6999999880791},{""stimulus"":""https://ziweizhang0304.github.io/Stats_learning_trig/img/Stim/FN_020_g.png"",""time"":680.8000000119209},{""stimulus"":""blank"",""time"":987.5999999940395},{""stimulus"":""https://ziweizhang0304.github.io/Stats_learning_trig/img/Stim/FN_021_g.png"",""time"":1020.9000000059605},{""stimulus"":""blank"",""time"":1328.800000011921},{""stimulus"":""https://ziweizhang0304.github.io/Stats_learning_trig/img/Stim/FN_005_g.png"",""time"":1360.5999999940395},{""stimulus"":""blank"",""time"":1669.199999988079},{""stimulus"":""https://ziweizhang0304.github.io/Stats_learning_trig/img/Stim/FN_014_g.png"",""time"":1702.0999999940395},{""stimulus"":""blank"",""time"":2005.199999988079},{""stimulus"":""https://ziweizhang0304.github.io/Stats_learning_trig/img/Stim/FN_004_g.png"",""time"":2041},{""stimulus"":""blank"",""time"":2346.699999988079},{""stimulus"":""https://ziweizhang0304.github.io/Stats_learning_trig/img/Stim/FN_008_g.png"",""time"":2380.5999999940395},{""stimulus"":""blank"",""time"":2686.5999999940395},{""stimulus"":""https://ziweizhang0304.github.io/Stats_learning_trig/img/Stim/FN_007_g.png"",""time"":2721.699999988079},{""stimulus"":""blank"",""time"":3028.699999988079},{""stimulus"":""https://ziweizhang0304.github.io/Stats_learning_trig/img/Stim/FN_016_g.png"",""time"":3060.5999999940395},{""stimulus"":""blank"",""time"":3373.300000011921},{""stimulus"":""https://ziweizhang0304.github.io/Stats_learning_trig/img/Stim/FN_015_g.png"",""time"":3401.199999988079},{""stimulus"":""blank"",""time"":3704.699999988079},{""stimulus"":""https://ziweizhang0304.github.io/Stats_learning_trig/img/Stim/FN_011_g.png"",""time"":3740.5999999940395},{""stimulus"":""blank"",""time"":4048},{""stimulus"":""https://ziweizhang0304.github.io/Stats_learning_trig/img/Stim/FN_002_g.png"",""time"":4080.800000011921},{""stimulus"":""blank"",""time"":4389.4000000059605}]","[{""key_press"":32,""rt"":3175.5,""stimulus"":""https://ziweizhang0304.github.io/Stats_learning_trig/img/Stim/FN_016_g.png""}]","453.80000001192093","https://ziweizhang0304.github.io/Stats_learning_trig/img/Stim/FN_007_g.png","post_TD","10","2721.699999988079","3175.5","fast","8","2","60d897f8e73f969d51282445","","","","","",""
"","image-keyboard-response","33","171827","0.0-5.0-10.0-0.0","1392.7999999821186","","","https://ziweizhang0304.github.io/Stats_learning_trig/img/Stim/FN_010_g.png","13","","","","","","","","","","","","","","","","","",""
"","animation","34","176248","0.0-5.0-10.0-1.0","","","","","","[{""stimulus"":""https://ziweizhang0304.github.io/Stats_learning_trig/img/Stim/FN_004_g.png"",""time"":348.80000001192093},{""stimulus"":""blank"",""time"":650.0999999940395},{""stimulus"":""https://ziweizhang0304.github.io/Stats_learning_trig/img/Stim/FN_011_g.png"",""time"":681.5},{""stimulus"":""blank"",""time"":987.9000000059605},{""stimulus"":""https://ziweizhang0304.github.io/Stats_learning_trig/img/Stim/FN_002_g.png"",""time"":1021.4000000059605},{""stimulus"":""blank"",""time"":1328.9000000059605},{""stimulus"":""https://ziweizhang0304.github.io/Stats_learning_trig/img/Stim/FN_020_g.png"",""time"":1362.699999988079},{""stimulus"":""blank"",""time"":1669.800000011921},{""stimulus"":""https://ziweizhang0304.github.io/Stats_learning_trig/img/Stim/FN_024_g.png"",""time"":1702.4000000059605},{""stimulus"":""blank"",""time"":2005.9000000059605},{""stimulus"":""https://ziweizhang0304.github.io/Stats_learning_trig/img/Stim/FN_010_g.png"",""time"":2041.0999999940395},{""stimulus"":""blank"",""time"":2346.5},{""stimulus"":""https://ziweizhang0304.github.io/Stats_learning_trig/img/Stim/FN_019_g.png"",""time"":2381.5},{""stimulus"":""blank"",""time"":2689.300000011921},{""stimulus"":""https://ziweizhang0304.github.io/Stats_learning_trig/img/Stim/FN_017_g.png"",""time"":2721},{""stimulus"":""blank"",""time"":3022.5},{""stimulus"":""https://ziweizhang0304.github.io/Stats_learning_trig/img/Stim/FN_015_g.png"",""time"":3061.4000000059605},{""stimulus"":""blank"",""time"":3366.5},{""stimulus"":""https://ziweizhang0304.github.io/Stats_learning_trig/img/Stim/FN_005_g.png"",""time"":3400.4000000059605},{""stimulus"":""blank"",""time"":3707.300000011921},{""stimulus"":""https://ziweizhang0304.github.io/Stats_learning_trig/img/Stim/FN_021_g.png"",""time"":3741.300000011921},{""stimulus"":""blank"",""time"":4052.0999999940395},{""stimulus"":""https://ziweizhang0304.github.io/Stats_learning_trig/img/Stim/FN_014_g.png"",""time"":4081.5},{""stimulus"":""blank"",""time"":4389}]","[{""key_press"":32,""rt"":2495.4000000059605,""stimulus"":""https://ziweizhang0304.github.io/Stats_learning_trig/img/Stim/FN_019_g.png""}]","454.30000001192093","https://ziweizhang0304.github.io/Stats_learning_trig/img/Stim/FN_010_g.png","post_TD","11","2041.0999999940395","2495.4000000059605","slow","6","1","60d897f8e73f969d51282445","","","","","",""
"","image-keyboard-response","35","178347","0.0-5.0-11.0-0.0","2098.800000011921","","","https://ziweizhang0304.github.io/Stats_learning_trig/img/Stim/FN_016_g.png","13","","","","","","","","","","","","","","","","","",""
"","animation","36","182769","0.0-5.0-11.0-1.0","","","","","","[{""stimulus"":""https://ziweizhang0304.github.io/Stats_learning_trig/img/Stim/FN_005_g.png"",""time"":342.90000000596046},{""stimulus"":""blank"",""time"":643.1000000238419},{""stimulus"":""https://ziweizhang0304.github.io/Stats_learning_trig/img/Stim/FN_024_g.png"",""time"":682},{""stimulus"":""blank"",""time"":985.1000000238419},{""stimulus"":""https://ziweizhang0304.github.io/Stats_learning_trig/img/Stim/FN_021_g.png"",""time"":1021.1000000238419},{""stimulus"":""blank"",""time"":1328},{""stimulus"":""https://ziweizhang0304.github.io/Stats_learning_trig/img/Stim/FN_002_g.png"",""time"":1361.1000000238419},{""stimulus"":""blank"",""time"":1666.4000000059605},{""stimulus"":""https://ziweizhang0304.github.io/Stats_learning_trig/img/Stim/FN_008_g.png"",""time"":1701.1000000238419},{""stimulus"":""blank"",""time"":2004.6000000238419},{""stimulus"":""https://ziweizhang0304.github.io/Stats_learning_trig/img/Stim/FN_007_g.png"",""time"":2042.1000000238419},{""stimulus"":""blank"",""time"":2346.600000023842},{""stimulus"":""https://ziweizhang0304.github.io/Stats_learning_trig/img/Stim/FN_016_g.png"",""time"":2380.5},{""stimulus"":""blank"",""time"":2686.5},{""stimulus"":""https://ziweizhang0304.github.io/Stats_learning_trig/img/Stim/FN_015_g.png"",""time"":2721},{""stimulus"":""blank"",""time"":3025.5},{""stimulus"":""https://ziweizhang0304.github.io/Stats_learning_trig/img/Stim/FN_004_g.png"",""time"":3060.9000000059605},{""stimulus"":""blank"",""time"":3368.7000000178814},{""stimulus"":""https://ziweizhang0304.github.io/Stats_learning_trig/img/Stim/FN_011_g.png"",""time"":3401.4000000059605},{""stimulus"":""blank"",""time"":3709.4000000059605},{""stimulus"":""https://ziweizhang0304.github.io/Stats_learning_trig/img/Stim/FN_020_g.png"",""time"":3740.800000011921},{""stimulus"":""blank"",""time"":4046.7000000178814},{""stimulus"":""https://ziweizhang0304.github.io/Stats_learning_trig/img/Stim/FN_014_g.png"",""time"":4081.4000000059605},{""stimulus"":""blank"",""time"":4388.9000000059605}]","[{""key_press"":32,""rt"":2902.899999976158,""stimulus"":""https://ziweizhang0304.github.io/Stats_learning_trig/img/Stim/FN_015_g.png""}]","522.3999999761581","https://ziweizhang0304.github.io/Stats_learning_trig/img/Stim/FN_016_g.png","post_TD","12","2380.5","2902.899999976158","fast","7","3","60d897f8e73f969d51282445","","","","","",""
"","image-keyboard-response","37","184331","0.0-5.0-12.0-0.0","1561","","","https://ziweizhang0304.github.io/Stats_learning_trig/img/Stim/FN_007_g.png","13","","","","","","","","","","","","","","","","","",""
"","animation","38","188752","0.0-5.0-12.0-1.0","","","","","","[{""stimulus"":""https://ziweizhang0304.github.io/Stats_learning_trig/img/Stim/FN_014_g.png"",""time"":345.5},{""stimulus"":""blank"",""time"":654.9000000059605},{""stimulus"":""https://ziweizhang0304.github.io/Stats_learning_trig/img/Stim/FN_015_g.png"",""time"":681.6999999880791},{""stimulus"":""blank"",""time"":984.5},{""stimulus"":""https://ziweizhang0304.github.io/Stats_learning_trig/img/Stim/FN_024_g.png"",""time"":1020.4000000059605},{""stimulus"":""blank"",""time"":1326.0999999940395},{""stimulus"":""https://ziweizhang0304.github.io/Stats_learning_trig/img/Stim/FN_002_g.png"",""time"":1361.2999999821186},{""stimulus"":""blank"",""time"":1668.9000000059605},{""stimulus"":""https://ziweizhang0304.github.io/Stats_learning_trig/img/Stim/FN_021_g.png"",""time"":1700.7999999821186},{""stimulus"":""blank"",""time"":2009},{""stimulus"":""https://ziweizhang0304.github.io/Stats_learning_trig/img/Stim/FN_008_g.png"",""time"":2040.7999999821186},{""stimulus"":""blank"",""time"":2349.9000000059605},{""stimulus"":""https://ziweizhang0304.github.io/Stats_learning_trig/img/Stim/FN_007_g.png"",""time"":2380.699999988079},{""stimulus"":""blank"",""time"":2687.199999988079},{""stimulus"":""https://ziweizhang0304.github.io/Stats_learning_trig/img/Stim/FN_016_g.png"",""time"":2721.4000000059605},{""stimulus"":""blank"",""time"":3026.699999988079},{""stimulus"":""https://ziweizhang0304.github.io/Stats_learning_trig/img/Stim/FN_004_g.png"",""time"":3061.5999999940395},{""stimulus"":""blank"",""time"":3366.699999988079},{""stimulus"":""https://ziweizhang0304.github.io/Stats_learning_trig/img/Stim/FN_005_g.png"",""time"":3402},{""stimulus"":""blank"",""time"":3709.4000000059605},{""stimulus"":""https://ziweizhang0304.github.io/Stats_learning_trig/img/Stim/FN_011_g.png"",""time"":3742.5},{""stimulus"":""blank"",""time"":4051.5},{""stimulus"":""https://ziweizhang0304.github.io/Stats_learning_trig/img/Stim/FN_020_g.png"",""time"":4081.699999988079},{""stimulus"":""blank"",""time"":4388.799999982119}]","[{""key_press"":32,""rt"":3063,""stimulus"":""https://ziweizhang0304.github.io/Stats_learning_trig/img/Stim/FN_004_g.png""}]","682.3000000119209","https://ziweizhang0304.github.io/Stats_learning_trig/img/Stim/FN_007_g.png","post_TD","13","2380.699999988079","3063","fast","7","2","60d897f8e73f969d51282445","","","","","",""
"","image-keyboard-response","39","190171","0.0-5.0-13.0-0.0","1418.300000011921","","","https://ziweizhang0304.github.io/Stats_learning_trig/img/Stim/FN_016_g.png","13","","","","","","","","","","","","","","","","","",""
"","animation","40","194592","0.0-5.0-13.0-1.0","","","","","","[{""stimulus"":""https://ziweizhang0304.github.io/Stats_learning_trig/img/Stim/FN_011_g.png"",""time"":347.80000001192093},{""stimulus"":""blank"",""time"":654.4000000059605},{""stimulus"":""https://ziweizhang0304.github.io/Stats_learning_trig/img/Stim/FN_024_g.png"",""time"":682},{""stimulus"":""blank"",""time"":989.9000000059605},{""stimulus"":""https://ziweizhang0304.github.io/Stats_learning_trig/img/Stim/FN_004_g.png"",""time"":1029.9000000059605},{""stimulus"":""blank"",""time"":1338},{""stimulus"":""https://ziweizhang0304.github.io/Stats_learning_trig/img/Stim/FN_008_g.png"",""time"":1361.4000000059605},{""stimulus"":""blank"",""time"":1665.699999988079},{""stimulus"":""https://ziweizhang0304.github.io/Stats_learning_trig/img/Stim/FN_007_g.png"",""time"":1701.800000011921},{""stimulus"":""blank"",""time"":2006.4000000059605},{""stimulus"":""https://ziweizhang0304.github.io/Stats_learning_trig/img/Stim/FN_016_g.png"",""time"":2040.9000000059605},{""stimulus"":""blank"",""time"":2343.4000000059605},{""stimulus"":""https://ziweizhang0304.github.io/Stats_learning_trig/img/Stim/FN_015_g.png"",""time"":2381.9000000059605},{""stimulus"":""blank"",""time"":2685.4000000059605},{""stimulus"":""https://ziweizhang0304.github.io/Stats_learning_trig/img/Stim/FN_005_g.png"",""time"":2721.4000000059605},{""stimulus"":""blank"",""time"":3028.5999999940395},{""stimulus"":""https://ziweizhang0304.github.io/Stats_learning_trig/img/Stim/FN_020_g.png"",""time"":3063.0999999940395},{""stimulus"":""blank"",""time"":3373.0999999940395},{""stimulus"":""https://ziweizhang0304.github.io/Stats_learning_trig/img/Stim/FN_002_g.png"",""time"":3401},{""stimulus"":""blank"",""time"":3702.9000000059605},{""stimulus"":""https://ziweizhang0304.github.io/Stats_learning_trig/img/Stim/FN_021_g.png"",""time"":3740.800000011921},{""stimulus"":""blank"",""time"":4043.800000011921},{""stimulus"":""https://ziweizhang0304.github.io/Stats_learning_trig/img/Stim/FN_014_g.png"",""time"":4081},{""stimulus"":""blank"",""time"":4386.4000000059605}]","[{""key_press"":32,""rt"":2519.5,""stimulus"":""https://ziweizhang0304.github.io/Stats_learning_trig/img/Stim/FN_015_g.png""}]","478.59999999403954","https://ziweizhang0304.github.io/Stats_learning_trig/img/Stim/FN_016_g.png","post_TD","14","2040.9000000059605","2519.5","fast","6","3","60d897f8e73f969d51282445","","","","","",""
"","image-keyboard-response","41","196067","0.0-5.0-14.0-0.0","1473.7999999821186","","","https://ziweizhang0304.github.io/Stats_learning_trig/img/Stim/FN_017_g.png","13","","","","","","","","","","","","","","","","","",""
"","animation","42","200488","0.0-5.0-14.0-1.0","","","","","","[{""stimulus"":""https://ziweizhang0304.github.io/Stats_learning_trig/img/Stim/FN_021_g.png"",""time"":350.19999998807907},{""stimulus"":""blank"",""time"":652.5},{""stimulus"":""https://ziweizhang0304.github.io/Stats_learning_trig/img/Stim/FN_011_g.png"",""time"":680.7999999821186},{""stimulus"":""blank"",""time"":990.5999999940395},{""stimulus"":""https://ziweizhang0304.github.io/Stats_learning_trig/img/Stim/FN_004_g.png"",""time"":1022.0999999940395},{""stimulus"":""blank"",""time"":1323.199999988079},{""stimulus"":""https://ziweizhang0304.github.io/Stats_learning_trig/img/Stim/FN_024_g.png"",""time"":1361.0999999940395},{""stimulus"":""blank"",""time"":1667.4000000059605},{""stimulus"":""https://ziweizhang0304.github.io/Stats_learning_trig/img/Stim/FN_014_g.png"",""time"":1701.699999988079},{""stimulus"":""blank"",""time"":2006.2999999821186},{""stimulus"":""https://ziweizhang0304.github.io/Stats_learning_trig/img/Stim/FN_002_g.png"",""time"":2041.7999999821186},{""stimulus"":""blank"",""time"":2347.0999999940395},{""stimulus"":""https://ziweizhang0304.github.io/Stats_learning_trig/img/Stim/FN_010_g.png"",""time"":2384.199999988079},{""stimulus"":""blank"",""time"":2691.4000000059605},{""stimulus"":""https://ziweizhang0304.github.io/Stats_learning_trig/img/Stim/FN_019_g.png"",""time"":2721.2999999821186},{""stimulus"":""blank"",""time"":3024.4000000059605},{""stimulus"":""https://ziweizhang0304.github.io/Stats_learning_trig/img/Stim/FN_017_g.png"",""time"":3060.2999999821186},{""stimulus"":""blank"",""time"":3366.7999999821186},{""stimulus"":""https://ziweizhang0304.github.io/Stats_learning_trig/img/Stim/FN_015_g.png"",""time"":3400.4000000059605},{""stimulus"":""blank"",""time"":3707.9000000059605},{""stimulus"":""https://ziweizhang0304.github.io/Stats_learning_trig/img/Stim/FN_005_g.png"",""time"":3742.0999999940395},{""stimulus"":""blank"",""time"":4046.2999999821186},{""stimulus"":""https://ziweizhang0304.github.io/Stats_learning_trig/img/Stim/FN_020_g.png"",""time"":4080.9000000059605},{""stimulus"":""blank"",""time"":4388.699999988079}]","[{""key_press"":32,""rt"":3519.699999988079,""stimulus"":""https://ziweizhang0304.github.io/Stats_learning_trig/img/Stim/FN_015_g.png""}]","459.40000000596046","https://ziweizhang0304.github.io/Stats_learning_trig/img/Stim/FN_017_g.png","post_TD","15","3060.2999999821186","3519.699999988079","slow","9","3","60d897f8e73f969d51282445","","","","","",""
"","image-keyboard-response","43","201579","0.0-5.0-15.0-0.0","1090.2999999821186","","","https://ziweizhang0304.github.io/Stats_learning_trig/img/Stim/FN_008_g.png","13","","","","","","","","","","","","","","","","","",""
"","animation","44","205999","0.0-5.0-15.0-1.0","","","","","","[{""stimulus"":""https://ziweizhang0304.github.io/Stats_learning_trig/img/Stim/FN_005_g.png"",""time"":348.90000000596046},{""stimulus"":""blank"",""time"":655.4000000059605},{""stimulus"":""https://ziweizhang0304.github.io/Stats_learning_trig/img/Stim/FN_024_g.png"",""time"":681.9000000059605},{""stimulus"":""blank"",""time"":986.0999999940395},{""stimulus"":""https://ziweizhang0304.github.io/Stats_learning_trig/img/Stim/FN_021_g.png"",""time"":1021.0999999940395},{""stimulus"":""blank"",""time"":1322.0999999940395},{""stimulus"":""https://ziweizhang0304.github.io/Stats_learning_trig/img/Stim/FN_002_g.png"",""time"":1361.800000011921},{""stimulus"":""blank"",""time"":1669.5},{""stimulus"":""https://ziweizhang0304.github.io/Stats_learning_trig/img/Stim/FN_008_g.png"",""time"":1701.5},{""stimulus"":""blank"",""time"":2011.0999999940395},{""stimulus"":""https://ziweizhang0304.github.io/Stats_learning_trig/img/Stim/FN_007_g.png"",""time"":2040.4000000059605},{""stimulus"":""blank"",""time"":2341.7000000178814},{""stimulus"":""https://ziweizhang0304.github.io/Stats_learning_trig/img/Stim/FN_016_g.png"",""time"":2383.7000000178814},{""stimulus"":""blank"",""time"":2691.300000011921},{""stimulus"":""https://ziweizhang0304.github.io/Stats_learning_trig/img/Stim/FN_015_g.png"",""time"":2721.7000000178814},{""stimulus"":""blank"",""time"":3030.0999999940395},{""stimulus"":""https://ziweizhang0304.github.io/Stats_learning_trig/img/Stim/FN_004_g.png"",""time"":3061.2000000178814},{""stimulus"":""blank"",""time"":3362.5},{""stimulus"":""https://ziweizhang0304.github.io/Stats_learning_trig/img/Stim/FN_011_g.png"",""time"":3402.2000000178814},{""stimulus"":""blank"",""time"":3710.5999999940395},{""stimulus"":""https://ziweizhang0304.github.io/Stats_learning_trig/img/Stim/FN_020_g.png"",""time"":3740.2000000178814},{""stimulus"":""blank"",""time"":4049.5999999940395},{""stimulus"":""https://ziweizhang0304.github.io/Stats_learning_trig/img/Stim/FN_014_g.png"",""time"":4081.2000000178814},{""stimulus"":""blank"",""time"":4382.300000011921}]","[{""key_press"":32,""rt"":2247.5,""stimulus"":""https://ziweizhang0304.github.io/Stats_learning_trig/img/Stim/FN_007_g.png""}]","546","https://ziweizhang0304.github.io/Stats_learning_trig/img/Stim/FN_008_g.png","post_TD","16","1701.5","2247.5","fast","5","1","60d897f8e73f969d51282445","","","","","",""
"","image-keyboard-response","45","207899","0.0-5.0-16.0-0.0","1898.4000000059605","","","https://ziweizhang0304.github.io/Stats_learning_trig/img/Stim/FN_007_g.png","13","","","","","","","","","","","","","","","","","",""
"","animation","46","212320","0.0-5.0-16.0-1.0","","","","","","[{""stimulus"":""https://ziweizhang0304.github.io/Stats_learning_trig/img/Stim/FN_011_g.png"",""time"":346.09999999403954},{""stimulus"":""blank"",""time"":653.1999999880791},{""stimulus"":""https://ziweizhang0304.github.io/Stats_learning_trig/img/Stim/FN_024_g.png"",""time"":682.0999999940395},{""stimulus"":""blank"",""time"":988.2999999821186},{""stimulus"":""https://ziweizhang0304.github.io/Stats_learning_trig/img/Stim/FN_004_g.png"",""time"":1021.2999999821186},{""stimulus"":""blank"",""time"":1330.4000000059605},{""stimulus"":""https://ziweizhang0304.github.io/Stats_learning_trig/img/Stim/FN_008_g.png"",""time"":1368.7999999821186},{""stimulus"":""blank"",""time"":1675.5999999940395},{""stimulus"":""https://ziweizhang0304.github.io/Stats_learning_trig/img/Stim/FN_007_g.png"",""time"":1701.199999988079},{""stimulus"":""blank"",""time"":2002.4000000059605},{""stimulus"":""https://ziweizhang0304.github.io/Stats_learning_trig/img/Stim/FN_016_g.png"",""time"":2041.7999999821186},{""stimulus"":""blank"",""time"":2346.7999999821186},{""stimulus"":""https://ziweizhang0304.github.io/Stats_learning_trig/img/Stim/FN_015_g.png"",""time"":2381.4000000059605},{""stimulus"":""blank"",""time"":2682.0999999940395},{""stimulus"":""https://ziweizhang0304.github.io/Stats_learning_trig/img/Stim/FN_005_g.png"",""time"":2720.7999999821186},{""stimulus"":""blank"",""time"":3027},{""stimulus"":""https://ziweizhang0304.github.io/Stats_learning_trig/img/Stim/FN_020_g.png"",""time"":3060.699999988079},{""stimulus"":""blank"",""time"":3363.699999988079},{""stimulus"":""https://ziweizhang0304.github.io/Stats_learning_trig/img/Stim/FN_002_g.png"",""time"":3400.5999999940395},{""stimulus"":""blank"",""time"":3706.0999999940395},{""stimulus"":""https://ziweizhang0304.github.io/Stats_learning_trig/img/Stim/FN_021_g.png"",""time"":3741.5},{""stimulus"":""blank"",""time"":4048.4000000059605},{""stimulus"":""https://ziweizhang0304.github.io/Stats_learning_trig/img/Stim/FN_014_g.png"",""time"":4081.2999999821186},{""stimulus"":""blank"",""time"":4384.699999988079}]","[{""key_press"":32,""rt"":2151.300000011921,""stimulus"":""https://ziweizhang0304.github.io/Stats_learning_trig/img/Stim/FN_016_g.png""}]","450.10000002384186","https://ziweizhang0304.github.io/Stats_learning_trig/img/Stim/FN_007_g.png","post_TD","17","1701.199999988079","2151.300000011921","fast","5","2","60d897f8e73f969d51282445","","","","","",""
"","image-keyboard-response","47","214379","0.0-5.0-17.0-0.0","2058.600000023842","","","https://ziweizhang0304.github.io/Stats_learning_trig/img/Stim/FN_017_g.png","13","","","","","","","","","","","","","","","","","",""
"","animation","48","218800","0.0-5.0-17.0-1.0","","","","","","[{""stimulus"":""https://ziweizhang0304.github.io/Stats_learning_trig/img/Stim/FN_005_g.png"",""time"":347.5},{""stimulus"":""blank"",""time"":648.9000000059605},{""stimulus"":""https://ziweizhang0304.github.io/Stats_learning_trig/img/Stim/FN_024_g.png"",""time"":681.5},{""stimulus"":""blank"",""time"":988.2000000178814},{""stimulus"":""https://ziweizhang0304.github.io/Stats_learning_trig/img/Stim/FN_020_g.png"",""time"":1021.1000000238419},{""stimulus"":""blank"",""time"":1330.1000000238419},{""stimulus"":""https://ziweizhang0304.github.io/Stats_learning_trig/img/Stim/FN_014_g.png"",""time"":1361.6000000238419},{""stimulus"":""blank"",""time"":1664.7000000178814},{""stimulus"":""https://ziweizhang0304.github.io/Stats_learning_trig/img/Stim/FN_010_g.png"",""time"":1701.2000000178814},{""stimulus"":""blank"",""time"":2005},{""stimulus"":""https://ziweizhang0304.github.io/Stats_learning_trig/img/Stim/FN_019_g.png"",""time"":2040.800000011921},{""stimulus"":""blank"",""time"":2344.9000000059605},{""stimulus"":""https://ziweizhang0304.github.io/Stats_learning_trig/img/Stim/FN_017_g.png"",""time"":2381.800000011921},{""stimulus"":""blank"",""time"":2687.2000000178814},{""stimulus"":""https://ziweizhang0304.github.io/Stats_learning_trig/img/Stim/FN_015_g.png"",""time"":2721},{""stimulus"":""blank"",""time"":3024.800000011921},{""stimulus"":""https://ziweizhang0304.github.io/Stats_learning_trig/img/Stim/FN_004_g.png"",""time"":3061.2000000178814},{""stimulus"":""blank"",""time"":3365.2000000178814},{""stimulus"":""https://ziweizhang0304.github.io/Stats_learning_trig/img/Stim/FN_011_g.png"",""time"":3401.100000023842},{""stimulus"":""blank"",""time"":3703.5},{""stimulus"":""https://ziweizhang0304.github.io/Stats_learning_trig/img/Stim/FN_002_g.png"",""time"":3740.9000000059605},{""stimulus"":""blank"",""time"":4042.2000000178814},{""stimulus"":""https://ziweizhang0304.github.io/Stats_learning_trig/img/Stim/FN_021_g.png"",""time"":4082.2000000178814},{""stimulus"":""blank"",""time"":4386.700000017881}]","[{""key_press"":32,""rt"":2839,""stimulus"":""https://ziweizhang0304.github.io/Stats_learning_trig/img/Stim/FN_015_g.png""}]","457.19999998807907","https://ziweizhang0304.github.io/Stats_learning_trig/img/Stim/FN_017_g.png","post_TD","18","2381.800000011921","2839","slow","7","3","60d897f8e73f969d51282445","","","","","",""
"","image-keyboard-response","49","220218","0.0-5.0-18.0-0.0","1417.7000000178814","","","https://ziweizhang0304.github.io/Stats_learning_trig/img/Stim/FN_007_g.png","13","","","","","","","","","","","","","","","","","",""
"","animation","50","224640","0.0-5.0-18.0-1.0","","","","","","[{""stimulus"":""https://ziweizhang0304.github.io/Stats_learning_trig/img/Stim/FN_005_g.png"",""time"":343.09999999403954},{""stimulus"":""blank"",""time"":650},{""stimulus"":""https://ziweizhang0304.github.io/Stats_learning_trig/img/Stim/FN_024_g.png"",""time"":682.4000000059605},{""stimulus"":""blank"",""time"":990.9000000059605},{""stimulus"":""https://ziweizhang0304.github.io/Stats_learning_trig/img/Stim/FN_021_g.png"",""time"":1020.7999999821186},{""stimulus"":""blank"",""time"":1326},{""stimulus"":""https://ziweizhang0304.github.io/Stats_learning_trig/img/Stim/FN_002_g.png"",""time"":1362},{""stimulus"":""blank"",""time"":1664.9000000059605},{""stimulus"":""https://ziweizhang0304.github.io/Stats_learning_trig/img/Stim/FN_008_g.png"",""time"":1701.5999999940395},{""stimulus"":""blank"",""time"":2004.9000000059605},{""stimulus"":""https://ziweizhang0304.github.io/Stats_learning_trig/img/Stim/FN_007_g.png"",""time"":2042.0999999940395},{""stimulus"":""blank"",""time"":2345},{""stimulus"":""https://ziweizhang0304.github.io/Stats_learning_trig/img/Stim/FN_016_g.png"",""time"":2381.199999988079},{""stimulus"":""blank"",""time"":2699.7999999821186},{""stimulus"":""https://ziweizhang0304.github.io/Stats_learning_trig/img/Stim/FN_015_g.png"",""time"":2721.5},{""stimulus"":""blank"",""time"":3031.0999999940395},{""stimulus"":""https://ziweizhang0304.github.io/Stats_learning_trig/img/Stim/FN_004_g.png"",""time"":3061.9000000059605},{""stimulus"":""blank"",""time"":3371.5},{""stimulus"":""https://ziweizhang0304.github.io/Stats_learning_trig/img/Stim/FN_011_g.png"",""time"":3400.5999999940395},{""stimulus"":""blank"",""time"":3701.7999999821186},{""stimulus"":""https://ziweizhang0304.github.io/Stats_learning_trig/img/Stim/FN_020_g.png"",""time"":3748.9000000059605},{""stimulus"":""blank"",""time"":4053.5},{""stimulus"":""https://ziweizhang0304.github.io/Stats_learning_trig/img/Stim/FN_014_g.png"",""time"":4080.7999999821186},{""stimulus"":""blank"",""time"":4384.5999999940395}]","[{""key_press"":32,""rt"":2551.2999999821186,""stimulus"":""https://ziweizhang0304.github.io/Stats_learning_trig/img/Stim/FN_016_g.png""}]","509.19999998807907","https://ziweizhang0304.github.io/Stats_learning_trig/img/Stim/FN_007_g.png","post_TD","19","2042.0999999940395","2551.2999999821186","fast","6","2","60d897f8e73f969d51282445","","","","","",""
"","image-keyboard-response","51","226073","0.0-5.0-19.0-0.0","1434","","","https://ziweizhang0304.github.io/Stats_learning_trig/img/Stim/FN_019_g.png","13","","","","","","","","","","","","","","","","","",""
"","animation","52","230495","0.0-5.0-19.0-1.0","","","","","","[{""stimulus"":""https://ziweizhang0304.github.io/Stats_learning_trig/img/Stim/FN_021_g.png"",""time"":342.5},{""stimulus"":""blank"",""time"":646.6999999880791},{""stimulus"":""https://ziweizhang0304.github.io/Stats_learning_trig/img/Stim/FN_011_g.png"",""time"":681.6999999880791},{""stimulus"":""blank"",""time"":984.0999999940395},{""stimulus"":""https://ziweizhang0304.github.io/Stats_learning_trig/img/Stim/FN_004_g.png"",""time"":1021.5999999940395},{""stimulus"":""blank"",""time"":1323.199999988079},{""stimulus"":""https://ziweizhang0304.github.io/Stats_learning_trig/img/Stim/FN_024_g.png"",""time"":1360.7999999821186},{""stimulus"":""blank"",""time"":1665},{""stimulus"":""https://ziweizhang0304.github.io/Stats_learning_trig/img/Stim/FN_014_g.png"",""time"":1700.699999988079},{""stimulus"":""blank"",""time"":2004},{""stimulus"":""https://ziweizhang0304.github.io/Stats_learning_trig/img/Stim/FN_002_g.png"",""time"":2041.699999988079},{""stimulus"":""blank"",""time"":2344.5},{""stimulus"":""https://ziweizhang0304.github.io/Stats_learning_trig/img/Stim/FN_010_g.png"",""time"":2381.699999988079},{""stimulus"":""blank"",""time"":2689.9000000059605},{""stimulus"":""https://ziweizhang0304.github.io/Stats_learning_trig/img/Stim/FN_019_g.png"",""time"":2721.7999999821186},{""stimulus"":""blank"",""time"":3023},{""stimulus"":""https://ziweizhang0304.github.io/Stats_learning_trig/img/Stim/FN_017_g.png"",""time"":3060.699999988079},{""stimulus"":""blank"",""time"":3370.0999999940395},{""stimulus"":""https://ziweizhang0304.github.io/Stats_learning_trig/img/Stim/FN_015_g.png"",""time"":3400.4000000059605},{""stimulus"":""blank"",""time"":3709.9000000059605},{""stimulus"":""https://ziweizhang0304.github.io/Stats_learning_trig/img/Stim/FN_005_g.png"",""time"":3740.7999999821186},{""stimulus"":""blank"",""time"":4049.5999999940395},{""stimulus"":""https://ziweizhang0304.github.io/Stats_learning_trig/img/Stim/FN_020_g.png"",""time"":4081.199999988079},{""stimulus"":""blank"",""time"":4390.0999999940395}]","[{""key_press"":32,""rt"":3199.199999988079,""stimulus"":""https://ziweizhang0304.github.io/Stats_learning_trig/img/Stim/FN_017_g.png""}]","477.40000000596046","https://ziweizhang0304.github.io/Stats_learning_trig/img/Stim/FN_019_g.png","post_TD","20","2721.7999999821186","3199.199999988079","slow","8","2","60d897f8e73f969d51282445","","","","","",""
"","image-keyboard-response","53","231736","0.0-5.0-20.0-0.0","1240.5","","","https://ziweizhang0304.github.io/Stats_learning_trig/img/Stim/FN_019_g.png","13","","","","","","","","","","","","","","","","","",""
"","animation","54","236159","0.0-5.0-20.0-1.0","","","","","","[{""stimulus"":""https://ziweizhang0304.github.io/Stats_learning_trig/img/Stim/FN_005_g.png"",""time"":342.60000002384186},{""stimulus"":""blank"",""time"":644.3000000119209},{""stimulus"":""https://ziweizhang0304.github.io/Stats_learning_trig/img/Stim/FN_024_g.png"",""time"":681.9000000059605},{""stimulus"":""blank"",""time"":985.8000000119209},{""stimulus"":""https://ziweizhang0304.github.io/Stats_learning_trig/img/Stim/FN_020_g.png"",""time"":1021.7000000178814},{""stimulus"":""blank"",""time"":1328},{""stimulus"":""https://ziweizhang0304.github.io/Stats_learning_trig/img/Stim/FN_014_g.png"",""time"":1360.800000011921},{""stimulus"":""blank"",""time"":1663.800000011921},{""stimulus"":""https://ziweizhang0304.github.io/Stats_learning_trig/img/Stim/FN_010_g.png"",""time"":1701.6000000238419},{""stimulus"":""blank"",""time"":2004.5},{""stimulus"":""https://ziweizhang0304.github.io/Stats_learning_trig/img/Stim/FN_019_g.png"",""time"":2040.800000011921},{""stimulus"":""blank"",""time"":2346.600000023842},{""stimulus"":""https://ziweizhang0304.github.io/Stats_learning_trig/img/Stim/FN_017_g.png"",""time"":2381.9000000059605},{""stimulus"":""blank"",""time"":2688.9000000059605},{""stimulus"":""https://ziweizhang0304.github.io/Stats_learning_trig/img/Stim/FN_015_g.png"",""time"":2721.9000000059605},{""stimulus"":""blank"",""time"":3028.100000023842},{""stimulus"":""https://ziweizhang0304.github.io/Stats_learning_trig/img/Stim/FN_004_g.png"",""time"":3061.300000011921},{""stimulus"":""blank"",""time"":3369.2000000178814},{""stimulus"":""https://ziweizhang0304.github.io/Stats_learning_trig/img/Stim/FN_011_g.png"",""time"":3401.800000011921},{""stimulus"":""blank"",""time"":3711.300000011921},{""stimulus"":""https://ziweizhang0304.github.io/Stats_learning_trig/img/Stim/FN_002_g.png"",""time"":3742.2000000178814},{""stimulus"":""blank"",""time"":4051.2000000178814},{""stimulus"":""https://ziweizhang0304.github.io/Stats_learning_trig/img/Stim/FN_021_g.png"",""time"":4080.800000011921},{""stimulus"":""blank"",""time"":4390.200000017881}]","[{""key_press"":32,""rt"":2526.7999999821186,""stimulus"":""https://ziweizhang0304.github.io/Stats_learning_trig/img/Stim/FN_017_g.png""}]","485.9999999701977","https://ziweizhang0304.github.io/Stats_learning_trig/img/Stim/FN_019_g.png","post_TD","21","2040.800000011921","2526.7999999821186","slow","6","2","60d897f8e73f969d51282445","","","","","",""
"","image-keyboard-response","55","237465","0.0-5.0-21.0-0.0","1305","","","https://ziweizhang0304.github.io/Stats_learning_trig/img/Stim/FN_008_g.png","13","","","","","","","","","","","","","","","","","",""
"","animation","56","241886","0.0-5.0-21.0-1.0","","","","","","[{""stimulus"":""https://ziweizhang0304.github.io/Stats_learning_trig/img/Stim/FN_014_g.png"",""time"":348},{""stimulus"":""blank"",""time"":652.9000000059605},{""stimulus"":""https://ziweizhang0304.github.io/Stats_learning_trig/img/Stim/FN_015_g.png"",""time"":681.2000000178814},{""stimulus"":""blank"",""time"":987},{""stimulus"":""https://ziweizhang0304.github.io/Stats_learning_trig/img/Stim/FN_024_g.png"",""time"":1021.1000000238419},{""stimulus"":""blank"",""time"":1331},{""stimulus"":""https://ziweizhang0304.github.io/Stats_learning_trig/img/Stim/FN_002_g.png"",""time"":1367.4000000059605},{""stimulus"":""blank"",""time"":1676.800000011921},{""stimulus"":""https://ziweizhang0304.github.io/Stats_learning_trig/img/Stim/FN_021_g.png"",""time"":1700.800000011921},{""stimulus"":""blank"",""time"":2014.6000000238419},{""stimulus"":""https://ziweizhang0304.github.io/Stats_learning_trig/img/Stim/FN_008_g.png"",""time"":2040.5},{""stimulus"":""blank"",""time"":2352.5},{""stimulus"":""https://ziweizhang0304.github.io/Stats_learning_trig/img/Stim/FN_007_g.png"",""time"":2380.600000023842},{""stimulus"":""blank"",""time"":2683.9000000059605},{""stimulus"":""https://ziweizhang0304.github.io/Stats_learning_trig/img/Stim/FN_016_g.png"",""time"":2721.800000011921},{""stimulus"":""blank"",""time"":3024.5},{""stimulus"":""https://ziweizhang0304.github.io/Stats_learning_trig/img/Stim/FN_004_g.png"",""time"":3060.800000011921},{""stimulus"":""blank"",""time"":3367.300000011921},{""stimulus"":""https://ziweizhang0304.github.io/Stats_learning_trig/img/Stim/FN_005_g.png"",""time"":3401.9000000059605},{""stimulus"":""blank"",""time"":3705.5},{""stimulus"":""https://ziweizhang0304.github.io/Stats_learning_trig/img/Stim/FN_011_g.png"",""time"":3740.5},{""stimulus"":""blank"",""time"":4042},{""stimulus"":""https://ziweizhang0304.github.io/Stats_learning_trig/img/Stim/FN_020_g.png"",""time"":4081},{""stimulus"":""blank"",""time"":4400.9000000059605}]","[{""key_press"":32,""rt"":2503.7999999821186,""stimulus"":""https://ziweizhang0304.github.io/Stats_learning_trig/img/Stim/FN_007_g.png""}]","463.2999999821186","https://ziweizhang0304.github.io/Stats_learning_trig/img/Stim/FN_008_g.png","post_TD","22","2040.5","2503.7999999821186","fast","6","1","60d897f8e73f969d51282445","","","","","",""
"","image-keyboard-response","57","243728","0.0-5.0-22.0-0.0","1841.5","","","https://ziweizhang0304.github.io/Stats_learning_trig/img/Stim/FN_017_g.png","13","","","","","","","","","","","","","","","","","",""
"","animation","58","248149","0.0-5.0-22.0-1.0","","","","","","[{""stimulus"":""https://ziweizhang0304.github.io/Stats_learning_trig/img/Stim/FN_015_g.png"",""time"":350.90000000596046},{""stimulus"":""blank"",""time"":669.0999999940395},{""stimulus"":""https://ziweizhang0304.github.io/Stats_learning_trig/img/Stim/FN_002_g.png"",""time"":680.9000000059605},{""stimulus"":""blank"",""time"":989.3000000119209},{""stimulus"":""https://ziweizhang0304.github.io/Stats_learning_trig/img/Stim/FN_005_g.png"",""time"":1022.1999999880791},{""stimulus"":""blank"",""time"":1329.5},{""stimulus"":""https://ziweizhang0304.github.io/Stats_learning_trig/img/Stim/FN_010_g.png"",""time"":1361.5},{""stimulus"":""blank"",""time"":1669.4000000059605},{""stimulus"":""https://ziweizhang0304.github.io/Stats_learning_trig/img/Stim/FN_019_g.png"",""time"":1700.9000000059605},{""stimulus"":""blank"",""time"":2010.9000000059605},{""stimulus"":""https://ziweizhang0304.github.io/Stats_learning_trig/img/Stim/FN_017_g.png"",""time"":2040.699999988079},{""stimulus"":""blank"",""time"":2348.4000000059605},{""stimulus"":""https://ziweizhang0304.github.io/Stats_learning_trig/img/Stim/FN_004_g.png"",""time"":2380.5999999940395},{""stimulus"":""blank"",""time"":2687.199999988079},{""stimulus"":""https://ziweizhang0304.github.io/Stats_learning_trig/img/Stim/FN_011_g.png"",""time"":2722.0999999940395},{""stimulus"":""blank"",""time"":3029.800000011921},{""stimulus"":""https://ziweizhang0304.github.io/Stats_learning_trig/img/Stim/FN_020_g.png"",""time"":3061.699999988079},{""stimulus"":""blank"",""time"":3371.699999988079},{""stimulus"":""https://ziweizhang0304.github.io/Stats_learning_trig/img/Stim/FN_021_g.png"",""time"":3400.5},{""stimulus"":""blank"",""time"":3706.300000011921},{""stimulus"":""https://ziweizhang0304.github.io/Stats_learning_trig/img/Stim/FN_024_g.png"",""time"":3742.199999988079},{""stimulus"":""blank"",""time"":4045.199999988079},{""stimulus"":""https://ziweizhang0304.github.io/Stats_learning_trig/img/Stim/FN_014_g.png"",""time"":4080.699999988079},{""stimulus"":""blank"",""time"":4386.9000000059605}]","[{""key_press"":32,""rt"":2479.5999999940395,""stimulus"":""https://ziweizhang0304.github.io/Stats_learning_trig/img/Stim/FN_004_g.png""}]","438.90000000596046","https://ziweizhang0304.github.io/Stats_learning_trig/img/Stim/FN_017_g.png","post_TD","23","2040.699999988079","2479.5999999940395","slow","6","3","60d897f8e73f969d51282445","","","","","",""
"","image-keyboard-response","59","249288","0.0-5.0-23.0-0.0","1138.0999999940395","","","https://ziweizhang0304.github.io/Stats_learning_trig/img/Stim/FN_019_g.png","13","","","","","","","","","","","","","","","","","",""
"","animation","60","253710","0.0-5.0-23.0-1.0","","","","","","[{""stimulus"":""https://ziweizhang0304.github.io/Stats_learning_trig/img/Stim/FN_015_g.png"",""time"":343.59999999403954},{""stimulus"":""blank"",""time"":645.4000000059605},{""stimulus"":""https://ziweizhang0304.github.io/Stats_learning_trig/img/Stim/FN_002_g.png"",""time"":680.7999999821186},{""stimulus"":""blank"",""time"":986.9000000059605},{""stimulus"":""https://ziweizhang0304.github.io/Stats_learning_trig/img/Stim/FN_005_g.png"",""time"":1020.5999999940395},{""stimulus"":""blank"",""time"":1325.2999999821186},{""stimulus"":""https://ziweizhang0304.github.io/Stats_learning_trig/img/Stim/FN_010_g.png"",""time"":1361.9000000059605},{""stimulus"":""blank"",""time"":1662.7999999821186},{""stimulus"":""https://ziweizhang0304.github.io/Stats_learning_trig/img/Stim/FN_019_g.png"",""time"":1710.5999999940395},{""stimulus"":""blank"",""time"":2013.4000000059605},{""stimulus"":""https://ziweizhang0304.github.io/Stats_learning_trig/img/Stim/FN_017_g.png"",""time"":2040.4000000059605},{""stimulus"":""blank"",""time"":2343.5999999940395},{""stimulus"":""https://ziweizhang0304.github.io/Stats_learning_trig/img/Stim/FN_004_g.png"",""time"":2381.5},{""stimulus"":""blank"",""time"":2681.7999999821186},{""stimulus"":""https://ziweizhang0304.github.io/Stats_learning_trig/img/Stim/FN_011_g.png"",""time"":2722.199999988079},{""stimulus"":""blank"",""time"":3026.199999988079},{""stimulus"":""https://ziweizhang0304.github.io/Stats_learning_trig/img/Stim/FN_020_g.png"",""time"":3061},{""stimulus"":""blank"",""time"":3365.5999999940395},{""stimulus"":""https://ziweizhang0304.github.io/Stats_learning_trig/img/Stim/FN_021_g.png"",""time"":3401.0999999940395},{""stimulus"":""blank"",""time"":3701.7999999821186},{""stimulus"":""https://ziweizhang0304.github.io/Stats_learning_trig/img/Stim/FN_024_g.png"",""time"":3741.7999999821186},{""stimulus"":""blank"",""time"":4051.699999988079},{""stimulus"":""https://ziweizhang0304.github.io/Stats_learning_trig/img/Stim/FN_014_g.png"",""time"":4080.5999999940395},{""stimulus"":""blank"",""time"":4388.4000000059605}]","[{""key_press"":32,""rt"":2183.800000011921,""stimulus"":""https://ziweizhang0304.github.io/Stats_learning_trig/img/Stim/FN_017_g.png""}]","473.2000000178814","https://ziweizhang0304.github.io/Stats_learning_trig/img/Stim/FN_019_g.png","post_TD","24","1710.5999999940395","2183.800000011921","slow","5","2","60d897f8e73f969d51282445","cd759","","","","",""
"","survey-text","61","292567","0.0-6.0","38848.09999999404","","","","","","","","","","","","","","","","","","{""Q0"":""on shapes that were similar to others I had to wait longer ""}","","","",""
"","survey-text","62","319871","0.0-7.0","27302.69999998808","","","","","","","","","","","","","","","","","","{""[object Object]"":""some were similar to others and some were pretty unique\n""}","","","",""
"","instructions","63","332505","0.0-8.0","12633.40000000596","","[{""page_index"":0,""viewing_time"":12633.09999999404}]","","","","","","","","","","","","","","","","","","","",""
"","free-sort","64","354746","0.0-9.0","22241","","","","","","","","","post_drag","","","","fast","","","","","","[{""src"":""https://ziweizhang0304.github.io/Stats_learning_trig/img/Stim/FN_016_g.png"",""x"":475,""y"":0},{""src"":""https://ziweizhang0304.github.io/Stats_learning_trig/img/Stim/FN_007_g.png"",""x"":-225,""y"":50},{""src"":""https://ziweizhang0304.github.io/Stats_learning_trig/img/Stim/FN_008_g.png"",""x"":475,""y"":50}]","[{""src"":""https://ziweizhang0304.github.io/Stats_learning_trig/img/Stim/FN_008_g.png"",""x"":53,""y"":29},{""src"":""https://ziweizhang0304.github.io/Stats_learning_trig/img/Stim/FN_007_g.png"",""x"":146,""y"":53},{""src"":""https://ziweizhang0304.github.io/Stats_learning_trig/img/Stim/FN_007_g.png"",""x"":127,""y"":27},{""src"":""https://ziweizhang0304.github.io/Stats_learning_trig/img/Stim/FN_016_g.png"",""x"":205,""y"":15}]","[{""src"":""https://ziweizhang0304.github.io/Stats_learning_trig/img/Stim/FN_016_g.png"",""x"":205,""y"":15},{""src"":""https://ziweizhang0304.github.io/Stats_learning_trig/img/Stim/FN_007_g.png"",""x"":127,""y"":27},{""src"":""https://ziweizhang0304.github.io/Stats_learning_trig/img/Stim/FN_008_g.png"",""x"":53,""y"":29}]",""
"","free-sort","65","368505","0.0-10.0","13758.199999988079","","","","","","","","","post_drag","","","","slow","","","","","","[{""src"":""https://ziweizhang0304.github.io/Stats_learning_trig/img/Stim/FN_017_g.png"",""x"":475,""y"":0},{""src"":""https://ziweizhang0304.github.io/Stats_learning_trig/img/Stim/FN_010_g.png"",""x"":-225,""y"":50},{""src"":""https://ziweizhang0304.github.io/Stats_learning_trig/img/Stim/FN_019_g.png"",""x"":475,""y"":50}]","[{""src"":""https://ziweizhang0304.github.io/Stats_learning_trig/img/Stim/FN_019_g.png"",""x"":36,""y"":19},{""src"":""https://ziweizhang0304.github.io/Stats_learning_trig/img/Stim/FN_010_g.png"",""x"":154,""y"":25},{""src"":""https://ziweizhang0304.github.io/Stats_learning_trig/img/Stim/FN_017_g.png"",""x"":251,""y"":25},{""src"":""https://ziweizhang0304.github.io/Stats_learning_trig/img/Stim/FN_017_g.png"",""x"":235,""y"":19}]","[{""src"":""https://ziweizhang0304.github.io/Stats_learning_trig/img/Stim/FN_017_g.png"",""x"":235,""y"":19},{""src"":""https://ziweizhang0304.github.io/Stats_learning_trig/img/Stim/FN_010_g.png"",""x"":154,""y"":25},{""src"":""https://ziweizhang0304.github.io/Stats_learning_trig/img/Stim/FN_019_g.png"",""x"":36,""y"":19}]",""
"","survey-multi-choice","66","380858","0.0-11.0","12350.799999982119","","","","","","","","","","","","","","","","60d897f8e73f969d51282445","","{""awareness"":""No"",""attention_check"":""Press SPACEBAR to a target""}","","","","[0,1]"
