"success","trial_type","trial_index","time_elapsed","internal_node_id","rt","url","view_history","stimulus","key_press","animation_sequence","response","TD_rt","TD_target","test_part","TD_trial_number","onset","offset","attention_state","TD_target_position","TD_within_triplet_counter","participant","yoke_participant","responses","init_locations","moves","final_locations","question_order"
"true","fullscreen","0","9424","0.0-0.0","","","","","","","","","","","","","","","","","","","","","","",""
"","external-html","1","22402","0.0-1.0","12895.599999964237","https://ziweizhang0304.github.io/Stats_learning_trig/content/consent.html","","","","","","","","","","","","","","","","","","","","",""
"","instructions","2","75100","0.0-2.0","52695.89999997616","","[{""page_index"":0,""viewing_time"":3658.2999999523163},{""page_index"":1,""viewing_time"":32874},{""page_index"":2,""viewing_time"":13438.200000047684},{""page_index"":3,""viewing_time"":2724.699999988079}]","","","","","","","","","","","","","","","","","","","",""
"","image-keyboard-response","3","83476","0.0-3.0-0.0-0.0","8374.300000011921","","","https://ziweizhang0304.github.io/Stats_learning_trig/img/Stim/FN_004_g.png","13","","","","","","","","","","","","","","","","","",""
"","animation","4","87910","0.0-3.0-0.0-1.0","","","","","","[{""stimulus"":""https://ziweizhang0304.github.io/Stats_learning_trig/img/Stim/FN_018_g.png"",""time"":354},{""stimulus"":""blank"",""time"":666.3999999761581},{""stimulus"":""https://ziweizhang0304.github.io/Stats_learning_trig/img/Stim/FN_022_g.png"",""time"":681.5},{""stimulus"":""blank"",""time"":985.3000000119209},{""stimulus"":""https://ziweizhang0304.github.io/Stats_learning_trig/img/Stim/FN_005_g.png"",""time"":1021},{""stimulus"":""blank"",""time"":1321.5},{""stimulus"":""https://ziweizhang0304.github.io/Stats_learning_trig/img/Stim/FN_023_g.png"",""time"":1369.699999988079},{""stimulus"":""blank"",""time"":1673.5},{""stimulus"":""https://ziweizhang0304.github.io/Stats_learning_trig/img/Stim/FN_004_g.png"",""time"":1700.699999988079},{""stimulus"":""blank"",""time"":2009.6000000238419},{""stimulus"":""https://ziweizhang0304.github.io/Stats_learning_trig/img/Stim/FN_007_g.png"",""time"":2040.8999999761581},{""stimulus"":""blank"",""time"":2343.699999988079},{""stimulus"":""https://ziweizhang0304.github.io/Stats_learning_trig/img/Stim/FN_015_g.png"",""time"":2392},{""stimulus"":""blank"",""time"":2693.699999988079},{""stimulus"":""https://ziweizhang0304.github.io/Stats_learning_trig/img/Stim/FN_010_g.png"",""time"":2721},{""stimulus"":""blank"",""time"":3027.199999988079},{""stimulus"":""https://ziweizhang0304.github.io/Stats_learning_trig/img/Stim/FN_002_g.png"",""time"":3074.600000023842},{""stimulus"":""blank"",""time"":3377.399999976158},{""stimulus"":""https://ziweizhang0304.github.io/Stats_learning_trig/img/Stim/FN_012_g.png"",""time"":3401.600000023842},{""stimulus"":""blank"",""time"":3712.399999976158},{""stimulus"":""https://ziweizhang0304.github.io/Stats_learning_trig/img/Stim/FN_016_g.png"",""time"":3744.699999988079},{""stimulus"":""blank"",""time"":4048.5},{""stimulus"":""https://ziweizhang0304.github.io/Stats_learning_trig/img/Stim/FN_008_g.png"",""time"":4080.899999976158},{""stimulus"":""blank"",""time"":4384.600000023842}]","[{""key_press"":32,""rt"":2173.300000011921,""stimulus"":""https://ziweizhang0304.github.io/Stats_learning_trig/img/Stim/FN_007_g.png""}]","472.60000002384186","https://ziweizhang0304.github.io/Stats_learning_trig/img/Stim/FN_004_g.png","post_prac","","","","","","","","","","","","",""
"","html-keyboard-response","5","93867","0.0-3.0-0.0-2.0","5952.800000011921","","","<p>Your reaction time for this trial was 472.6 ms.</p><p>Remember that you should only press the SPACEBAR when you see the shape presented at the beginning of the trial. </b> </p><p>Press enter to move on.</p>","13","","","","","","","","","","","","","","","","","",""
"","image-keyboard-response","6","99131","0.0-3.0-1.0-0.0","5263","","","https://ziweizhang0304.github.io/Stats_learning_trig/img/Stim/FN_015_g.png","13","","","","","","","","","","","","","","","","","",""
"","animation","7","103559","0.0-3.0-1.0-1.0","","","","","","[{""stimulus"":""https://ziweizhang0304.github.io/Stats_learning_trig/img/Stim/FN_012_g.png"",""time"":351.10000002384186},{""stimulus"":""blank"",""time"":652.8000000119209},{""stimulus"":""https://ziweizhang0304.github.io/Stats_learning_trig/img/Stim/FN_007_g.png"",""time"":681.1999999880791},{""stimulus"":""blank"",""time"":986.8999999761581},{""stimulus"":""https://ziweizhang0304.github.io/Stats_learning_trig/img/Stim/FN_010_g.png"",""time"":1021.1000000238419},{""stimulus"":""blank"",""time"":1321.8999999761581},{""stimulus"":""https://ziweizhang0304.github.io/Stats_learning_trig/img/Stim/FN_002_g.png"",""time"":1370.199999988079},{""stimulus"":""blank"",""time"":1674},{""stimulus"":""https://ziweizhang0304.github.io/Stats_learning_trig/img/Stim/FN_023_g.png"",""time"":1701.199999988079},{""stimulus"":""blank"",""time"":2009},{""stimulus"":""https://ziweizhang0304.github.io/Stats_learning_trig/img/Stim/FN_015_g.png"",""time"":2041.300000011921},{""stimulus"":""blank"",""time"":2344.100000023842},{""stimulus"":""https://ziweizhang0304.github.io/Stats_learning_trig/img/Stim/FN_018_g.png"",""time"":2392.399999976158},{""stimulus"":""blank"",""time"":2694.300000011921},{""stimulus"":""https://ziweizhang0304.github.io/Stats_learning_trig/img/Stim/FN_004_g.png"",""time"":2726.5},{""stimulus"":""blank"",""time"":3027.300000011921},{""stimulus"":""https://ziweizhang0304.github.io/Stats_learning_trig/img/Stim/FN_008_g.png"",""time"":3060.5},{""stimulus"":""blank"",""time"":3376.399999976158},{""stimulus"":""https://ziweizhang0304.github.io/Stats_learning_trig/img/Stim/FN_022_g.png"",""time"":3400.600000023842},{""stimulus"":""blank"",""time"":3709.5},{""stimulus"":""https://ziweizhang0304.github.io/Stats_learning_trig/img/Stim/FN_016_g.png"",""time"":3740.699999988079},{""stimulus"":""blank"",""time"":4044.5},{""stimulus"":""https://ziweizhang0304.github.io/Stats_learning_trig/img/Stim/FN_005_g.png"",""time"":4092.800000011921},{""stimulus"":""blank"",""time"":4395.5}]","[{""key_press"":32,""rt"":2406.900000035763,""stimulus"":""https://ziweizhang0304.github.io/Stats_learning_trig/img/Stim/FN_018_g.png""}]","365.60000002384186","https://ziweizhang0304.github.io/Stats_learning_trig/img/Stim/FN_015_g.png","post_prac","","","","","","","","","","","","",""
"","html-keyboard-response","8","106819","0.0-3.0-1.0-2.0","3258.5","","","<p>Your reaction time for this trial was 365.6 ms.</p><p>Remember that you should only press the SPACEBAR when you see the shape presented at the beginning of the trial. </b> </p><p>Press enter to move on.</p>","13","","","","","","","","","","","","","","","","","",""
"","image-keyboard-response","9","111403","0.0-3.0-2.0-0.0","4582.800000011921","","","https://ziweizhang0304.github.io/Stats_learning_trig/img/Stim/FN_015_g.png","13","","","","","","","","","","","","","","","","","",""
"","animation","10","115824","0.0-3.0-2.0-1.0","","","","","","[{""stimulus"":""https://ziweizhang0304.github.io/Stats_learning_trig/img/Stim/FN_012_g.png"",""time"":351.60000002384186},{""stimulus"":""blank"",""time"":655.1000000238419},{""stimulus"":""https://ziweizhang0304.github.io/Stats_learning_trig/img/Stim/FN_005_g.png"",""time"":681.1999999880791},{""stimulus"":""blank"",""time"":990.1999999880791},{""stimulus"":""https://ziweizhang0304.github.io/Stats_learning_trig/img/Stim/FN_002_g.png"",""time"":1021.3999999761581},{""stimulus"":""blank"",""time"":1323.199999988079},{""stimulus"":""https://ziweizhang0304.github.io/Stats_learning_trig/img/Stim/FN_016_g.png"",""time"":1370.6000000238419},{""stimulus"":""blank"",""time"":1670.699999988079},{""stimulus"":""https://ziweizhang0304.github.io/Stats_learning_trig/img/Stim/FN_023_g.png"",""time"":1702.1000000238419},{""stimulus"":""blank"",""time"":2006},{""stimulus"":""https://ziweizhang0304.github.io/Stats_learning_trig/img/Stim/FN_008_g.png"",""time"":2054.199999988079},{""stimulus"":""blank"",""time"":2355},{""stimulus"":""https://ziweizhang0304.github.io/Stats_learning_trig/img/Stim/FN_015_g.png"",""time"":2381.199999988079},{""stimulus"":""blank"",""time"":2691.100000023842},{""stimulus"":""https://ziweizhang0304.github.io/Stats_learning_trig/img/Stim/FN_018_g.png"",""time"":2721.199999988079},{""stimulus"":""blank"",""time"":3026},{""stimulus"":""https://ziweizhang0304.github.io/Stats_learning_trig/img/Stim/FN_004_g.png"",""time"":3074.399999976158},{""stimulus"":""blank"",""time"":3377.199999988079},{""stimulus"":""https://ziweizhang0304.github.io/Stats_learning_trig/img/Stim/FN_007_g.png"",""time"":3400.399999976158},{""stimulus"":""blank"",""time"":3712.300000011921},{""stimulus"":""https://ziweizhang0304.github.io/Stats_learning_trig/img/Stim/FN_022_g.png"",""time"":3740.5},{""stimulus"":""blank"",""time"":4044.300000011921},{""stimulus"":""https://ziweizhang0304.github.io/Stats_learning_trig/img/Stim/FN_010_g.png"",""time"":4080.5},{""stimulus"":""blank"",""time"":4395.399999976158}]","[{""key_press"":32,""rt"":2839,""stimulus"":""https://ziweizhang0304.github.io/Stats_learning_trig/img/Stim/FN_018_g.png""}]","457.80000001192093","https://ziweizhang0304.github.io/Stats_learning_trig/img/Stim/FN_015_g.png","post_prac","","","","","","","","","","","","",""
"","html-keyboard-response","11","118691","0.0-3.0-2.0-2.0","2865.400000035763","","","<p>Your reaction time for this trial was 457.8 ms.</p><p>Remember that you should only press the SPACEBAR when you see the shape presented at the beginning of the trial. </b> </p><p>Press enter to move on.</p>","13","","","","","","","","","","","","","","","","","",""
"","instructions","12","121562","0.0-4.0","2870.699999988079","","[{""page_index"":0,""viewing_time"":2870.5}]","","","","","","","","","","","","","","","","","","","",""
"","image-keyboard-response","13","125874","0.0-5.0-0.0-0.0","4311.800000011921","","","https://ziweizhang0304.github.io/Stats_learning_trig/img/Stim/FN_003_g.png","13","","","","","","","","","","","","","","","","","",""
"","animation","14","130296","0.0-5.0-0.0-1.0","","","","","","[{""stimulus"":""https://ziweizhang0304.github.io/Stats_learning_trig/img/Stim/FN_007_g.png"",""time"":353.10000002384186},{""stimulus"":""blank"",""time"":654.6000000238419},{""stimulus"":""https://ziweizhang0304.github.io/Stats_learning_trig/img/Stim/FN_002_g.png"",""time"":680.9000000357628},{""stimulus"":""blank"",""time"":988.8000000119209},{""stimulus"":""https://ziweizhang0304.github.io/Stats_learning_trig/img/Stim/FN_022_g.png"",""time"":1021.1000000238419},{""stimulus"":""blank"",""time"":1323.9000000357628},{""stimulus"":""https://ziweizhang0304.github.io/Stats_learning_trig/img/Stim/FN_023_g.png"",""time"":1372.1000000238419},{""stimulus"":""blank"",""time"":1674.9000000357628},{""stimulus"":""https://ziweizhang0304.github.io/Stats_learning_trig/img/Stim/FN_008_g.png"",""time"":1707.2000000476837},{""stimulus"":""blank"",""time"":2009.6000000238419},{""stimulus"":""https://ziweizhang0304.github.io/Stats_learning_trig/img/Stim/FN_003_g.png"",""time"":2041.800000011921},{""stimulus"":""blank"",""time"":2345.7000000476837},{""stimulus"":""https://ziweizhang0304.github.io/Stats_learning_trig/img/Stim/FN_009_g.png"",""time"":2394},{""stimulus"":""blank"",""time"":2697.600000023842},{""stimulus"":""https://ziweizhang0304.github.io/Stats_learning_trig/img/Stim/FN_019_g.png"",""time"":2730},{""stimulus"":""blank"",""time"":3033.800000011921},{""stimulus"":""https://ziweizhang0304.github.io/Stats_learning_trig/img/Stim/FN_012_g.png"",""time"":3060.900000035763},{""stimulus"":""blank"",""time"":3369.800000011921},{""stimulus"":""https://ziweizhang0304.github.io/Stats_learning_trig/img/Stim/FN_010_g.png"",""time"":3402},{""stimulus"":""blank"",""time"":3702.900000035763},{""stimulus"":""https://ziweizhang0304.github.io/Stats_learning_trig/img/Stim/FN_016_g.png"",""time"":3751.100000023842},{""stimulus"":""blank"",""time"":4067},{""stimulus"":""https://ziweizhang0304.github.io/Stats_learning_trig/img/Stim/FN_005_g.png"",""time"":4081.100000023842},{""stimulus"":""blank"",""time"":4384.100000023842}]","[{""key_press"":32,""rt"":2398.699999988079,""stimulus"":""https://ziweizhang0304.github.io/Stats_learning_trig/img/Stim/FN_009_g.png""}]","356.89999997615814","https://ziweizhang0304.github.io/Stats_learning_trig/img/Stim/FN_003_g.png","post_TD","1","2041.800000011921","2398.699999988079","slow","6","1","5eb24b26f30ede1a6ae46c14","","","","","",""
"","image-keyboard-response","15","136323","0.0-5.0-1.0-0.0","6024.5","","","https://ziweizhang0304.github.io/Stats_learning_trig/img/Stim/FN_009_g.png","13","","","","","","","","","","","","","","","","","",""
"","animation","16","140744","0.0-5.0-1.0-1.0","","","","","","[{""stimulus"":""https://ziweizhang0304.github.io/Stats_learning_trig/img/Stim/FN_023_g.png"",""time"":355.10000002384186},{""stimulus"":""blank"",""time"":657.6999999880791},{""stimulus"":""https://ziweizhang0304.github.io/Stats_learning_trig/img/Stim/FN_002_g.png"",""time"":681},{""stimulus"":""blank"",""time"":993.9000000357628},{""stimulus"":""https://ziweizhang0304.github.io/Stats_learning_trig/img/Stim/FN_010_g.png"",""time"":1021},{""stimulus"":""blank"",""time"":1329.9000000357628},{""stimulus"":""https://ziweizhang0304.github.io/Stats_learning_trig/img/Stim/FN_008_g.png"",""time"":1361.1000000238419},{""stimulus"":""blank"",""time"":1666},{""stimulus"":""https://ziweizhang0304.github.io/Stats_learning_trig/img/Stim/FN_003_g.png"",""time"":1714.300000011921},{""stimulus"":""blank"",""time"":2018.1000000238419},{""stimulus"":""https://ziweizhang0304.github.io/Stats_learning_trig/img/Stim/FN_009_g.png"",""time"":2041.300000011921},{""stimulus"":""blank"",""time"":2352.100000023842},{""stimulus"":""https://ziweizhang0304.github.io/Stats_learning_trig/img/Stim/FN_019_g.png"",""time"":2384.400000035763},{""stimulus"":""blank"",""time"":2687.300000011921},{""stimulus"":""https://ziweizhang0304.github.io/Stats_learning_trig/img/Stim/FN_007_g.png"",""time"":2735.600000023842},{""stimulus"":""blank"",""time"":3037.800000011921},{""stimulus"":""https://ziweizhang0304.github.io/Stats_learning_trig/img/Stim/FN_012_g.png"",""time"":3061.100000023842},{""stimulus"":""blank"",""time"":3372.800000011921},{""stimulus"":""https://ziweizhang0304.github.io/Stats_learning_trig/img/Stim/FN_022_g.png"",""time"":3405.199999988079},{""stimulus"":""blank"",""time"":3707.900000035763},{""stimulus"":""https://ziweizhang0304.github.io/Stats_learning_trig/img/Stim/FN_016_g.png"",""time"":3755.800000011921},{""stimulus"":""blank"",""time"":4058.600000023842},{""stimulus"":""https://ziweizhang0304.github.io/Stats_learning_trig/img/Stim/FN_005_g.png"",""time"":4090.900000035763},{""stimulus"":""blank"",""time"":4394.699999988079}]","[{""key_press"":32,""rt"":2406.699999988079,""stimulus"":""https://ziweizhang0304.github.io/Stats_learning_trig/img/Stim/FN_019_g.png""}]","365.39999997615814","https://ziweizhang0304.github.io/Stats_learning_trig/img/Stim/FN_009_g.png","post_TD","2","2041.300000011921","2406.699999988079","slow","6","2","5eb24b26f30ede1a6ae46c14","","","","","",""
"","image-keyboard-response","17","144282","0.0-5.0-2.0-0.0","3537.199999988079","","","https://ziweizhang0304.github.io/Stats_learning_trig/img/Stim/FN_018_g.png","13","","","","","","","","","","","","","","","","","",""
"","animation","18","148708","0.0-5.0-2.0-1.0","","","","","","[{""stimulus"":""https://ziweizhang0304.github.io/Stats_learning_trig/img/Stim/FN_002_g.png"",""time"":341.5},{""stimulus"":""blank"",""time"":642.5999999642372},{""stimulus"":""https://ziweizhang0304.github.io/Stats_learning_trig/img/Stim/FN_012_g.png"",""time"":680.8999999761581},{""stimulus"":""blank"",""time"":992.7999999523163},{""stimulus"":""https://ziweizhang0304.github.io/Stats_learning_trig/img/Stim/FN_023_g.png"",""time"":1021},{""stimulus"":""blank"",""time"":1328.7999999523163},{""stimulus"":""https://ziweizhang0304.github.io/Stats_learning_trig/img/Stim/FN_015_g.png"",""time"":1361.0999999642372},{""stimulus"":""blank"",""time"":1662.7999999523163},{""stimulus"":""https://ziweizhang0304.github.io/Stats_learning_trig/img/Stim/FN_018_g.png"",""time"":1711.199999988079},{""stimulus"":""blank"",""time"":2015.0999999642372},{""stimulus"":""https://ziweizhang0304.github.io/Stats_learning_trig/img/Stim/FN_004_g.png"",""time"":2041.199999988079},{""stimulus"":""blank"",""time"":2350.599999964237},{""stimulus"":""https://ziweizhang0304.github.io/Stats_learning_trig/img/Stim/FN_008_g.png"",""time"":2380.7999999523163},{""stimulus"":""blank"",""time"":2684.699999988079},{""stimulus"":""https://ziweizhang0304.github.io/Stats_learning_trig/img/Stim/FN_007_g.png"",""time"":2732.899999976158},{""stimulus"":""blank"",""time"":3036.699999988079},{""stimulus"":""https://ziweizhang0304.github.io/Stats_learning_trig/img/Stim/FN_022_g.png"",""time"":3061},{""stimulus"":""blank"",""time"":3372.7999999523163},{""stimulus"":""https://ziweizhang0304.github.io/Stats_learning_trig/img/Stim/FN_010_g.png"",""time"":3404.099999964237},{""stimulus"":""blank"",""time"":3704.899999976158},{""stimulus"":""https://ziweizhang0304.github.io/Stats_learning_trig/img/Stim/FN_016_g.png"",""time"":3753.199999988079},{""stimulus"":""blank"",""time"":4057},{""stimulus"":""https://ziweizhang0304.github.io/Stats_learning_trig/img/Stim/FN_005_g.png"",""time"":4089.199999988079},{""stimulus"":""blank"",""time"":4393}]","[{""key_press"":32,""rt"":2087.100000023842,""stimulus"":""https://ziweizhang0304.github.io/Stats_learning_trig/img/Stim/FN_004_g.png""}]","375.9000000357628","https://ziweizhang0304.github.io/Stats_learning_trig/img/Stim/FN_018_g.png","post_TD","3","1711.199999988079","2087.100000023842","fast","5","2","5eb24b26f30ede1a6ae46c14","","","","","",""
"","image-keyboard-response","19","152346","0.0-5.0-3.0-0.0","3636.800000011921","","","https://ziweizhang0304.github.io/Stats_learning_trig/img/Stim/FN_018_g.png","13","","","","","","","","","","","","","","","","","",""
"","animation","20","156768","0.0-5.0-3.0-1.0","","","","","","[{""stimulus"":""https://ziweizhang0304.github.io/Stats_learning_trig/img/Stim/FN_012_g.png"",""time"":343.39999997615814},{""stimulus"":""blank"",""time"":646},{""stimulus"":""https://ziweizhang0304.github.io/Stats_learning_trig/img/Stim/FN_007_g.png"",""time"":694.2999999523163},{""stimulus"":""blank"",""time"":994.5999999642372},{""stimulus"":""https://ziweizhang0304.github.io/Stats_learning_trig/img/Stim/FN_010_g.png"",""time"":1025.8999999761581},{""stimulus"":""blank"",""time"":1328.5999999642372},{""stimulus"":""https://ziweizhang0304.github.io/Stats_learning_trig/img/Stim/FN_002_g.png"",""time"":1376},{""stimulus"":""blank"",""time"":1676.699999988079},{""stimulus"":""https://ziweizhang0304.github.io/Stats_learning_trig/img/Stim/FN_023_g.png"",""time"":1701},{""stimulus"":""blank"",""time"":2010.7999999523163},{""stimulus"":""https://ziweizhang0304.github.io/Stats_learning_trig/img/Stim/FN_015_g.png"",""time"":2041.0999999642372},{""stimulus"":""blank"",""time"":2345.899999976158},{""stimulus"":""https://ziweizhang0304.github.io/Stats_learning_trig/img/Stim/FN_018_g.png"",""time"":2394.2999999523163},{""stimulus"":""blank"",""time"":2697},{""stimulus"":""https://ziweizhang0304.github.io/Stats_learning_trig/img/Stim/FN_004_g.png"",""time"":2721.199999988079},{""stimulus"":""blank"",""time"":3032},{""stimulus"":""https://ziweizhang0304.github.io/Stats_learning_trig/img/Stim/FN_008_g.png"",""time"":3064.2999999523163},{""stimulus"":""blank"",""time"":3367.099999964237},{""stimulus"":""https://ziweizhang0304.github.io/Stats_learning_trig/img/Stim/FN_022_g.png"",""time"":3415.5},{""stimulus"":""blank"",""time"":3716.2999999523163},{""stimulus"":""https://ziweizhang0304.github.io/Stats_learning_trig/img/Stim/FN_016_g.png"",""time"":3740.5},{""stimulus"":""blank"",""time"":4048.5},{""stimulus"":""https://ziweizhang0304.github.io/Stats_learning_trig/img/Stim/FN_005_g.png"",""time"":4080.5},{""stimulus"":""blank"",""time"":4396.399999976158}]","[{""key_press"":32,""rt"":2767,""stimulus"":""https://ziweizhang0304.github.io/Stats_learning_trig/img/Stim/FN_004_g.png""}]","372.7000000476837","https://ziweizhang0304.github.io/Stats_learning_trig/img/Stim/FN_018_g.png","post_TD","4","2394.2999999523163","2767","fast","7","2","5eb24b26f30ede1a6ae46c14","","","","","",""
"","image-keyboard-response","21","158891","0.0-5.0-4.0-0.0","2121.400000035763","","","https://ziweizhang0304.github.io/Stats_learning_trig/img/Stim/FN_015_g.png","13","","","","","","","","","","","","","","","","","",""
"","animation","22","163312","0.0-5.0-4.0-1.0","","","","","","[{""stimulus"":""https://ziweizhang0304.github.io/Stats_learning_trig/img/Stim/FN_012_g.png"",""time"":346.39999997615814},{""stimulus"":""blank"",""time"":648},{""stimulus"":""https://ziweizhang0304.github.io/Stats_learning_trig/img/Stim/FN_005_g.png"",""time"":680.6999999880791},{""stimulus"":""blank"",""time"":981.0999999642372},{""stimulus"":""https://ziweizhang0304.github.io/Stats_learning_trig/img/Stim/FN_002_g.png"",""time"":1029.2999999523163},{""stimulus"":""blank"",""time"":1331.199999988079},{""stimulus"":""https://ziweizhang0304.github.io/Stats_learning_trig/img/Stim/FN_016_g.png"",""time"":1361.3999999761581},{""stimulus"":""blank"",""time"":1667.199999988079},{""stimulus"":""https://ziweizhang0304.github.io/Stats_learning_trig/img/Stim/FN_023_g.png"",""time"":1700.3999999761581},{""stimulus"":""blank"",""time"":2016.2999999523163},{""stimulus"":""https://ziweizhang0304.github.io/Stats_learning_trig/img/Stim/FN_008_g.png"",""time"":2040.5999999642372},{""stimulus"":""blank"",""time"":2351.399999976158},{""stimulus"":""https://ziweizhang0304.github.io/Stats_learning_trig/img/Stim/FN_015_g.png"",""time"":2380.699999988079},{""stimulus"":""blank"",""time"":2684.5},{""stimulus"":""https://ziweizhang0304.github.io/Stats_learning_trig/img/Stim/FN_018_g.png"",""time"":2732.699999988079},{""stimulus"":""blank"",""time"":3036.099999964237},{""stimulus"":""https://ziweizhang0304.github.io/Stats_learning_trig/img/Stim/FN_004_g.png"",""time"":3061.2999999523163},{""stimulus"":""blank"",""time"":3371.199999988079},{""stimulus"":""https://ziweizhang0304.github.io/Stats_learning_trig/img/Stim/FN_007_g.png"",""time"":3403.5},{""stimulus"":""blank"",""time"":3706.099999964237},{""stimulus"":""https://ziweizhang0304.github.io/Stats_learning_trig/img/Stim/FN_022_g.png"",""time"":3754.5},{""stimulus"":""blank"",""time"":4056.2999999523163},{""stimulus"":""https://ziweizhang0304.github.io/Stats_learning_trig/img/Stim/FN_010_g.png"",""time"":4080.5},{""stimulus"":""blank"",""time"":4391.299999952316}]","[{""key_press"":32,""rt"":2734.899999976158,""stimulus"":""https://ziweizhang0304.github.io/Stats_learning_trig/img/Stim/FN_018_g.png""}]","354.19999998807907","https://ziweizhang0304.github.io/Stats_learning_trig/img/Stim/FN_015_g.png","post_TD","5","2380.699999988079","2734.899999976158","fast","7","1","5eb24b26f30ede1a6ae46c14","","","","","",""
"","image-keyboard-response","23","169771","0.0-5.0-5.0-0.0","6457.300000011921","","","https://ziweizhang0304.github.io/Stats_learning_trig/img/Stim/FN_003_g.png","13","","","","","","","","","","","","","","","","","",""
"","animation","24","174192","0.0-5.0-5.0-1.0","","","","","","[{""stimulus"":""https://ziweizhang0304.github.io/Stats_learning_trig/img/Stim/FN_005_g.png"",""time"":355},{""stimulus"":""blank"",""time"":658.6999999880791},{""stimulus"":""https://ziweizhang0304.github.io/Stats_learning_trig/img/Stim/FN_007_g.png"",""time"":681},{""stimulus"":""blank"",""time"":994.8000000119209},{""stimulus"":""https://ziweizhang0304.github.io/Stats_learning_trig/img/Stim/FN_022_g.png"",""time"":1021.0999999642372},{""stimulus"":""blank"",""time"":1329.8999999761581},{""stimulus"":""https://ziweizhang0304.github.io/Stats_learning_trig/img/Stim/FN_003_g.png"",""time"":1361.0999999642372},{""stimulus"":""blank"",""time"":1664.8999999761581},{""stimulus"":""https://ziweizhang0304.github.io/Stats_learning_trig/img/Stim/FN_009_g.png"",""time"":1712.3999999761581},{""stimulus"":""blank"",""time"":2015.199999988079},{""stimulus"":""https://ziweizhang0304.github.io/Stats_learning_trig/img/Stim/FN_019_g.png"",""time"":2041.300000011921},{""stimulus"":""blank"",""time"":2349.099999964237},{""stimulus"":""https://ziweizhang0304.github.io/Stats_learning_trig/img/Stim/FN_002_g.png"",""time"":2380.300000011921},{""stimulus"":""blank"",""time"":2681.199999988079},{""stimulus"":""https://ziweizhang0304.github.io/Stats_learning_trig/img/Stim/FN_008_g.png"",""time"":2720.5},{""stimulus"":""blank"",""time"":3028.300000011921},{""stimulus"":""https://ziweizhang0304.github.io/Stats_learning_trig/img/Stim/FN_012_g.png"",""time"":3060.5},{""stimulus"":""blank"",""time"":3364.399999976158},{""stimulus"":""https://ziweizhang0304.github.io/Stats_learning_trig/img/Stim/FN_010_g.png"",""time"":3400.599999964237},{""stimulus"":""blank"",""time"":3716.5},{""stimulus"":""https://ziweizhang0304.github.io/Stats_learning_trig/img/Stim/FN_016_g.png"",""time"":3740.599999964237},{""stimulus"":""blank"",""time"":4052.599999964237},{""stimulus"":""https://ziweizhang0304.github.io/Stats_learning_trig/img/Stim/FN_023_g.png"",""time"":4080.699999988079},{""stimulus"":""blank"",""time"":4388.699999988079}]","[{""key_press"":32,""rt"":1750.800000011921,""stimulus"":""https://ziweizhang0304.github.io/Stats_learning_trig/img/Stim/FN_009_g.png""}]","389.7000000476837","https://ziweizhang0304.github.io/Stats_learning_trig/img/Stim/FN_003_g.png","post_TD","6","1361.0999999642372","1750.800000011921","slow","4","1","5eb24b26f30ede1a6ae46c14","","","","","",""
"","image-keyboard-response","25","176330","0.0-5.0-6.0-0.0","2137","","","https://ziweizhang0304.github.io/Stats_learning_trig/img/Stim/FN_019_g.png","13","","","","","","","","","","","","","","","","","",""
"","animation","26","180754","0.0-5.0-6.0-1.0","","","","","","[{""stimulus"":""https://ziweizhang0304.github.io/Stats_learning_trig/img/Stim/FN_002_g.png"",""time"":344},{""stimulus"":""blank"",""time"":644.7000000476837},{""stimulus"":""https://ziweizhang0304.github.io/Stats_learning_trig/img/Stim/FN_012_g.png"",""time"":692},{""stimulus"":""blank"",""time"":995.8000000119209},{""stimulus"":""https://ziweizhang0304.github.io/Stats_learning_trig/img/Stim/FN_007_g.png"",""time"":1021},{""stimulus"":""blank"",""time"":1330.9000000357628},{""stimulus"":""https://ziweizhang0304.github.io/Stats_learning_trig/img/Stim/FN_022_g.png"",""time"":1363.1000000238419},{""stimulus"":""blank"",""time"":1664.800000011921},{""stimulus"":""https://ziweizhang0304.github.io/Stats_learning_trig/img/Stim/FN_016_g.png"",""time"":1701.2000000476837},{""stimulus"":""blank"",""time"":2014.5},{""stimulus"":""https://ziweizhang0304.github.io/Stats_learning_trig/img/Stim/FN_010_g.png"",""time"":2040.800000011921},{""stimulus"":""blank"",""time"":2348.100000023842},{""stimulus"":""https://ziweizhang0304.github.io/Stats_learning_trig/img/Stim/FN_003_g.png"",""time"":2381.300000011921},{""stimulus"":""blank"",""time"":2683.2000000476837},{""stimulus"":""https://ziweizhang0304.github.io/Stats_learning_trig/img/Stim/FN_009_g.png"",""time"":2731.400000035763},{""stimulus"":""blank"",""time"":3035.2000000476837},{""stimulus"":""https://ziweizhang0304.github.io/Stats_learning_trig/img/Stim/FN_019_g.png"",""time"":3060.600000023842},{""stimulus"":""blank"",""time"":3370.300000011921},{""stimulus"":""https://ziweizhang0304.github.io/Stats_learning_trig/img/Stim/FN_008_g.png"",""time"":3400.5},{""stimulus"":""blank"",""time"":3704.800000011921},{""stimulus"":""https://ziweizhang0304.github.io/Stats_learning_trig/img/Stim/FN_005_g.png"",""time"":3753.2000000476837},{""stimulus"":""blank"",""time"":4056},{""stimulus"":""https://ziweizhang0304.github.io/Stats_learning_trig/img/Stim/FN_023_g.png"",""time"":4087.400000035763},{""stimulus"":""blank"",""time"":4391}]","[{""key_press"":32,""rt"":3455.300000011921,""stimulus"":""https://ziweizhang0304.github.io/Stats_learning_trig/img/Stim/FN_008_g.png""}]","394.69999998807907","https://ziweizhang0304.github.io/Stats_learning_trig/img/Stim/FN_019_g.png","post_TD","7","3060.600000023842","3455.300000011921","slow","9","3","5eb24b26f30ede1a6ae46c14","","","","","",""
"","image-keyboard-response","27","182746","0.0-5.0-7.0-0.0","1991","","","https://ziweizhang0304.github.io/Stats_learning_trig/img/Stim/FN_009_g.png","13","","","","","","","","","","","","","","","","","",""
"","animation","28","187169","0.0-5.0-7.0-1.0","","","","","","[{""stimulus"":""https://ziweizhang0304.github.io/Stats_learning_trig/img/Stim/FN_005_g.png"",""time"":355.9000000357628},{""stimulus"":""blank"",""time"":656.7000000476837},{""stimulus"":""https://ziweizhang0304.github.io/Stats_learning_trig/img/Stim/FN_007_g.png"",""time"":680.9000000357628},{""stimulus"":""blank"",""time"":988.2000000476837},{""stimulus"":""https://ziweizhang0304.github.io/Stats_learning_trig/img/Stim/FN_022_g.png"",""time"":1020.4000000357628},{""stimulus"":""blank"",""time"":1336.300000011921},{""stimulus"":""https://ziweizhang0304.github.io/Stats_learning_trig/img/Stim/FN_003_g.png"",""time"":1360.5},{""stimulus"":""blank"",""time"":1667.4000000357628},{""stimulus"":""https://ziweizhang0304.github.io/Stats_learning_trig/img/Stim/FN_009_g.png"",""time"":1700.6000000238419},{""stimulus"":""blank"",""time"":2015.5},{""stimulus"":""https://ziweizhang0304.github.io/Stats_learning_trig/img/Stim/FN_019_g.png"",""time"":2047.800000011921},{""stimulus"":""blank"",""time"":2348.5},{""stimulus"":""https://ziweizhang0304.github.io/Stats_learning_trig/img/Stim/FN_002_g.png"",""time"":2380.800000011921},{""stimulus"":""blank"",""time"":2683.7000000476837},{""stimulus"":""https://ziweizhang0304.github.io/Stats_learning_trig/img/Stim/FN_008_g.png"",""time"":2720.900000035763},{""stimulus"":""blank"",""time"":3032.600000023842},{""stimulus"":""https://ziweizhang0304.github.io/Stats_learning_trig/img/Stim/FN_012_g.png"",""time"":3065},{""stimulus"":""blank"",""time"":3367.800000011921},{""stimulus"":""https://ziweizhang0304.github.io/Stats_learning_trig/img/Stim/FN_010_g.png"",""time"":3401.100000023842},{""stimulus"":""blank"",""time"":3702.800000011921},{""stimulus"":""https://ziweizhang0304.github.io/Stats_learning_trig/img/Stim/FN_016_g.png"",""time"":3751.2000000476837},{""stimulus"":""blank"",""time"":4054.900000035763},{""stimulus"":""https://ziweizhang0304.github.io/Stats_learning_trig/img/Stim/FN_023_g.png"",""time"":4081.2000000476837},{""stimulus"":""blank"",""time"":4390}]","[{""key_press"":32,""rt"":2103,""stimulus"":""https://ziweizhang0304.github.io/Stats_learning_trig/img/Stim/FN_019_g.png""}]","402.39999997615814","https://ziweizhang0304.github.io/Stats_learning_trig/img/Stim/FN_009_g.png","post_TD","8","1700.6000000238419","2103","slow","5","2","5eb24b26f30ede1a6ae46c14","","","","","",""
"","image-keyboard-response","29","188842","0.0-5.0-8.0-0.0","1671.9000000357628","","","https://ziweizhang0304.github.io/Stats_learning_trig/img/Stim/FN_019_g.png","13","","","","","","","","","","","","","","","","","",""
"","animation","30","193264","0.0-5.0-8.0-1.0","","","","","","[{""stimulus"":""https://ziweizhang0304.github.io/Stats_learning_trig/img/Stim/FN_023_g.png"",""time"":346.9000000357628},{""stimulus"":""blank"",""time"":662.5},{""stimulus"":""https://ziweizhang0304.github.io/Stats_learning_trig/img/Stim/FN_002_g.png"",""time"":680.8000000119209},{""stimulus"":""blank"",""time"":993.5},{""stimulus"":""https://ziweizhang0304.github.io/Stats_learning_trig/img/Stim/FN_010_g.png"",""time"":1020.8000000119209},{""stimulus"":""blank"",""time"":1327.2000000476837},{""stimulus"":""https://ziweizhang0304.github.io/Stats_learning_trig/img/Stim/FN_008_g.png"",""time"":1360.300000011921},{""stimulus"":""blank"",""time"":1662.300000011921},{""stimulus"":""https://ziweizhang0304.github.io/Stats_learning_trig/img/Stim/FN_003_g.png"",""time"":1700.5},{""stimulus"":""blank"",""time"":2014.300000011921},{""stimulus"":""https://ziweizhang0304.github.io/Stats_learning_trig/img/Stim/FN_009_g.png"",""time"":2040.6000000238419},{""stimulus"":""blank"",""time"":2348},{""stimulus"":""https://ziweizhang0304.github.io/Stats_learning_trig/img/Stim/FN_019_g.png"",""time"":2396.2000000476837},{""stimulus"":""blank"",""time"":2699},{""stimulus"":""https://ziweizhang0304.github.io/Stats_learning_trig/img/Stim/FN_007_g.png"",""time"":2721.2000000476837},{""stimulus"":""blank"",""time"":3033.600000023842},{""stimulus"":""https://ziweizhang0304.github.io/Stats_learning_trig/img/Stim/FN_012_g.png"",""time"":3060.800000011921},{""stimulus"":""blank"",""time"":3368.7000000476837},{""stimulus"":""https://ziweizhang0304.github.io/Stats_learning_trig/img/Stim/FN_022_g.png"",""time"":3400.900000035763},{""stimulus"":""blank"",""time"":3703.7000000476837},{""stimulus"":""https://ziweizhang0304.github.io/Stats_learning_trig/img/Stim/FN_016_g.png"",""time"":3741},{""stimulus"":""blank"",""time"":4054.800000011921},{""stimulus"":""https://ziweizhang0304.github.io/Stats_learning_trig/img/Stim/FN_005_g.png"",""time"":4087},{""stimulus"":""blank"",""time"":4390.800000011921}]","[{""key_press"":32,""rt"":2751.400000035763,""stimulus"":""https://ziweizhang0304.github.io/Stats_learning_trig/img/Stim/FN_007_g.png""}]","355.19999998807907","https://ziweizhang0304.github.io/Stats_learning_trig/img/Stim/FN_019_g.png","post_TD","9","2396.2000000476837","2751.400000035763","slow","7","3","5eb24b26f30ede1a6ae46c14","","","","","",""
"","image-keyboard-response","31","196426","0.0-5.0-9.0-0.0","3161.300000011921","","","https://ziweizhang0304.github.io/Stats_learning_trig/img/Stim/FN_004_g.png","13","","","","","","","","","","","","","","","","","",""
"","animation","32","200861","0.0-5.0-9.0-1.0","","","","","","[{""stimulus"":""https://ziweizhang0304.github.io/Stats_learning_trig/img/Stim/FN_002_g.png"",""time"":354.2999999523163},{""stimulus"":""blank"",""time"":657},{""stimulus"":""https://ziweizhang0304.github.io/Stats_learning_trig/img/Stim/FN_012_g.png"",""time"":681.1999999880791},{""stimulus"":""blank"",""time"":993.0999999642372},{""stimulus"":""https://ziweizhang0304.github.io/Stats_learning_trig/img/Stim/FN_023_g.png"",""time"":1025.3999999761581},{""stimulus"":""blank"",""time"":1328.0999999642372},{""stimulus"":""https://ziweizhang0304.github.io/Stats_learning_trig/img/Stim/FN_015_g.png"",""time"":1360.2999999523163},{""stimulus"":""blank"",""time"":1662.199999988079},{""stimulus"":""https://ziweizhang0304.github.io/Stats_learning_trig/img/Stim/FN_018_g.png"",""time"":1700.3999999761581},{""stimulus"":""blank"",""time"":2012.199999988079},{""stimulus"":""https://ziweizhang0304.github.io/Stats_learning_trig/img/Stim/FN_004_g.png"",""time"":2040.5},{""stimulus"":""blank"",""time"":2345.399999976158},{""stimulus"":""https://ziweizhang0304.github.io/Stats_learning_trig/img/Stim/FN_008_g.png"",""time"":2392.699999988079},{""stimulus"":""blank"",""time"":2693.399999976158},{""stimulus"":""https://ziweizhang0304.github.io/Stats_learning_trig/img/Stim/FN_007_g.png"",""time"":2720.699999988079},{""stimulus"":""blank"",""time"":3028.5},{""stimulus"":""https://ziweizhang0304.github.io/Stats_learning_trig/img/Stim/FN_022_g.png"",""time"":3060.7999999523163},{""stimulus"":""blank"",""time"":3364.599999964237},{""stimulus"":""https://ziweizhang0304.github.io/Stats_learning_trig/img/Stim/FN_010_g.png"",""time"":3412.7999999523163},{""stimulus"":""blank"",""time"":3716.699999988079},{""stimulus"":""https://ziweizhang0304.github.io/Stats_learning_trig/img/Stim/FN_016_g.png"",""time"":3748.899999976158},{""stimulus"":""blank"",""time"":4050.699999988079},{""stimulus"":""https://ziweizhang0304.github.io/Stats_learning_trig/img/Stim/FN_005_g.png"",""time"":4083},{""stimulus"":""blank"",""time"":4385.899999976158}]","[{""key_press"":32,""rt"":2511,""stimulus"":""https://ziweizhang0304.github.io/Stats_learning_trig/img/Stim/FN_008_g.png""}]","470.5","https://ziweizhang0304.github.io/Stats_learning_trig/img/Stim/FN_004_g.png","post_TD","10","2040.5","2511","fast","6","3","5eb24b26f30ede1a6ae46c14","","","","","",""
"","image-keyboard-response","33","202139","0.0-5.0-10.0-0.0","1276.300000011921","","","https://ziweizhang0304.github.io/Stats_learning_trig/img/Stim/FN_019_g.png","13","","","","","","","","","","","","","","","","","",""
"","animation","34","206560","0.0-5.0-10.0-1.0","","","","","","[{""stimulus"":""https://ziweizhang0304.github.io/Stats_learning_trig/img/Stim/FN_005_g.png"",""time"":350.80000001192093},{""stimulus"":""blank"",""time"":654.5999999642372},{""stimulus"":""https://ziweizhang0304.github.io/Stats_learning_trig/img/Stim/FN_007_g.png"",""time"":680.8000000119209},{""stimulus"":""blank"",""time"":986.5999999642372},{""stimulus"":""https://ziweizhang0304.github.io/Stats_learning_trig/img/Stim/FN_022_g.png"",""time"":1033.8999999761581},{""stimulus"":""blank"",""time"":1337.800000011921},{""stimulus"":""https://ziweizhang0304.github.io/Stats_learning_trig/img/Stim/FN_003_g.png"",""time"":1360.8999999761581},{""stimulus"":""blank"",""time"":1671.8999999761581},{""stimulus"":""https://ziweizhang0304.github.io/Stats_learning_trig/img/Stim/FN_009_g.png"",""time"":1704.0999999642372},{""stimulus"":""blank"",""time"":2006.8999999761581},{""stimulus"":""https://ziweizhang0304.github.io/Stats_learning_trig/img/Stim/FN_019_g.png"",""time"":2055.199999988079},{""stimulus"":""blank"",""time"":2356},{""stimulus"":""https://ziweizhang0304.github.io/Stats_learning_trig/img/Stim/FN_002_g.png"",""time"":2388.300000011921},{""stimulus"":""blank"",""time"":2691},{""stimulus"":""https://ziweizhang0304.github.io/Stats_learning_trig/img/Stim/FN_008_g.png"",""time"":2723.300000011921},{""stimulus"":""blank"",""time"":3024.099999964237},{""stimulus"":""https://ziweizhang0304.github.io/Stats_learning_trig/img/Stim/FN_012_g.png"",""time"":3072.399999976158},{""stimulus"":""blank"",""time"":3375.199999988079},{""stimulus"":""https://ziweizhang0304.github.io/Stats_learning_trig/img/Stim/FN_010_g.png"",""time"":3400.399999976158},{""stimulus"":""blank"",""time"":3708.300000011921},{""stimulus"":""https://ziweizhang0304.github.io/Stats_learning_trig/img/Stim/FN_016_g.png"",""time"":3740.5},{""stimulus"":""blank"",""time"":4044.399999976158},{""stimulus"":""https://ziweizhang0304.github.io/Stats_learning_trig/img/Stim/FN_023_g.png"",""time"":4092.599999964237},{""stimulus"":""blank"",""time"":4396.399999976158}]","[{""key_press"":32,""rt"":2422.7000000476837,""stimulus"":""https://ziweizhang0304.github.io/Stats_learning_trig/img/Stim/FN_002_g.png""}]","367.50000005960464","https://ziweizhang0304.github.io/Stats_learning_trig/img/Stim/FN_019_g.png","post_TD","11","2055.199999988079","2422.7000000476837","slow","6","3","5eb24b26f30ede1a6ae46c14","","","","","",""
"","image-keyboard-response","35","207810","0.0-5.0-11.0-0.0","1249","","","https://ziweizhang0304.github.io/Stats_learning_trig/img/Stim/FN_015_g.png","13","","","","","","","","","","","","","","","","","",""
"","animation","36","212233","0.0-5.0-11.0-1.0","","","","","","[{""stimulus"":""https://ziweizhang0304.github.io/Stats_learning_trig/img/Stim/FN_016_g.png"",""time"":353.80000001192093},{""stimulus"":""blank"",""time"":657.5},{""stimulus"":""https://ziweizhang0304.github.io/Stats_learning_trig/img/Stim/FN_007_g.png"",""time"":680.6999999880791},{""stimulus"":""blank"",""time"":991.6000000238419},{""stimulus"":""https://ziweizhang0304.github.io/Stats_learning_trig/img/Stim/FN_002_g.png"",""time"":1020.8000000119209},{""stimulus"":""blank"",""time"":1326.6000000238419},{""stimulus"":""https://ziweizhang0304.github.io/Stats_learning_trig/img/Stim/FN_022_g.png"",""time"":1360.9000000357628},{""stimulus"":""blank"",""time"":1675.800000011921},{""stimulus"":""https://ziweizhang0304.github.io/Stats_learning_trig/img/Stim/FN_015_g.png"",""time"":1700.9000000357628},{""stimulus"":""blank"",""time"":2010.800000011921},{""stimulus"":""https://ziweizhang0304.github.io/Stats_learning_trig/img/Stim/FN_018_g.png"",""time"":2041.1000000238419},{""stimulus"":""blank"",""time"":2345.900000035763},{""stimulus"":""https://ziweizhang0304.github.io/Stats_learning_trig/img/Stim/FN_004_g.png"",""time"":2393.199999988079},{""stimulus"":""blank"",""time"":2695},{""stimulus"":""https://ziweizhang0304.github.io/Stats_learning_trig/img/Stim/FN_008_g.png"",""time"":2721.199999988079},{""stimulus"":""blank"",""time"":3029},{""stimulus"":""https://ziweizhang0304.github.io/Stats_learning_trig/img/Stim/FN_012_g.png"",""time"":3061.300000011921},{""stimulus"":""blank"",""time"":3364.600000023842},{""stimulus"":""https://ziweizhang0304.github.io/Stats_learning_trig/img/Stim/FN_010_g.png"",""time"":3412.900000035763},{""stimulus"":""blank"",""time"":3713.699999988079},{""stimulus"":""https://ziweizhang0304.github.io/Stats_learning_trig/img/Stim/FN_005_g.png"",""time"":3740.900000035763},{""stimulus"":""blank"",""time"":4046.300000011921},{""stimulus"":""https://ziweizhang0304.github.io/Stats_learning_trig/img/Stim/FN_023_g.png"",""time"":4080.400000035763},{""stimulus"":""blank"",""time"":4381.300000011921}]","[{""key_press"":32,""rt"":2109.300000011921,""stimulus"":""https://ziweizhang0304.github.io/Stats_learning_trig/img/Stim/FN_018_g.png""}]","408.39999997615814","https://ziweizhang0304.github.io/Stats_learning_trig/img/Stim/FN_015_g.png","post_TD","12","1700.9000000357628","2109.300000011921","fast","5","1","5eb24b26f30ede1a6ae46c14","","","","","",""
"","image-keyboard-response","37","213194","0.0-5.0-12.0-0.0","960","","","https://ziweizhang0304.github.io/Stats_learning_trig/img/Stim/FN_004_g.png","13","","","","","","","","","","","","","","","","","",""
"","animation","38","217630","0.0-5.0-12.0-1.0","","","","","","[{""stimulus"":""https://ziweizhang0304.github.io/Stats_learning_trig/img/Stim/FN_012_g.png"",""time"":341.69999998807907},{""stimulus"":""blank"",""time"":642.8999999761581},{""stimulus"":""https://ziweizhang0304.github.io/Stats_learning_trig/img/Stim/FN_007_g.png"",""time"":690.1999999880791},{""stimulus"":""blank"",""time"":993},{""stimulus"":""https://ziweizhang0304.github.io/Stats_learning_trig/img/Stim/FN_010_g.png"",""time"":1025.3999999761581},{""stimulus"":""blank"",""time"":1328.1000000238419},{""stimulus"":""https://ziweizhang0304.github.io/Stats_learning_trig/img/Stim/FN_002_g.png"",""time"":1376.3999999761581},{""stimulus"":""blank"",""time"":1680.199999988079},{""stimulus"":""https://ziweizhang0304.github.io/Stats_learning_trig/img/Stim/FN_023_g.png"",""time"":1712.3999999761581},{""stimulus"":""blank"",""time"":2015.199999988079},{""stimulus"":""https://ziweizhang0304.github.io/Stats_learning_trig/img/Stim/FN_015_g.png"",""time"":2040.5},{""stimulus"":""blank"",""time"":2350.300000011921},{""stimulus"":""https://ziweizhang0304.github.io/Stats_learning_trig/img/Stim/FN_018_g.png"",""time"":2380.600000023842},{""stimulus"":""blank"",""time"":2683.300000011921},{""stimulus"":""https://ziweizhang0304.github.io/Stats_learning_trig/img/Stim/FN_004_g.png"",""time"":2720.600000023842},{""stimulus"":""blank"",""time"":3032.5},{""stimulus"":""https://ziweizhang0304.github.io/Stats_learning_trig/img/Stim/FN_008_g.png"",""time"":3060.600000023842},{""stimulus"":""blank"",""time"":3367.600000023842},{""stimulus"":""https://ziweizhang0304.github.io/Stats_learning_trig/img/Stim/FN_022_g.png"",""time"":3400.899999976158},{""stimulus"":""blank"",""time"":3716.600000023842},{""stimulus"":""https://ziweizhang0304.github.io/Stats_learning_trig/img/Stim/FN_016_g.png"",""time"":3740.899999976158},{""stimulus"":""blank"",""time"":4052.699999988079},{""stimulus"":""https://ziweizhang0304.github.io/Stats_learning_trig/img/Stim/FN_005_g.png"",""time"":4080.899999976158},{""stimulus"":""blank"",""time"":4386.699999988079}]","[{""key_press"":32,""rt"":2743,""stimulus"":""https://ziweizhang0304.github.io/Stats_learning_trig/img/Stim/FN_004_g.png""},{""key_press"":32,""rt"":3415.2999999523163,""stimulus"":""https://ziweizhang0304.github.io/Stats_learning_trig/img/Stim/FN_022_g.png""}]","22.399999976158142","https://ziweizhang0304.github.io/Stats_learning_trig/img/Stim/FN_004_g.png","post_TD","13","2720.600000023842","2743","fast","8","3","5eb24b26f30ede1a6ae46c14","","","","","",""
"","image-keyboard-response","39","219170","0.0-5.0-13.0-0.0","1539","","","https://ziweizhang0304.github.io/Stats_learning_trig/img/Stim/FN_009_g.png","13","","","","","","","","","","","","","","","","","",""
"","animation","40","223592","0.0-5.0-13.0-1.0","","","","","","[{""stimulus"":""https://ziweizhang0304.github.io/Stats_learning_trig/img/Stim/FN_007_g.png"",""time"":342.9000000357628},{""stimulus"":""blank"",""time"":645.1999999880791},{""stimulus"":""https://ziweizhang0304.github.io/Stats_learning_trig/img/Stim/FN_002_g.png"",""time"":681.3000000119209},{""stimulus"":""blank"",""time"":995.1999999880791},{""stimulus"":""https://ziweizhang0304.github.io/Stats_learning_trig/img/Stim/FN_022_g.png"",""time"":1021.4000000357628},{""stimulus"":""blank"",""time"":1330.300000011921},{""stimulus"":""https://ziweizhang0304.github.io/Stats_learning_trig/img/Stim/FN_023_g.png"",""time"":1361.4000000357628},{""stimulus"":""blank"",""time"":1666.300000011921},{""stimulus"":""https://ziweizhang0304.github.io/Stats_learning_trig/img/Stim/FN_008_g.png"",""time"":1700.6000000238419},{""stimulus"":""blank"",""time"":2001.5},{""stimulus"":""https://ziweizhang0304.github.io/Stats_learning_trig/img/Stim/FN_003_g.png"",""time"":2048.699999988079},{""stimulus"":""blank"",""time"":2350.5},{""stimulus"":""https://ziweizhang0304.github.io/Stats_learning_trig/img/Stim/FN_009_g.png"",""time"":2380.699999988079},{""stimulus"":""blank"",""time"":2684.600000023842},{""stimulus"":""https://ziweizhang0304.github.io/Stats_learning_trig/img/Stim/FN_019_g.png"",""time"":2731.800000011921},{""stimulus"":""blank"",""time"":3034.699999988079},{""stimulus"":""https://ziweizhang0304.github.io/Stats_learning_trig/img/Stim/FN_012_g.png"",""time"":3060.800000011921},{""stimulus"":""blank"",""time"":3368.699999988079},{""stimulus"":""https://ziweizhang0304.github.io/Stats_learning_trig/img/Stim/FN_010_g.png"",""time"":3416},{""stimulus"":""blank"",""time"":3719.400000035763},{""stimulus"":""https://ziweizhang0304.github.io/Stats_learning_trig/img/Stim/FN_016_g.png"",""time"":3741},{""stimulus"":""blank"",""time"":4052.800000011921},{""stimulus"":""https://ziweizhang0304.github.io/Stats_learning_trig/img/Stim/FN_005_g.png"",""time"":4080.800000011921},{""stimulus"":""blank"",""time"":4388.900000035763}]","[{""key_press"":32,""rt"":2743.2000000476837,""stimulus"":""https://ziweizhang0304.github.io/Stats_learning_trig/img/Stim/FN_019_g.png""}]","362.50000005960464","https://ziweizhang0304.github.io/Stats_learning_trig/img/Stim/FN_009_g.png","post_TD","14","2380.699999988079","2743.2000000476837","slow","7","2","5eb24b26f30ede1a6ae46c14","","","","","",""
"","image-keyboard-response","41","224835","0.0-5.0-14.0-0.0","1241.699999988079","","","https://ziweizhang0304.github.io/Stats_learning_trig/img/Stim/FN_009_g.png","13","","","","","","","","","","","","","","","","","",""
"","animation","42","229255","0.0-5.0-14.0-1.0","","","","","","[{""stimulus"":""https://ziweizhang0304.github.io/Stats_learning_trig/img/Stim/FN_002_g.png"",""time"":351.2999999523163},{""stimulus"":""blank"",""time"":655},{""stimulus"":""https://ziweizhang0304.github.io/Stats_learning_trig/img/Stim/FN_012_g.png"",""time"":681.1999999880791},{""stimulus"":""blank"",""time"":990.0999999642372},{""stimulus"":""https://ziweizhang0304.github.io/Stats_learning_trig/img/Stim/FN_007_g.png"",""time"":1022.2999999523163},{""stimulus"":""blank"",""time"":1324.199999988079},{""stimulus"":""https://ziweizhang0304.github.io/Stats_learning_trig/img/Stim/FN_022_g.png"",""time"":1372.3999999761581},{""stimulus"":""blank"",""time"":1674.5},{""stimulus"":""https://ziweizhang0304.github.io/Stats_learning_trig/img/Stim/FN_016_g.png"",""time"":1700.7999999523163},{""stimulus"":""blank"",""time"":2007.7999999523163},{""stimulus"":""https://ziweizhang0304.github.io/Stats_learning_trig/img/Stim/FN_010_g.png"",""time"":2056},{""stimulus"":""blank"",""time"":2357.899999976158},{""stimulus"":""https://ziweizhang0304.github.io/Stats_learning_trig/img/Stim/FN_003_g.png"",""time"":2381},{""stimulus"":""blank"",""time"":2693.899999976158},{""stimulus"":""https://ziweizhang0304.github.io/Stats_learning_trig/img/Stim/FN_009_g.png"",""time"":2720.5},{""stimulus"":""blank"",""time"":3030.099999964237},{""stimulus"":""https://ziweizhang0304.github.io/Stats_learning_trig/img/Stim/FN_019_g.png"",""time"":3061.199999988079},{""stimulus"":""blank"",""time"":3363.099999964237},{""stimulus"":""https://ziweizhang0304.github.io/Stats_learning_trig/img/Stim/FN_008_g.png"",""time"":3411.399999976158},{""stimulus"":""blank"",""time"":3715.199999988079},{""stimulus"":""https://ziweizhang0304.github.io/Stats_learning_trig/img/Stim/FN_005_g.png"",""time"":3747.399999976158},{""stimulus"":""blank"",""time"":4048.2999999523163},{""stimulus"":""https://ziweizhang0304.github.io/Stats_learning_trig/img/Stim/FN_023_g.png"",""time"":4095.5},{""stimulus"":""blank"",""time"":4396.199999988079}]","[{""key_press"":32,""rt"":3087.100000023842,""stimulus"":""https://ziweizhang0304.github.io/Stats_learning_trig/img/Stim/FN_019_g.png""}]","366.60000002384186","https://ziweizhang0304.github.io/Stats_learning_trig/img/Stim/FN_009_g.png","post_TD","15","2720.5","3087.100000023842","slow","8","2","5eb24b26f30ede1a6ae46c14","","","","","",""
"","image-keyboard-response","43","230978","0.0-5.0-15.0-0.0","1721.7000000476837","","","https://ziweizhang0304.github.io/Stats_learning_trig/img/Stim/FN_003_g.png","13","","","","","","","","","","","","","","","","","",""
"","animation","44","235414","0.0-5.0-15.0-1.0","","","","","","[{""stimulus"":""https://ziweizhang0304.github.io/Stats_learning_trig/img/Stim/FN_002_g.png"",""time"":342.5},{""stimulus"":""blank"",""time"":644.5999999642372},{""stimulus"":""https://ziweizhang0304.github.io/Stats_learning_trig/img/Stim/FN_012_g.png"",""time"":691.8999999761581},{""stimulus"":""blank"",""time"":995.8000000119209},{""stimulus"":""https://ziweizhang0304.github.io/Stats_learning_trig/img/Stim/FN_007_g.png"",""time"":1027.5},{""stimulus"":""blank"",""time"":1331.300000011921},{""stimulus"":""https://ziweizhang0304.github.io/Stats_learning_trig/img/Stim/FN_022_g.png"",""time"":1360.5},{""stimulus"":""blank"",""time"":1667.300000011921},{""stimulus"":""https://ziweizhang0304.github.io/Stats_learning_trig/img/Stim/FN_016_g.png"",""time"":1700.5999999642372},{""stimulus"":""blank"",""time"":2003.5},{""stimulus"":""https://ziweizhang0304.github.io/Stats_learning_trig/img/Stim/FN_010_g.png"",""time"":2040.699999988079},{""stimulus"":""blank"",""time"":2352.5},{""stimulus"":""https://ziweizhang0304.github.io/Stats_learning_trig/img/Stim/FN_003_g.png"",""time"":2380.699999988079},{""stimulus"":""blank"",""time"":2687.599999964237},{""stimulus"":""https://ziweizhang0304.github.io/Stats_learning_trig/img/Stim/FN_009_g.png"",""time"":2720.800000011921},{""stimulus"":""blank"",""time"":3036.699999988079},{""stimulus"":""https://ziweizhang0304.github.io/Stats_learning_trig/img/Stim/FN_019_g.png"",""time"":3060.899999976158},{""stimulus"":""blank"",""time"":3369.699999988079},{""stimulus"":""https://ziweizhang0304.github.io/Stats_learning_trig/img/Stim/FN_008_g.png"",""time"":3401},{""stimulus"":""blank"",""time"":3704.899999976158},{""stimulus"":""https://ziweizhang0304.github.io/Stats_learning_trig/img/Stim/FN_005_g.png"",""time"":3753.099999964237},{""stimulus"":""blank"",""time"":4054.899999976158},{""stimulus"":""https://ziweizhang0304.github.io/Stats_learning_trig/img/Stim/FN_023_g.png"",""time"":4081.099999964237},{""stimulus"":""blank"",""time"":4387}]","[{""key_press"":32,""rt"":2807.300000011921,""stimulus"":""https://ziweizhang0304.github.io/Stats_learning_trig/img/Stim/FN_009_g.png""}]","426.60000002384186","https://ziweizhang0304.github.io/Stats_learning_trig/img/Stim/FN_003_g.png","post_TD","16","2380.699999988079","2807.300000011921","slow","7","1","5eb24b26f30ede1a6ae46c14","","","","","",""
"","image-keyboard-response","45","236571","0.0-5.0-16.0-0.0","1155.300000011921","","","https://ziweizhang0304.github.io/Stats_learning_trig/img/Stim/FN_019_g.png","13","","","","","","","","","","","","","","","","","",""
"","animation","46","240992","0.0-5.0-16.0-1.0","","","","","","[{""stimulus"":""https://ziweizhang0304.github.io/Stats_learning_trig/img/Stim/FN_007_g.png"",""time"":344.80000001192093},{""stimulus"":""blank"",""time"":647.3000000119209},{""stimulus"":""https://ziweizhang0304.github.io/Stats_learning_trig/img/Stim/FN_002_g.png"",""time"":680.6000000238419},{""stimulus"":""blank"",""time"":981.4000000357628},{""stimulus"":""https://ziweizhang0304.github.io/Stats_learning_trig/img/Stim/FN_022_g.png"",""time"":1020.7000000476837},{""stimulus"":""blank"",""time"":1330.5},{""stimulus"":""https://ziweizhang0304.github.io/Stats_learning_trig/img/Stim/FN_023_g.png"",""time"":1360.7000000476837},{""stimulus"":""blank"",""time"":1664.5},{""stimulus"":""https://ziweizhang0304.github.io/Stats_learning_trig/img/Stim/FN_008_g.png"",""time"":1700.800000011921},{""stimulus"":""blank"",""time"":2016.6000000238419},{""stimulus"":""https://ziweizhang0304.github.io/Stats_learning_trig/img/Stim/FN_003_g.png"",""time"":2040.800000011921},{""stimulus"":""blank"",""time"":2352.7000000476837},{""stimulus"":""https://ziweizhang0304.github.io/Stats_learning_trig/img/Stim/FN_009_g.png"",""time"":2380.900000035763},{""stimulus"":""blank"",""time"":2687.800000011921},{""stimulus"":""https://ziweizhang0304.github.io/Stats_learning_trig/img/Stim/FN_019_g.png"",""time"":2721},{""stimulus"":""blank"",""time"":3022.800000011921},{""stimulus"":""https://ziweizhang0304.github.io/Stats_learning_trig/img/Stim/FN_012_g.png"",""time"":3071.100000023842},{""stimulus"":""blank"",""time"":3374.900000035763},{""stimulus"":""https://ziweizhang0304.github.io/Stats_learning_trig/img/Stim/FN_010_g.png"",""time"":3407.300000011921},{""stimulus"":""blank"",""time"":3709},{""stimulus"":""https://ziweizhang0304.github.io/Stats_learning_trig/img/Stim/FN_016_g.png"",""time"":3741.300000011921},{""stimulus"":""blank"",""time"":4045.100000023842},{""stimulus"":""https://ziweizhang0304.github.io/Stats_learning_trig/img/Stim/FN_005_g.png"",""time"":4081.100000023842},{""stimulus"":""blank"",""time"":4396.800000011921}]","[{""key_press"":32,""rt"":3079,""stimulus"":""https://ziweizhang0304.github.io/Stats_learning_trig/img/Stim/FN_012_g.png""}]","358","https://ziweizhang0304.github.io/Stats_learning_trig/img/Stim/FN_019_g.png","post_TD","17","2721","3079","slow","8","3","5eb24b26f30ede1a6ae46c14","","","","","",""
"","image-keyboard-response","47","242138","0.0-5.0-17.0-0.0","1145.300000011921","","","https://ziweizhang0304.github.io/Stats_learning_trig/img/Stim/FN_003_g.png","13","","","","","","","","","","","","","","","","","",""
"","animation","48","246575","0.0-5.0-17.0-1.0","","","","","","[{""stimulus"":""https://ziweizhang0304.github.io/Stats_learning_trig/img/Stim/FN_023_g.png"",""time"":354.4000000357628},{""stimulus"":""blank"",""time"":658.1000000238419},{""stimulus"":""https://ziweizhang0304.github.io/Stats_learning_trig/img/Stim/FN_002_g.png"",""time"":681.3000000119209},{""stimulus"":""blank"",""time"":990.2000000476837},{""stimulus"":""https://ziweizhang0304.github.io/Stats_learning_trig/img/Stim/FN_010_g.png"",""time"":1020.4000000357628},{""stimulus"":""blank"",""time"":1321.300000011921},{""stimulus"":""https://ziweizhang0304.github.io/Stats_learning_trig/img/Stim/FN_008_g.png"",""time"":1360.4000000357628},{""stimulus"":""blank"",""time"":1667.4000000357628},{""stimulus"":""https://ziweizhang0304.github.io/Stats_learning_trig/img/Stim/FN_003_g.png"",""time"":1700.5},{""stimulus"":""blank"",""time"":2013.4000000357628},{""stimulus"":""https://ziweizhang0304.github.io/Stats_learning_trig/img/Stim/FN_009_g.png"",""time"":2040.7000000476837},{""stimulus"":""blank"",""time"":2346.5},{""stimulus"":""https://ziweizhang0304.github.io/Stats_learning_trig/img/Stim/FN_019_g.png"",""time"":2394.800000011921},{""stimulus"":""blank"",""time"":2696.600000023842},{""stimulus"":""https://ziweizhang0304.github.io/Stats_learning_trig/img/Stim/FN_007_g.png"",""time"":2720.7000000476837},{""stimulus"":""blank"",""time"":3029.600000023842},{""stimulus"":""https://ziweizhang0304.github.io/Stats_learning_trig/img/Stim/FN_012_g.png"",""time"":3060.800000011921},{""stimulus"":""blank"",""time"":3364.7000000476837},{""stimulus"":""https://ziweizhang0304.github.io/Stats_learning_trig/img/Stim/FN_022_g.png"",""time"":3413},{""stimulus"":""blank"",""time"":3715.800000011921},{""stimulus"":""https://ziweizhang0304.github.io/Stats_learning_trig/img/Stim/FN_016_g.png"",""time"":3741.100000023842},{""stimulus"":""blank"",""time"":4050.800000011921},{""stimulus"":""https://ziweizhang0304.github.io/Stats_learning_trig/img/Stim/FN_005_g.png"",""time"":4083.100000023842},{""stimulus"":""blank"",""time"":4386.900000035763}]","[{""key_press"":32,""rt"":2175.100000023842,""stimulus"":""https://ziweizhang0304.github.io/Stats_learning_trig/img/Stim/FN_009_g.png""}]","474.60000002384186","https://ziweizhang0304.github.io/Stats_learning_trig/img/Stim/FN_003_g.png","post_TD","18","1700.5","2175.100000023842","slow","5","1","5eb24b26f30ede1a6ae46c14","","","","","",""
"","image-keyboard-response","49","247499","0.0-5.0-18.0-0.0","923.2999999523163","","","https://ziweizhang0304.github.io/Stats_learning_trig/img/Stim/FN_015_g.png","13","","","","","","","","","","","","","","","","","",""
"","animation","50","251932","0.0-5.0-18.0-1.0","","","","","","[{""stimulus"":""https://ziweizhang0304.github.io/Stats_learning_trig/img/Stim/FN_002_g.png"",""time"":351.69999998807907},{""stimulus"":""blank"",""time"":652.8000000119209},{""stimulus"":""https://ziweizhang0304.github.io/Stats_learning_trig/img/Stim/FN_012_g.png"",""time"":680.8999999761581},{""stimulus"":""blank"",""time"":987.8000000119209},{""stimulus"":""https://ziweizhang0304.github.io/Stats_learning_trig/img/Stim/FN_023_g.png"",""time"":1035.1000000238419},{""stimulus"":""blank"",""time"":1338.8999999761581},{""stimulus"":""https://ziweizhang0304.github.io/Stats_learning_trig/img/Stim/FN_015_g.png"",""time"":1361.1000000238419},{""stimulus"":""blank"",""time"":1674.8999999761581},{""stimulus"":""https://ziweizhang0304.github.io/Stats_learning_trig/img/Stim/FN_018_g.png"",""time"":1707.199999988079},{""stimulus"":""blank"",""time"":2008},{""stimulus"":""https://ziweizhang0304.github.io/Stats_learning_trig/img/Stim/FN_004_g.png"",""time"":2056.300000011921},{""stimulus"":""blank"",""time"":2360.199999988079},{""stimulus"":""https://ziweizhang0304.github.io/Stats_learning_trig/img/Stim/FN_008_g.png"",""time"":2391.399999976158},{""stimulus"":""blank"",""time"":2693.100000023842},{""stimulus"":""https://ziweizhang0304.github.io/Stats_learning_trig/img/Stim/FN_007_g.png"",""time"":2721.399999976158},{""stimulus"":""blank"",""time"":3028.199999988079},{""stimulus"":""https://ziweizhang0304.github.io/Stats_learning_trig/img/Stim/FN_022_g.png"",""time"":3060.600000023842},{""stimulus"":""blank"",""time"":3363},{""stimulus"":""https://ziweizhang0304.github.io/Stats_learning_trig/img/Stim/FN_010_g.png"",""time"":3401},{""stimulus"":""blank"",""time"":3712.899999976158},{""stimulus"":""https://ziweizhang0304.github.io/Stats_learning_trig/img/Stim/FN_016_g.png"",""time"":3741.100000023842},{""stimulus"":""blank"",""time"":4049},{""stimulus"":""https://ziweizhang0304.github.io/Stats_learning_trig/img/Stim/FN_005_g.png"",""time"":4080.399999976158},{""stimulus"":""blank"",""time"":4384.100000023842}]","[{""key_press"":32,""rt"":1726.9000000357628,""stimulus"":""https://ziweizhang0304.github.io/Stats_learning_trig/img/Stim/FN_018_g.png""}]","365.80000001192093","https://ziweizhang0304.github.io/Stats_learning_trig/img/Stim/FN_015_g.png","post_TD","19","1361.1000000238419","1726.9000000357628","fast","4","1","5eb24b26f30ede1a6ae46c14","","","","","",""
"","image-keyboard-response","51","253011","0.0-5.0-19.0-0.0","1078","","","https://ziweizhang0304.github.io/Stats_learning_trig/img/Stim/FN_004_g.png","13","","","","","","","","","","","","","","","","","",""
"","animation","52","257432","0.0-5.0-19.0-1.0","","","","","","[{""stimulus"":""https://ziweizhang0304.github.io/Stats_learning_trig/img/Stim/FN_012_g.png"",""time"":352.80000001192093},{""stimulus"":""blank"",""time"":668.5},{""stimulus"":""https://ziweizhang0304.github.io/Stats_learning_trig/img/Stim/FN_005_g.png"",""time"":680.6999999880791},{""stimulus"":""blank"",""time"":984.5},{""stimulus"":""https://ziweizhang0304.github.io/Stats_learning_trig/img/Stim/FN_002_g.png"",""time"":1020.8999999761581},{""stimulus"":""blank"",""time"":1336.6000000238419},{""stimulus"":""https://ziweizhang0304.github.io/Stats_learning_trig/img/Stim/FN_016_g.png"",""time"":1367.800000011921},{""stimulus"":""blank"",""time"":1670.199999988079},{""stimulus"":""https://ziweizhang0304.github.io/Stats_learning_trig/img/Stim/FN_023_g.png"",""time"":1701.5},{""stimulus"":""blank"",""time"":2003.5},{""stimulus"":""https://ziweizhang0304.github.io/Stats_learning_trig/img/Stim/FN_008_g.png"",""time"":2051.800000011921},{""stimulus"":""blank"",""time"":2353.800000011921},{""stimulus"":""https://ziweizhang0304.github.io/Stats_learning_trig/img/Stim/FN_015_g.png"",""time"":2381.100000023842},{""stimulus"":""blank"",""time"":2689.899999976158},{""stimulus"":""https://ziweizhang0304.github.io/Stats_learning_trig/img/Stim/FN_018_g.png"",""time"":2721.100000023842},{""stimulus"":""blank"",""time"":3025},{""stimulus"":""https://ziweizhang0304.github.io/Stats_learning_trig/img/Stim/FN_004_g.png"",""time"":3061.199999988079},{""stimulus"":""blank"",""time"":3377.100000023842},{""stimulus"":""https://ziweizhang0304.github.io/Stats_learning_trig/img/Stim/FN_007_g.png"",""time"":3401.300000011921},{""stimulus"":""blank"",""time"":3712.100000023842},{""stimulus"":""https://ziweizhang0304.github.io/Stats_learning_trig/img/Stim/FN_022_g.png"",""time"":3744.399999976158},{""stimulus"":""blank"",""time"":4047.199999988079},{""stimulus"":""https://ziweizhang0304.github.io/Stats_learning_trig/img/Stim/FN_010_g.png"",""time"":4095.600000023842},{""stimulus"":""blank"",""time"":4399.300000011921}]","[{""key_press"":32,""rt"":3311.099999964237,""stimulus"":""https://ziweizhang0304.github.io/Stats_learning_trig/img/Stim/FN_004_g.png""}]","249.89999997615814","https://ziweizhang0304.github.io/Stats_learning_trig/img/Stim/FN_004_g.png","post_TD","20","3061.199999988079","3311.099999964237","fast","9","3","5eb24b26f30ede1a6ae46c14","","","","","",""
"","image-keyboard-response","53","258627","0.0-5.0-20.0-0.0","1193.800000011921","","","https://ziweizhang0304.github.io/Stats_learning_trig/img/Stim/FN_018_g.png","13","","","","","","","","","","","","","","","","","",""
"","animation","54","263062","0.0-5.0-20.0-1.0","","","","","","[{""stimulus"":""https://ziweizhang0304.github.io/Stats_learning_trig/img/Stim/FN_012_g.png"",""time"":353},{""stimulus"":""blank"",""time"":656.6999999880791},{""stimulus"":""https://ziweizhang0304.github.io/Stats_learning_trig/img/Stim/FN_005_g.png"",""time"":689},{""stimulus"":""blank"",""time"":990.8000000119209},{""stimulus"":""https://ziweizhang0304.github.io/Stats_learning_trig/img/Stim/FN_002_g.png"",""time"":1023.1000000238419},{""stimulus"":""blank"",""time"":1326.8999999761581},{""stimulus"":""https://ziweizhang0304.github.io/Stats_learning_trig/img/Stim/FN_016_g.png"",""time"":1360.800000011921},{""stimulus"":""blank"",""time"":1663.1000000238419},{""stimulus"":""https://ziweizhang0304.github.io/Stats_learning_trig/img/Stim/FN_023_g.png"",""time"":1701.199999988079},{""stimulus"":""blank"",""time"":2015},{""stimulus"":""https://ziweizhang0304.github.io/Stats_learning_trig/img/Stim/FN_008_g.png"",""time"":2041.199999988079},{""stimulus"":""blank"",""time"":2350.100000023842},{""stimulus"":""https://ziweizhang0304.github.io/Stats_learning_trig/img/Stim/FN_015_g.png"",""time"":2381.399999976158},{""stimulus"":""blank"",""time"":2684.699999988079},{""stimulus"":""https://ziweizhang0304.github.io/Stats_learning_trig/img/Stim/FN_018_g.png"",""time"":2720.899999976158},{""stimulus"":""blank"",""time"":3033.800000011921},{""stimulus"":""https://ziweizhang0304.github.io/Stats_learning_trig/img/Stim/FN_004_g.png"",""time"":3060.899999976158},{""stimulus"":""blank"",""time"":3366.899999976158},{""stimulus"":""https://ziweizhang0304.github.io/Stats_learning_trig/img/Stim/FN_007_g.png"",""time"":3401},{""stimulus"":""blank"",""time"":3701.899999976158},{""stimulus"":""https://ziweizhang0304.github.io/Stats_learning_trig/img/Stim/FN_022_g.png"",""time"":3750.199999988079},{""stimulus"":""blank"",""time"":4051},{""stimulus"":""https://ziweizhang0304.github.io/Stats_learning_trig/img/Stim/FN_010_g.png"",""time"":4081.199999988079},{""stimulus"":""blank"",""time"":4386.100000023842}]","[{""key_press"":32,""rt"":3198.900000035763,""stimulus"":""https://ziweizhang0304.github.io/Stats_learning_trig/img/Stim/FN_004_g.png""}]","478.00000005960464","https://ziweizhang0304.github.io/Stats_learning_trig/img/Stim/FN_018_g.png","post_TD","21","2720.899999976158","3198.900000035763","fast","8","2","5eb24b26f30ede1a6ae46c14","","","","","",""
"","image-keyboard-response","55","264299","0.0-5.0-21.0-0.0","1236","","","https://ziweizhang0304.github.io/Stats_learning_trig/img/Stim/FN_018_g.png","13","","","","","","","","","","","","","","","","","",""
"","animation","56","268725","0.0-5.0-21.0-1.0","","","","","","[{""stimulus"":""https://ziweizhang0304.github.io/Stats_learning_trig/img/Stim/FN_016_g.png"",""time"":356.19999998807907},{""stimulus"":""blank"",""time"":658.8000000119209},{""stimulus"":""https://ziweizhang0304.github.io/Stats_learning_trig/img/Stim/FN_007_g.png"",""time"":691.1000000238419},{""stimulus"":""blank"",""time"":994.8000000119209},{""stimulus"":""https://ziweizhang0304.github.io/Stats_learning_trig/img/Stim/FN_002_g.png"",""time"":1021.1000000238419},{""stimulus"":""blank"",""time"":1329.9000000357628},{""stimulus"":""https://ziweizhang0304.github.io/Stats_learning_trig/img/Stim/FN_022_g.png"",""time"":1360.9000000357628},{""stimulus"":""blank"",""time"":1666.1000000238419},{""stimulus"":""https://ziweizhang0304.github.io/Stats_learning_trig/img/Stim/FN_015_g.png"",""time"":1714.300000011921},{""stimulus"":""blank"",""time"":2016.199999988079},{""stimulus"":""https://ziweizhang0304.github.io/Stats_learning_trig/img/Stim/FN_018_g.png"",""time"":2041.300000011921},{""stimulus"":""blank"",""time"":2351.199999988079},{""stimulus"":""https://ziweizhang0304.github.io/Stats_learning_trig/img/Stim/FN_004_g.png"",""time"":2383.400000035763},{""stimulus"":""blank"",""time"":2686.900000035763},{""stimulus"":""https://ziweizhang0304.github.io/Stats_learning_trig/img/Stim/FN_008_g.png"",""time"":2721},{""stimulus"":""blank"",""time"":3022.900000035763},{""stimulus"":""https://ziweizhang0304.github.io/Stats_learning_trig/img/Stim/FN_012_g.png"",""time"":3071.199999988079},{""stimulus"":""blank"",""time"":3375},{""stimulus"":""https://ziweizhang0304.github.io/Stats_learning_trig/img/Stim/FN_010_g.png"",""time"":3401.199999988079},{""stimulus"":""blank"",""time"":3710},{""stimulus"":""https://ziweizhang0304.github.io/Stats_learning_trig/img/Stim/FN_005_g.png"",""time"":3742.400000035763},{""stimulus"":""blank"",""time"":4044},{""stimulus"":""https://ziweizhang0304.github.io/Stats_learning_trig/img/Stim/FN_023_g.png"",""time"":4092.300000011921},{""stimulus"":""blank"",""time"":4393.199999988079}]","[{""key_press"":32,""rt"":2446.7000000476837,""stimulus"":""https://ziweizhang0304.github.io/Stats_learning_trig/img/Stim/FN_004_g.png""}]","405.4000000357628","https://ziweizhang0304.github.io/Stats_learning_trig/img/Stim/FN_018_g.png","post_TD","22","2041.300000011921","2446.7000000476837","fast","6","2","5eb24b26f30ede1a6ae46c14","","","","","",""
"","image-keyboard-response","57","269779","0.0-5.0-22.0-0.0","1052.699999988079","","","https://ziweizhang0304.github.io/Stats_learning_trig/img/Stim/FN_004_g.png","13","","","","","","","","","","","","","","","","","",""
"","animation","58","274203","0.0-5.0-22.0-1.0","","","","","","[{""stimulus"":""https://ziweizhang0304.github.io/Stats_learning_trig/img/Stim/FN_016_g.png"",""time"":348},{""stimulus"":""blank"",""time"":650.5999999642372},{""stimulus"":""https://ziweizhang0304.github.io/Stats_learning_trig/img/Stim/FN_007_g.png"",""time"":682.8999999761581},{""stimulus"":""blank"",""time"":986.7999999523163},{""stimulus"":""https://ziweizhang0304.github.io/Stats_learning_trig/img/Stim/FN_002_g.png"",""time"":1021},{""stimulus"":""blank"",""time"":1322.7999999523163},{""stimulus"":""https://ziweizhang0304.github.io/Stats_learning_trig/img/Stim/FN_022_g.png"",""time"":1361},{""stimulus"":""blank"",""time"":1670.8999999761581},{""stimulus"":""https://ziweizhang0304.github.io/Stats_learning_trig/img/Stim/FN_015_g.png"",""time"":1701.199999988079},{""stimulus"":""blank"",""time"":2006},{""stimulus"":""https://ziweizhang0304.github.io/Stats_learning_trig/img/Stim/FN_018_g.png"",""time"":2054.2999999523163},{""stimulus"":""blank"",""time"":2357.099999964237},{""stimulus"":""https://ziweizhang0304.github.io/Stats_learning_trig/img/Stim/FN_004_g.png"",""time"":2381.2999999523163},{""stimulus"":""blank"",""time"":2688.099999964237},{""stimulus"":""https://ziweizhang0304.github.io/Stats_learning_trig/img/Stim/FN_008_g.png"",""time"":2721.099999964237},{""stimulus"":""blank"",""time"":3023.199999988079},{""stimulus"":""https://ziweizhang0304.github.io/Stats_learning_trig/img/Stim/FN_012_g.png"",""time"":3071.5},{""stimulus"":""blank"",""time"":3386.7999999523163},{""stimulus"":""https://ziweizhang0304.github.io/Stats_learning_trig/img/Stim/FN_010_g.png"",""time"":3401},{""stimulus"":""blank"",""time"":3701.7999999523163},{""stimulus"":""https://ziweizhang0304.github.io/Stats_learning_trig/img/Stim/FN_005_g.png"",""time"":3750.099999964237},{""stimulus"":""blank"",""time"":4052.899999976158},{""stimulus"":""https://ziweizhang0304.github.io/Stats_learning_trig/img/Stim/FN_023_g.png"",""time"":4085.199999988079},{""stimulus"":""blank"",""time"":4387.099999964237}]","[{""key_press"":32,""rt"":2814.900000035763,""stimulus"":""https://ziweizhang0304.github.io/Stats_learning_trig/img/Stim/FN_008_g.png""}]","433.6000000834465","https://ziweizhang0304.github.io/Stats_learning_trig/img/Stim/FN_004_g.png","post_TD","23","2381.2999999523163","2814.900000035763","fast","7","3","5eb24b26f30ede1a6ae46c14","","","","","",""
"","image-keyboard-response","59","275307","0.0-5.0-23.0-0.0","1103.1000000238419","","","https://ziweizhang0304.github.io/Stats_learning_trig/img/Stim/FN_015_g.png","13","","","","","","","","","","","","","","","","","",""
"","animation","60","279731","0.0-5.0-23.0-1.0","","","","","","[{""stimulus"":""https://ziweizhang0304.github.io/Stats_learning_trig/img/Stim/FN_012_g.png"",""time"":346},{""stimulus"":""blank"",""time"":647.6000000238419},{""stimulus"":""https://ziweizhang0304.github.io/Stats_learning_trig/img/Stim/FN_007_g.png"",""time"":680.9000000357628},{""stimulus"":""blank"",""time"":982.2000000476837},{""stimulus"":""https://ziweizhang0304.github.io/Stats_learning_trig/img/Stim/FN_010_g.png"",""time"":1020.5},{""stimulus"":""blank"",""time"":1333.300000011921},{""stimulus"":""https://ziweizhang0304.github.io/Stats_learning_trig/img/Stim/FN_002_g.png"",""time"":1360.5},{""stimulus"":""blank"",""time"":1666.4000000357628},{""stimulus"":""https://ziweizhang0304.github.io/Stats_learning_trig/img/Stim/FN_023_g.png"",""time"":1713.2000000476837},{""stimulus"":""blank"",""time"":2015.5},{""stimulus"":""https://ziweizhang0304.github.io/Stats_learning_trig/img/Stim/FN_015_g.png"",""time"":2040.6000000238419},{""stimulus"":""blank"",""time"":2350.5},{""stimulus"":""https://ziweizhang0304.github.io/Stats_learning_trig/img/Stim/FN_018_g.png"",""time"":2380.900000035763},{""stimulus"":""blank"",""time"":2684.600000023842},{""stimulus"":""https://ziweizhang0304.github.io/Stats_learning_trig/img/Stim/FN_004_g.png"",""time"":2732.900000035763},{""stimulus"":""blank"",""time"":3035.800000011921},{""stimulus"":""https://ziweizhang0304.github.io/Stats_learning_trig/img/Stim/FN_008_g.png"",""time"":3061},{""stimulus"":""blank"",""time"":3369.800000011921},{""stimulus"":""https://ziweizhang0304.github.io/Stats_learning_trig/img/Stim/FN_022_g.png"",""time"":3402},{""stimulus"":""blank"",""time"":3704.900000035763},{""stimulus"":""https://ziweizhang0304.github.io/Stats_learning_trig/img/Stim/FN_016_g.png"",""time"":3741.100000023842},{""stimulus"":""blank"",""time"":4055.900000035763},{""stimulus"":""https://ziweizhang0304.github.io/Stats_learning_trig/img/Stim/FN_005_g.png"",""time"":4081.2000000476837},{""stimulus"":""blank"",""time"":4391}]","[{""key_press"":32,""rt"":2415.199999988079,""stimulus"":""https://ziweizhang0304.github.io/Stats_learning_trig/img/Stim/FN_018_g.png""}]","374.5999999642372","https://ziweizhang0304.github.io/Stats_learning_trig/img/Stim/FN_015_g.png","post_TD","24","2040.6000000238419","2415.199999988079","fast","6","1","5eb24b26f30ede1a6ae46c14","9be92","","","","",""
"","survey-text","61","348858","0.0-6.0","69118","","","","","","","","","","","","","","","","","","{""Q0"":""For some of the shapes, I made a mental not of the shape and an object that it looked like. For example: a door, the @ symbol, etc.""}","","","",""
"","survey-text","62","453078","0.0-7.0","104217.5","","","","","","","","","","","","","","","","","","{""[object Object]"":""I did not notice any patterns, except that the targeted shape always appeared somewhere close to the middle, never right at the beginning or end.""}","","","",""
"","instructions","63","468075","0.0-8.0","14996.299999952316","","[{""page_index"":0,""viewing_time"":14995.799999952316}]","","","","","","","","","","","","","","","","","","","",""
"","free-sort","64","497407","0.0-9.0","29330.69999998808","","","","","","","","","post_drag","","","","fast","","","","","","[{""src"":""https://ziweizhang0304.github.io/Stats_learning_trig/img/Stim/FN_015_g.png"",""x"":475,""y"":0},{""src"":""https://ziweizhang0304.github.io/Stats_learning_trig/img/Stim/FN_004_g.png"",""x"":-225,""y"":50},{""src"":""https://ziweizhang0304.github.io/Stats_learning_trig/img/Stim/FN_018_g.png"",""x"":475,""y"":50}]","[{""src"":""https://ziweizhang0304.github.io/Stats_learning_trig/img/Stim/FN_015_g.png"",""x"":24,""y"":20},{""src"":""https://ziweizhang0304.github.io/Stats_learning_trig/img/Stim/FN_018_g.png"",""x"":92,""y"":29},{""src"":""https://ziweizhang0304.github.io/Stats_learning_trig/img/Stim/FN_004_g.png"",""x"":208,""y"":11}]","[{""src"":""https://ziweizhang0304.github.io/Stats_learning_trig/img/Stim/FN_015_g.png"",""x"":24,""y"":20},{""src"":""https://ziweizhang0304.github.io/Stats_learning_trig/img/Stim/FN_004_g.png"",""x"":208,""y"":11},{""src"":""https://ziweizhang0304.github.io/Stats_learning_trig/img/Stim/FN_018_g.png"",""x"":92,""y"":29}]",""
"","free-sort","65","509838","0.0-10.0","12429.5","","","","","","","","","post_drag","","","","slow","","","","","","[{""src"":""https://ziweizhang0304.github.io/Stats_learning_trig/img/Stim/FN_019_g.png"",""x"":475,""y"":0},{""src"":""https://ziweizhang0304.github.io/Stats_learning_trig/img/Stim/FN_003_g.png"",""x"":-225,""y"":50},{""src"":""https://ziweizhang0304.github.io/Stats_learning_trig/img/Stim/FN_009_g.png"",""x"":475,""y"":50}]","[{""src"":""https://ziweizhang0304.github.io/Stats_learning_trig/img/Stim/FN_009_g.png"",""x"":34,""y"":31},{""src"":""https://ziweizhang0304.github.io/Stats_learning_trig/img/Stim/FN_019_g.png"",""x"":111,""y"":31},{""src"":""https://ziweizhang0304.github.io/Stats_learning_trig/img/Stim/FN_003_g.png"",""x"":240,""y"":16}]","[{""src"":""https://ziweizhang0304.github.io/Stats_learning_trig/img/Stim/FN_019_g.png"",""x"":111,""y"":31},{""src"":""https://ziweizhang0304.github.io/Stats_learning_trig/img/Stim/FN_003_g.png"",""x"":240,""y"":16},{""src"":""https://ziweizhang0304.github.io/Stats_learning_trig/img/Stim/FN_009_g.png"",""x"":34,""y"":31}]",""
"","survey-multi-choice","66","526987","0.0-11.0","17146.30000001192","","","","","","","","","","","","","","","","5eb24b26f30ede1a6ae46c14","","{""awareness"":""No"",""attention_check"":""Press SPACEBAR to a target""}","","","","[0,1]"
