"success","trial_type","trial_index","time_elapsed","internal_node_id","rt","url","view_history","stimulus","key_press","animation_sequence","response","TD_rt","TD_target","test_part","TD_trial_number","onset","offset","attention_state","TD_target_position","TD_within_triplet_counter","participant","yoke_participant","responses","init_locations","moves","final_locations","question_order"
"true","fullscreen","0","6543","0.0-0.0","","","","","","","","","","","","","","","","","","","","","","",""
"","external-html","1","15727","0.0-1.0","9054.800000000745","https://ziweizhang0304.github.io/Stats_learning_trig/content/consent.html","","","","","","","","","","","","","","","","","","","","",""
"","instructions","2","40736","0.0-2.0","25005.099999997765","","[{""page_index"":0,""viewing_time"":1929.5999999977648},{""page_index"":1,""viewing_time"":10263.10000000149},{""page_index"":2,""viewing_time"":11033.60000000149},{""page_index"":3,""viewing_time"":1777.2999999970198}]","","","","","","","","","","","","","","","","","","","",""
"","image-keyboard-response","3","47254","0.0-3.0-0.0-0.0","6516.199999999255","","","https://ziweizhang0304.github.io/Stats_learning_trig/img/Stim/FN_019_g.png","13","","","","","","","","","","","","","","","","","",""
"","animation","4","51680","0.0-3.0-0.0-1.0","","","","","","[{""stimulus"":""https://ziweizhang0304.github.io/Stats_learning_trig/img/Stim/FN_008_g.png"",""time"":356.4000000022352},{""stimulus"":""blank"",""time"":660.6000000014901},{""stimulus"":""https://ziweizhang0304.github.io/Stats_learning_trig/img/Stim/FN_014_g.png"",""time"":682.1999999992549},{""stimulus"":""blank"",""time"":987.8000000007451},{""stimulus"":""https://ziweizhang0304.github.io/Stats_learning_trig/img/Stim/FN_009_g.png"",""time"":1022.6999999992549},{""stimulus"":""blank"",""time"":1324.5},{""stimulus"":""https://ziweizhang0304.github.io/Stats_learning_trig/img/Stim/FN_024_g.png"",""time"":1362.5},{""stimulus"":""blank"",""time"":1662.9000000022352},{""stimulus"":""https://ziweizhang0304.github.io/Stats_learning_trig/img/Stim/FN_001_g.png"",""time"":1702.5},{""stimulus"":""blank"",""time"":2005.4000000022352},{""stimulus"":""https://ziweizhang0304.github.io/Stats_learning_trig/img/Stim/FN_005_g.png"",""time"":2042.5},{""stimulus"":""blank"",""time"":2347},{""stimulus"":""https://ziweizhang0304.github.io/Stats_learning_trig/img/Stim/FN_018_g.png"",""time"":2382.900000002235},{""stimulus"":""blank"",""time"":2683.800000000745},{""stimulus"":""https://ziweizhang0304.github.io/Stats_learning_trig/img/Stim/FN_002_g.png"",""time"":2724.60000000149},{""stimulus"":""blank"",""time"":3026.10000000149},{""stimulus"":""https://ziweizhang0304.github.io/Stats_learning_trig/img/Stim/FN_019_g.png"",""time"":3062.800000000745},{""stimulus"":""blank"",""time"":3365.10000000149},{""stimulus"":""https://ziweizhang0304.github.io/Stats_learning_trig/img/Stim/FN_016_g.png"",""time"":3405.199999999255},{""stimulus"":""blank"",""time"":3705.60000000149},{""stimulus"":""https://ziweizhang0304.github.io/Stats_learning_trig/img/Stim/FN_010_g.png"",""time"":3741.60000000149},{""stimulus"":""blank"",""time"":4042.900000002235},{""stimulus"":""https://ziweizhang0304.github.io/Stats_learning_trig/img/Stim/FN_020_g.png"",""time"":4084},{""stimulus"":""blank"",""time"":4384.400000002235}]","[{""key_press"":32,""rt"":3557.599999997765,""stimulus"":""https://ziweizhang0304.github.io/Stats_learning_trig/img/Stim/FN_016_g.png""}]","494.79999999701977","https://ziweizhang0304.github.io/Stats_learning_trig/img/Stim/FN_019_g.png","post_prac","","","","","","","","","","","","",""
"","html-keyboard-response","5","56475","0.0-3.0-0.0-2.0","4789.900000002235","","","<p>Your reaction time for this trial was 494.8 ms.</p><p>Remember that you should only press the SPACEBAR when you see the shape presented at the beginning of the trial. </b> </p><p>Press enter to move on.</p>","13","","","","","","","","","","","","","","","","","",""
"","image-keyboard-response","6","59685","0.0-3.0-1.0-0.0","3209.199999999255","","","https://ziweizhang0304.github.io/Stats_learning_trig/img/Stim/FN_011_g.png","13","","","","","","","","","","","","","","","","","",""
"","animation","7","64112","0.0-3.0-1.0-1.0","","","","","","[{""stimulus"":""https://ziweizhang0304.github.io/Stats_learning_trig/img/Stim/FN_008_g.png"",""time"":344.6000000014901},{""stimulus"":""blank"",""time"":648.9000000022352},{""stimulus"":""https://ziweizhang0304.github.io/Stats_learning_trig/img/Stim/FN_005_g.png"",""time"":682.5},{""stimulus"":""blank"",""time"":983.6000000014901},{""stimulus"":""https://ziweizhang0304.github.io/Stats_learning_trig/img/Stim/FN_009_g.png"",""time"":1025},{""stimulus"":""blank"",""time"":1326.4000000022352},{""stimulus"":""https://ziweizhang0304.github.io/Stats_learning_trig/img/Stim/FN_001_g.png"",""time"":1361.4000000022352},{""stimulus"":""blank"",""time"":1666},{""stimulus"":""https://ziweizhang0304.github.io/Stats_learning_trig/img/Stim/FN_011_g.png"",""time"":1702.300000000745},{""stimulus"":""blank"",""time"":2003},{""stimulus"":""https://ziweizhang0304.github.io/Stats_learning_trig/img/Stim/FN_021_g.png"",""time"":2045.1000000014901},{""stimulus"":""blank"",""time"":2346.60000000149},{""stimulus"":""https://ziweizhang0304.github.io/Stats_learning_trig/img/Stim/FN_023_g.png"",""time"":2382.5},{""stimulus"":""blank"",""time"":2683.7000000029802},{""stimulus"":""https://ziweizhang0304.github.io/Stats_learning_trig/img/Stim/FN_014_g.png"",""time"":2726.300000000745},{""stimulus"":""blank"",""time"":3026.800000000745},{""stimulus"":""https://ziweizhang0304.github.io/Stats_learning_trig/img/Stim/FN_020_g.png"",""time"":3061.2000000029802},{""stimulus"":""blank"",""time"":3366.7000000029802},{""stimulus"":""https://ziweizhang0304.github.io/Stats_learning_trig/img/Stim/FN_016_g.png"",""time"":3402.7000000029802},{""stimulus"":""blank"",""time"":3704.800000000745},{""stimulus"":""https://ziweizhang0304.github.io/Stats_learning_trig/img/Stim/FN_018_g.png"",""time"":3742.900000002235},{""stimulus"":""blank"",""time"":4047.900000002235},{""stimulus"":""https://ziweizhang0304.github.io/Stats_learning_trig/img/Stim/FN_010_g.png"",""time"":4082.10000000149},{""stimulus"":""blank"",""time"":4383.300000000745}]","[{""key_press"":32,""rt"":2108.7999999970198,""stimulus"":""https://ziweizhang0304.github.io/Stats_learning_trig/img/Stim/FN_021_g.png""}]","406.4999999962747","https://ziweizhang0304.github.io/Stats_learning_trig/img/Stim/FN_011_g.png","post_prac","","","","","","","","","","","","",""
"","html-keyboard-response","8","66780","0.0-3.0-1.0-2.0","2665.10000000149","","","<p>Your reaction time for this trial was 406.5 ms.</p><p>Remember that you should only press the SPACEBAR when you see the shape presented at the beginning of the trial. </b> </p><p>Press enter to move on.</p>","13","","","","","","","","","","","","","","","","","",""
"","image-keyboard-response","9","69459","0.0-3.0-2.0-0.0","2677.599999997765","","","https://ziweizhang0304.github.io/Stats_learning_trig/img/Stim/FN_021_g.png","13","","","","","","","","","","","","","","","","","",""
"","animation","10","73883","0.0-3.0-2.0-1.0","","","","","","[{""stimulus"":""https://ziweizhang0304.github.io/Stats_learning_trig/img/Stim/FN_010_g.png"",""time"":341.6000000014901},{""stimulus"":""blank"",""time"":643.3000000007451},{""stimulus"":""https://ziweizhang0304.github.io/Stats_learning_trig/img/Stim/FN_009_g.png"",""time"":686.3000000007451},{""stimulus"":""blank"",""time"":991.6999999992549},{""stimulus"":""https://ziweizhang0304.github.io/Stats_learning_trig/img/Stim/FN_005_g.png"",""time"":1023.1000000014901},{""stimulus"":""blank"",""time"":1323.6000000014901},{""stimulus"":""https://ziweizhang0304.github.io/Stats_learning_trig/img/Stim/FN_008_g.png"",""time"":1361.1000000014901},{""stimulus"":""blank"",""time"":1663.6000000014901},{""stimulus"":""https://ziweizhang0304.github.io/Stats_learning_trig/img/Stim/FN_014_g.png"",""time"":1705.3999999985099},{""stimulus"":""blank"",""time"":2005.8999999985099},{""stimulus"":""https://ziweizhang0304.github.io/Stats_learning_trig/img/Stim/FN_020_g.png"",""time"":2043.3999999985099},{""stimulus"":""blank"",""time"":2348.89999999851},{""stimulus"":""https://ziweizhang0304.github.io/Stats_learning_trig/img/Stim/FN_011_g.png"",""time"":2384.89999999851},{""stimulus"":""blank"",""time"":2687.10000000149},{""stimulus"":""https://ziweizhang0304.github.io/Stats_learning_trig/img/Stim/FN_021_g.png"",""time"":2724.10000000149},{""stimulus"":""blank"",""time"":3024.60000000149},{""stimulus"":""https://ziweizhang0304.github.io/Stats_learning_trig/img/Stim/FN_023_g.png"",""time"":3061.60000000149},{""stimulus"":""blank"",""time"":3363.60000000149},{""stimulus"":""https://ziweizhang0304.github.io/Stats_learning_trig/img/Stim/FN_016_g.png"",""time"":3406.199999999255},{""stimulus"":""blank"",""time"":3706.800000000745},{""stimulus"":""https://ziweizhang0304.github.io/Stats_learning_trig/img/Stim/FN_018_g.png"",""time"":3743.5},{""stimulus"":""blank"",""time"":4045.699999999255},{""stimulus"":""https://ziweizhang0304.github.io/Stats_learning_trig/img/Stim/FN_001_g.png"",""time"":4081.89999999851},{""stimulus"":""blank"",""time"":4383.199999999255}]","[{""key_press"":32,""rt"":3175.800000000745,""stimulus"":""https://ziweizhang0304.github.io/Stats_learning_trig/img/Stim/FN_023_g.png""}]","451.69999999925494","https://ziweizhang0304.github.io/Stats_learning_trig/img/Stim/FN_021_g.png","post_prac","","","","","","","","","","","","",""
"","html-keyboard-response","11","77028","0.0-3.0-2.0-2.0","3141.699999999255","","","<p>Your reaction time for this trial was 451.7 ms.</p><p>Remember that you should only press the SPACEBAR when you see the shape presented at the beginning of the trial. </b> </p><p>Press enter to move on.</p>","13","","","","","","","","","","","","","","","","","",""
"","instructions","12","79341","0.0-4.0","2311.89999999851","","[{""page_index"":0,""viewing_time"":2311.5}]","","","","","","","","","","","","","","","","","","","",""
"","image-keyboard-response","13","81466","0.0-5.0-0.0-0.0","2123.800000000745","","","https://ziweizhang0304.github.io/Stats_learning_trig/img/Stim/FN_019_g.png","13","","","","","","","","","","","","","","","","","",""
"","animation","14","85888","0.0-5.0-0.0-1.0","","","","","","[{""stimulus"":""https://ziweizhang0304.github.io/Stats_learning_trig/img/Stim/FN_014_g.png"",""time"":346.3999999985099},{""stimulus"":""blank"",""time"":648.7999999970198},{""stimulus"":""https://ziweizhang0304.github.io/Stats_learning_trig/img/Stim/FN_018_g.png"",""time"":681.7999999970198},{""stimulus"":""blank"",""time"":985},{""stimulus"":""https://ziweizhang0304.github.io/Stats_learning_trig/img/Stim/FN_016_g.png"",""time"":1022.5},{""stimulus"":""blank"",""time"":1324.199999999255},{""stimulus"":""https://ziweizhang0304.github.io/Stats_learning_trig/img/Stim/FN_010_g.png"",""time"":1364.7999999970198},{""stimulus"":""blank"",""time"":1666},{""stimulus"":""https://ziweizhang0304.github.io/Stats_learning_trig/img/Stim/FN_024_g.png"",""time"":1701.2999999970198},{""stimulus"":""blank"",""time"":2002.699999999255},{""stimulus"":""https://ziweizhang0304.github.io/Stats_learning_trig/img/Stim/FN_019_g.png"",""time"":2040.7999999970198},{""stimulus"":""blank"",""time"":2341.2999999970198},{""stimulus"":""https://ziweizhang0304.github.io/Stats_learning_trig/img/Stim/FN_002_g.png"",""time"":2385.599999997765},{""stimulus"":""blank"",""time"":2689.89999999851},{""stimulus"":""https://ziweizhang0304.github.io/Stats_learning_trig/img/Stim/FN_020_g.png"",""time"":2722.39999999851},{""stimulus"":""blank"",""time"":3024.2999999970198},{""stimulus"":""https://ziweizhang0304.github.io/Stats_learning_trig/img/Stim/FN_008_g.png"",""time"":3065.099999997765},{""stimulus"":""blank"",""time"":3370.39999999851},{""stimulus"":""https://ziweizhang0304.github.io/Stats_learning_trig/img/Stim/FN_005_g.png"",""time"":3402.599999997765},{""stimulus"":""blank"",""time"":3704.099999997765},{""stimulus"":""https://ziweizhang0304.github.io/Stats_learning_trig/img/Stim/FN_009_g.png"",""time"":3744.699999999255},{""stimulus"":""blank"",""time"":4048.89999999851},{""stimulus"":""https://ziweizhang0304.github.io/Stats_learning_trig/img/Stim/FN_001_g.png"",""time"":4083.599999997765},{""stimulus"":""blank"",""time"":4384.199999999255}]","[{""key_press"":32,""rt"":2438.800000000745,""stimulus"":""https://ziweizhang0304.github.io/Stats_learning_trig/img/Stim/FN_002_g.png""}]","398.0000000037253","https://ziweizhang0304.github.io/Stats_learning_trig/img/Stim/FN_019_g.png","post_TD","1","2040.7999999970198","2438.800000000745","slow","6","2","626952f29221cc2ef888c8ac","","","","","",""
"","image-keyboard-response","15","88876","0.0-5.0-1.0-0.0","2984.699999999255","","","https://ziweizhang0304.github.io/Stats_learning_trig/img/Stim/FN_024_g.png","13","","","","","","","","","","","","","","","","","",""
"","animation","16","93297","0.0-5.0-1.0-1.0","","","","","","[{""stimulus"":""https://ziweizhang0304.github.io/Stats_learning_trig/img/Stim/FN_016_g.png"",""time"":341.5},{""stimulus"":""blank"",""time"":642.7999999970198},{""stimulus"":""https://ziweizhang0304.github.io/Stats_learning_trig/img/Stim/FN_014_g.png"",""time"":685.8999999985099},{""stimulus"":""blank"",""time"":989.8999999985099},{""stimulus"":""https://ziweizhang0304.github.io/Stats_learning_trig/img/Stim/FN_020_g.png"",""time"":1023.0999999977648},{""stimulus"":""blank"",""time"":1327.7999999970198},{""stimulus"":""https://ziweizhang0304.github.io/Stats_learning_trig/img/Stim/FN_001_g.png"",""time"":1362.2999999970198},{""stimulus"":""blank"",""time"":1667.7999999970198},{""stimulus"":""https://ziweizhang0304.github.io/Stats_learning_trig/img/Stim/FN_005_g.png"",""time"":1701.2999999970198},{""stimulus"":""blank"",""time"":2003.199999999255},{""stimulus"":""https://ziweizhang0304.github.io/Stats_learning_trig/img/Stim/FN_024_g.png"",""time"":2042.5999999977648},{""stimulus"":""blank"",""time"":2344.39999999851},{""stimulus"":""https://ziweizhang0304.github.io/Stats_learning_trig/img/Stim/FN_019_g.png"",""time"":2382.099999997765},{""stimulus"":""blank"",""time"":2687.5},{""stimulus"":""https://ziweizhang0304.github.io/Stats_learning_trig/img/Stim/FN_002_g.png"",""time"":2722.699999999255},{""stimulus"":""blank"",""time"":3026.099999997765},{""stimulus"":""https://ziweizhang0304.github.io/Stats_learning_trig/img/Stim/FN_008_g.png"",""time"":3062.699999999255},{""stimulus"":""blank"",""time"":3365.5},{""stimulus"":""https://ziweizhang0304.github.io/Stats_learning_trig/img/Stim/FN_018_g.png"",""time"":3402.39999999851},{""stimulus"":""blank"",""time"":3703.89999999851},{""stimulus"":""https://ziweizhang0304.github.io/Stats_learning_trig/img/Stim/FN_009_g.png"",""time"":3742.2999999970198},{""stimulus"":""blank"",""time"":4043.7999999970198},{""stimulus"":""https://ziweizhang0304.github.io/Stats_learning_trig/img/Stim/FN_010_g.png"",""time"":4083.7999999970198},{""stimulus"":""blank"",""time"":4386.89999999851}]","[{""key_press"":32,""rt"":2388.39999999851,""stimulus"":""https://ziweizhang0304.github.io/Stats_learning_trig/img/Stim/FN_019_g.png""}]","345.80000000074506","https://ziweizhang0304.github.io/Stats_learning_trig/img/Stim/FN_024_g.png","post_TD","2","2042.5999999977648","2388.39999999851","slow","6","1","626952f29221cc2ef888c8ac","","","","","",""
"","image-keyboard-response","17","95746","0.0-5.0-2.0-0.0","2445.699999999255","","","https://ziweizhang0304.github.io/Stats_learning_trig/img/Stim/FN_011_g.png","13","","","","","","","","","","","","","","","","","",""
"","animation","18","100168","0.0-5.0-2.0-1.0","","","","","","[{""stimulus"":""https://ziweizhang0304.github.io/Stats_learning_trig/img/Stim/FN_009_g.png"",""time"":342.1000000014901},{""stimulus"":""blank"",""time"":644.1000000014901},{""stimulus"":""https://ziweizhang0304.github.io/Stats_learning_trig/img/Stim/FN_014_g.png"",""time"":684.6999999992549},{""stimulus"":""blank"",""time"":987.1999999992549},{""stimulus"":""https://ziweizhang0304.github.io/Stats_learning_trig/img/Stim/FN_018_g.png"",""time"":1022.1999999992549},{""stimulus"":""blank"",""time"":1323.800000000745},{""stimulus"":""https://ziweizhang0304.github.io/Stats_learning_trig/img/Stim/FN_011_g.png"",""time"":1365.6000000014901},{""stimulus"":""blank"",""time"":1668.9000000022352},{""stimulus"":""https://ziweizhang0304.github.io/Stats_learning_trig/img/Stim/FN_021_g.png"",""time"":1701.699999999255},{""stimulus"":""blank"",""time"":2005.199999999255},{""stimulus"":""https://ziweizhang0304.github.io/Stats_learning_trig/img/Stim/FN_023_g.png"",""time"":2042.4000000022352},{""stimulus"":""blank"",""time"":2344.10000000149},{""stimulus"":""https://ziweizhang0304.github.io/Stats_learning_trig/img/Stim/FN_020_g.png"",""time"":2384.800000000745},{""stimulus"":""blank"",""time"":2689},{""stimulus"":""https://ziweizhang0304.github.io/Stats_learning_trig/img/Stim/FN_008_g.png"",""time"":2721.10000000149},{""stimulus"":""blank"",""time"":3021.699999999255},{""stimulus"":""https://ziweizhang0304.github.io/Stats_learning_trig/img/Stim/FN_016_g.png"",""time"":3065.900000002235},{""stimulus"":""blank"",""time"":3367.300000000745},{""stimulus"":""https://ziweizhang0304.github.io/Stats_learning_trig/img/Stim/FN_005_g.png"",""time"":3402.400000002235},{""stimulus"":""blank"",""time"":3707.800000000745},{""stimulus"":""https://ziweizhang0304.github.io/Stats_learning_trig/img/Stim/FN_001_g.png"",""time"":3742.10000000149},{""stimulus"":""blank"",""time"":4042.699999999255},{""stimulus"":""https://ziweizhang0304.github.io/Stats_learning_trig/img/Stim/FN_010_g.png"",""time"":4085.199999999255},{""stimulus"":""blank"",""time"":4389.5}]","[{""key_press"":32,""rt"":1738.699999999255,""stimulus"":""https://ziweizhang0304.github.io/Stats_learning_trig/img/Stim/FN_021_g.png""}]","373.0999999977648","https://ziweizhang0304.github.io/Stats_learning_trig/img/Stim/FN_011_g.png","post_TD","3","1365.6000000014901","1738.699999999255","fast","4","1","626952f29221cc2ef888c8ac","","","","","",""
"","image-keyboard-response","19","102038","0.0-5.0-3.0-0.0","1867","","","https://ziweizhang0304.github.io/Stats_learning_trig/img/Stim/FN_002_g.png","13","","","","","","","","","","","","","","","","","",""
"","animation","20","106464","0.0-5.0-3.0-1.0","","","","","","[{""stimulus"":""https://ziweizhang0304.github.io/Stats_learning_trig/img/Stim/FN_014_g.png"",""time"":341.69999999925494},{""stimulus"":""blank"",""time"":645.8000000007451},{""stimulus"":""https://ziweizhang0304.github.io/Stats_learning_trig/img/Stim/FN_010_g.png"",""time"":682.8000000007451},{""stimulus"":""blank"",""time"":984.6000000014901},{""stimulus"":""https://ziweizhang0304.github.io/Stats_learning_trig/img/Stim/FN_009_g.png"",""time"":1026.199999999255},{""stimulus"":""blank"",""time"":1327.699999999255},{""stimulus"":""https://ziweizhang0304.github.io/Stats_learning_trig/img/Stim/FN_024_g.png"",""time"":1363},{""stimulus"":""blank"",""time"":1668},{""stimulus"":""https://ziweizhang0304.github.io/Stats_learning_trig/img/Stim/FN_019_g.png"",""time"":1703},{""stimulus"":""blank"",""time"":2005.800000000745},{""stimulus"":""https://ziweizhang0304.github.io/Stats_learning_trig/img/Stim/FN_002_g.png"",""time"":2041.199999999255},{""stimulus"":""blank"",""time"":2345.10000000149},{""stimulus"":""https://ziweizhang0304.github.io/Stats_learning_trig/img/Stim/FN_020_g.png"",""time"":2382.699999999255},{""stimulus"":""blank"",""time"":2683.400000002235},{""stimulus"":""https://ziweizhang0304.github.io/Stats_learning_trig/img/Stim/FN_008_g.png"",""time"":2726.10000000149},{""stimulus"":""blank"",""time"":3027.699999999255},{""stimulus"":""https://ziweizhang0304.github.io/Stats_learning_trig/img/Stim/FN_016_g.png"",""time"":3064},{""stimulus"":""blank"",""time"":3366.800000000745},{""stimulus"":""https://ziweizhang0304.github.io/Stats_learning_trig/img/Stim/FN_005_g.png"",""time"":3401},{""stimulus"":""blank"",""time"":3702.900000002235},{""stimulus"":""https://ziweizhang0304.github.io/Stats_learning_trig/img/Stim/FN_018_g.png"",""time"":3743.5},{""stimulus"":""blank"",""time"":4043.900000002235},{""stimulus"":""https://ziweizhang0304.github.io/Stats_learning_trig/img/Stim/FN_001_g.png"",""time"":4081.199999999255},{""stimulus"":""blank"",""time"":4383.60000000149}]","[{""key_press"":32,""rt"":1399.800000000745,""stimulus"":""https://ziweizhang0304.github.io/Stats_learning_trig/img/Stim/FN_024_g.png""},{""key_press"":32,""rt"":2571.2000000029802,""stimulus"":""https://ziweizhang0304.github.io/Stats_learning_trig/img/Stim/FN_020_g.png""}]","530.0000000037253","https://ziweizhang0304.github.io/Stats_learning_trig/img/Stim/FN_002_g.png","post_TD","4","2041.199999999255","2571.2000000029802","slow","6","3","626952f29221cc2ef888c8ac","","","","","",""
"","image-keyboard-response","21","108792","0.0-5.0-4.0-0.0","2325.60000000149","","","https://ziweizhang0304.github.io/Stats_learning_trig/img/Stim/FN_002_g.png","13","","","","","","","","","","","","","","","","","",""
"","animation","22","113216","0.0-5.0-4.0-1.0","","","","","","[{""stimulus"":""https://ziweizhang0304.github.io/Stats_learning_trig/img/Stim/FN_014_g.png"",""time"":342.6000000014901},{""stimulus"":""blank"",""time"":645},{""stimulus"":""https://ziweizhang0304.github.io/Stats_learning_trig/img/Stim/FN_018_g.png"",""time"":681.3999999985099},{""stimulus"":""blank"",""time"":981.8000000007451},{""stimulus"":""https://ziweizhang0304.github.io/Stats_learning_trig/img/Stim/FN_016_g.png"",""time"":1022},{""stimulus"":""blank"",""time"":1322.5},{""stimulus"":""https://ziweizhang0304.github.io/Stats_learning_trig/img/Stim/FN_010_g.png"",""time"":1363.699999999255},{""stimulus"":""blank"",""time"":1669.199999999255},{""stimulus"":""https://ziweizhang0304.github.io/Stats_learning_trig/img/Stim/FN_024_g.png"",""time"":1703.199999999255},{""stimulus"":""blank"",""time"":2005.300000000745},{""stimulus"":""https://ziweizhang0304.github.io/Stats_learning_trig/img/Stim/FN_019_g.png"",""time"":2042.699999999255},{""stimulus"":""blank"",""time"":2348.199999999255},{""stimulus"":""https://ziweizhang0304.github.io/Stats_learning_trig/img/Stim/FN_002_g.png"",""time"":2383.5},{""stimulus"":""blank"",""time"":2686.60000000149},{""stimulus"":""https://ziweizhang0304.github.io/Stats_learning_trig/img/Stim/FN_020_g.png"",""time"":2721.60000000149},{""stimulus"":""blank"",""time"":3022.699999999255},{""stimulus"":""https://ziweizhang0304.github.io/Stats_learning_trig/img/Stim/FN_008_g.png"",""time"":3064},{""stimulus"":""blank"",""time"":3368.300000000745},{""stimulus"":""https://ziweizhang0304.github.io/Stats_learning_trig/img/Stim/FN_005_g.png"",""time"":3404.300000000745},{""stimulus"":""blank"",""time"":3708.10000000149},{""stimulus"":""https://ziweizhang0304.github.io/Stats_learning_trig/img/Stim/FN_009_g.png"",""time"":3745.39999999851},{""stimulus"":""blank"",""time"":4050.89999999851},{""stimulus"":""https://ziweizhang0304.github.io/Stats_learning_trig/img/Stim/FN_001_g.png"",""time"":4083.800000000745},{""stimulus"":""blank"",""time"":4388}]","[{""key_press"":32,""rt"":2728.800000000745,""stimulus"":""https://ziweizhang0304.github.io/Stats_learning_trig/img/Stim/FN_020_g.png""}]","345.30000000074506","https://ziweizhang0304.github.io/Stats_learning_trig/img/Stim/FN_002_g.png","post_TD","5","2383.5","2728.800000000745","slow","7","3","626952f29221cc2ef888c8ac","","","","","",""
"","image-keyboard-response","23","115397","0.0-5.0-5.0-0.0","2178","","","https://ziweizhang0304.github.io/Stats_learning_trig/img/Stim/FN_002_g.png","13","","","","","","","","","","","","","","","","","",""
"","animation","24","119819","0.0-5.0-5.0-1.0","","","","","","[{""stimulus"":""https://ziweizhang0304.github.io/Stats_learning_trig/img/Stim/FN_018_g.png"",""time"":341.5},{""stimulus"":""blank"",""time"":647},{""stimulus"":""https://ziweizhang0304.github.io/Stats_learning_trig/img/Stim/FN_016_g.png"",""time"":682},{""stimulus"":""blank"",""time"":986.2000000029802},{""stimulus"":""https://ziweizhang0304.github.io/Stats_learning_trig/img/Stim/FN_009_g.png"",""time"":1021.2000000029802},{""stimulus"":""blank"",""time"":1322.300000000745},{""stimulus"":""https://ziweizhang0304.github.io/Stats_learning_trig/img/Stim/FN_020_g.png"",""time"":1363},{""stimulus"":""blank"",""time"":1668.5},{""stimulus"":""https://ziweizhang0304.github.io/Stats_learning_trig/img/Stim/FN_001_g.png"",""time"":1703.6000000014901},{""stimulus"":""blank"",""time"":2006.800000000745},{""stimulus"":""https://ziweizhang0304.github.io/Stats_learning_trig/img/Stim/FN_005_g.png"",""time"":2042.1000000014901},{""stimulus"":""blank"",""time"":2347.60000000149},{""stimulus"":""https://ziweizhang0304.github.io/Stats_learning_trig/img/Stim/FN_024_g.png"",""time"":2382.7000000029802},{""stimulus"":""blank"",""time"":2684.2000000029802},{""stimulus"":""https://ziweizhang0304.github.io/Stats_learning_trig/img/Stim/FN_019_g.png"",""time"":2721.5},{""stimulus"":""blank"",""time"":3022.5},{""stimulus"":""https://ziweizhang0304.github.io/Stats_learning_trig/img/Stim/FN_002_g.png"",""time"":3062.10000000149},{""stimulus"":""blank"",""time"":3362.60000000149},{""stimulus"":""https://ziweizhang0304.github.io/Stats_learning_trig/img/Stim/FN_014_g.png"",""time"":3405.300000000745},{""stimulus"":""blank"",""time"":3709.800000000745},{""stimulus"":""https://ziweizhang0304.github.io/Stats_learning_trig/img/Stim/FN_008_g.png"",""time"":3742.900000002235},{""stimulus"":""blank"",""time"":4046.400000002235},{""stimulus"":""https://ziweizhang0304.github.io/Stats_learning_trig/img/Stim/FN_010_g.png"",""time"":4081.800000000745},{""stimulus"":""blank"",""time"":4382.400000002235}]","[{""key_press"":32,""rt"":3433.5,""stimulus"":""https://ziweizhang0304.github.io/Stats_learning_trig/img/Stim/FN_014_g.png""}]","371.3999999985099","https://ziweizhang0304.github.io/Stats_learning_trig/img/Stim/FN_002_g.png","post_TD","6","3062.10000000149","3433.5","slow","9","3","626952f29221cc2ef888c8ac","","","","","",""
"","image-keyboard-response","25","121718","0.0-5.0-6.0-0.0","1895.699999999255","","","https://ziweizhang0304.github.io/Stats_learning_trig/img/Stim/FN_019_g.png","13","","","","","","","","","","","","","","","","","",""
"","animation","26","126142","0.0-5.0-6.0-1.0","","","","","","[{""stimulus"":""https://ziweizhang0304.github.io/Stats_learning_trig/img/Stim/FN_016_g.png"",""time"":346.5999999977648},{""stimulus"":""blank"",""time"":647.7999999970198},{""stimulus"":""https://ziweizhang0304.github.io/Stats_learning_trig/img/Stim/FN_014_g.png"",""time"":682.7999999970198},{""stimulus"":""blank"",""time"":987.3999999985099},{""stimulus"":""https://ziweizhang0304.github.io/Stats_learning_trig/img/Stim/FN_020_g.png"",""time"":1022.2999999970198},{""stimulus"":""blank"",""time"":1327.699999999255},{""stimulus"":""https://ziweizhang0304.github.io/Stats_learning_trig/img/Stim/FN_001_g.png"",""time"":1361.2999999970198},{""stimulus"":""blank"",""time"":1664.8999999985099},{""stimulus"":""https://ziweizhang0304.github.io/Stats_learning_trig/img/Stim/FN_005_g.png"",""time"":1702.199999999255},{""stimulus"":""blank"",""time"":2003.8999999985099},{""stimulus"":""https://ziweizhang0304.github.io/Stats_learning_trig/img/Stim/FN_024_g.png"",""time"":2041.699999999255},{""stimulus"":""blank"",""time"":2346.7999999970198},{""stimulus"":""https://ziweizhang0304.github.io/Stats_learning_trig/img/Stim/FN_019_g.png"",""time"":2381.89999999851},{""stimulus"":""blank"",""time"":2682.199999999255},{""stimulus"":""https://ziweizhang0304.github.io/Stats_learning_trig/img/Stim/FN_002_g.png"",""time"":2722.599999997765},{""stimulus"":""blank"",""time"":3028.199999999255},{""stimulus"":""https://ziweizhang0304.github.io/Stats_learning_trig/img/Stim/FN_008_g.png"",""time"":3062.2999999970198},{""stimulus"":""blank"",""time"":3365.7999999970198},{""stimulus"":""https://ziweizhang0304.github.io/Stats_learning_trig/img/Stim/FN_018_g.png"",""time"":3401.7999999970198},{""stimulus"":""blank"",""time"":3703.599999997765},{""stimulus"":""https://ziweizhang0304.github.io/Stats_learning_trig/img/Stim/FN_009_g.png"",""time"":3740.599999997765},{""stimulus"":""blank"",""time"":4040.89999999851},{""stimulus"":""https://ziweizhang0304.github.io/Stats_learning_trig/img/Stim/FN_010_g.png"",""time"":4085.5},{""stimulus"":""blank"",""time"":4389.099999997765}]","[{""key_press"":32,""rt"":2781.199999999255,""stimulus"":""https://ziweizhang0304.github.io/Stats_learning_trig/img/Stim/FN_002_g.png""}]","399.30000000074506","https://ziweizhang0304.github.io/Stats_learning_trig/img/Stim/FN_019_g.png","post_TD","7","2381.89999999851","2781.199999999255","slow","7","2","626952f29221cc2ef888c8ac","","","","","",""
"","image-keyboard-response","27","128515","0.0-5.0-7.0-0.0","2370.099999997765","","","https://ziweizhang0304.github.io/Stats_learning_trig/img/Stim/FN_023_g.png","13","","","","","","","","","","","","","","","","","",""
"","animation","28","132938","0.0-5.0-7.0-1.0","","","","","","[{""stimulus"":""https://ziweizhang0304.github.io/Stats_learning_trig/img/Stim/FN_008_g.png"",""time"":346.3999999985099},{""stimulus"":""blank"",""time"":651.1999999992549},{""stimulus"":""https://ziweizhang0304.github.io/Stats_learning_trig/img/Stim/FN_005_g.png"",""time"":684.0999999977648},{""stimulus"":""blank"",""time"":988.3000000007451},{""stimulus"":""https://ziweizhang0304.github.io/Stats_learning_trig/img/Stim/FN_009_g.png"",""time"":1023.6999999992549},{""stimulus"":""blank"",""time"":1329.199999999255},{""stimulus"":""https://ziweizhang0304.github.io/Stats_learning_trig/img/Stim/FN_001_g.png"",""time"":1364.3999999985099},{""stimulus"":""blank"",""time"":1668.8999999985099},{""stimulus"":""https://ziweizhang0304.github.io/Stats_learning_trig/img/Stim/FN_011_g.png"",""time"":1701.300000000745},{""stimulus"":""blank"",""time"":2002.0999999977648},{""stimulus"":""https://ziweizhang0304.github.io/Stats_learning_trig/img/Stim/FN_021_g.png"",""time"":2042.5},{""stimulus"":""blank"",""time"":2343.300000000745},{""stimulus"":""https://ziweizhang0304.github.io/Stats_learning_trig/img/Stim/FN_023_g.png"",""time"":2384.89999999851},{""stimulus"":""blank"",""time"":2689.300000000745},{""stimulus"":""https://ziweizhang0304.github.io/Stats_learning_trig/img/Stim/FN_014_g.png"",""time"":2722.199999999255},{""stimulus"":""blank"",""time"":3027.599999997765},{""stimulus"":""https://ziweizhang0304.github.io/Stats_learning_trig/img/Stim/FN_020_g.png"",""time"":3062.699999999255},{""stimulus"":""blank"",""time"":3364.099999997765},{""stimulus"":""https://ziweizhang0304.github.io/Stats_learning_trig/img/Stim/FN_016_g.png"",""time"":3401.599999997765},{""stimulus"":""blank"",""time"":3703.300000000745},{""stimulus"":""https://ziweizhang0304.github.io/Stats_learning_trig/img/Stim/FN_018_g.png"",""time"":3742.199999999255},{""stimulus"":""blank"",""time"":4047.599999997765},{""stimulus"":""https://ziweizhang0304.github.io/Stats_learning_trig/img/Stim/FN_010_g.png"",""time"":4084.300000000745},{""stimulus"":""blank"",""time"":4385.199999999255}]","[{""key_press"":32,""rt"":2774,""stimulus"":""https://ziweizhang0304.github.io/Stats_learning_trig/img/Stim/FN_014_g.png""}]","389.1000000014901","https://ziweizhang0304.github.io/Stats_learning_trig/img/Stim/FN_023_g.png","post_TD","8","2384.89999999851","2774","fast","7","3","626952f29221cc2ef888c8ac","","","","","",""
"","image-keyboard-response","29","134231","0.0-5.0-8.0-0.0","1290.0999999977648","","","https://ziweizhang0304.github.io/Stats_learning_trig/img/Stim/FN_002_g.png","13","","","","","","","","","","","","","","","","","",""
"","animation","30","138652","0.0-5.0-8.0-1.0","","","","","","[{""stimulus"":""https://ziweizhang0304.github.io/Stats_learning_trig/img/Stim/FN_016_g.png"",""time"":342.5999999977648},{""stimulus"":""blank"",""time"":646.0999999977648},{""stimulus"":""https://ziweizhang0304.github.io/Stats_learning_trig/img/Stim/FN_014_g.png"",""time"":685.3999999985099},{""stimulus"":""blank"",""time"":986.5},{""stimulus"":""https://ziweizhang0304.github.io/Stats_learning_trig/img/Stim/FN_020_g.png"",""time"":1021},{""stimulus"":""blank"",""time"":1325.8999999985099},{""stimulus"":""https://ziweizhang0304.github.io/Stats_learning_trig/img/Stim/FN_001_g.png"",""time"":1361.199999999255},{""stimulus"":""blank"",""time"":1663.5999999977648},{""stimulus"":""https://ziweizhang0304.github.io/Stats_learning_trig/img/Stim/FN_005_g.png"",""time"":1705.800000000745},{""stimulus"":""blank"",""time"":2011.199999999255},{""stimulus"":""https://ziweizhang0304.github.io/Stats_learning_trig/img/Stim/FN_024_g.png"",""time"":2043.300000000745},{""stimulus"":""blank"",""time"":2345.800000000745},{""stimulus"":""https://ziweizhang0304.github.io/Stats_learning_trig/img/Stim/FN_019_g.png"",""time"":2384.300000000745},{""stimulus"":""blank"",""time"":2685.5},{""stimulus"":""https://ziweizhang0304.github.io/Stats_learning_trig/img/Stim/FN_002_g.png"",""time"":2722.800000000745},{""stimulus"":""blank"",""time"":3024.800000000745},{""stimulus"":""https://ziweizhang0304.github.io/Stats_learning_trig/img/Stim/FN_008_g.png"",""time"":3063.39999999851},{""stimulus"":""blank"",""time"":3367.300000000745},{""stimulus"":""https://ziweizhang0304.github.io/Stats_learning_trig/img/Stim/FN_018_g.png"",""time"":3404.699999999255},{""stimulus"":""blank"",""time"":3708.599999997765},{""stimulus"":""https://ziweizhang0304.github.io/Stats_learning_trig/img/Stim/FN_009_g.png"",""time"":3743.39999999851},{""stimulus"":""blank"",""time"":4047},{""stimulus"":""https://ziweizhang0304.github.io/Stats_learning_trig/img/Stim/FN_010_g.png"",""time"":4081.699999999255},{""stimulus"":""blank"",""time"":4384.199999999255}]","[{""key_press"":32,""rt"":2807.199999999255,""stimulus"":""https://ziweizhang0304.github.io/Stats_learning_trig/img/Stim/FN_002_g.png""}]","84.39999999850988","https://ziweizhang0304.github.io/Stats_learning_trig/img/Stim/FN_002_g.png","post_TD","9","2722.800000000745","2807.199999999255","slow","8","3","626952f29221cc2ef888c8ac","","","","","",""
"","image-keyboard-response","31","140477","0.0-5.0-9.0-0.0","1822.300000000745","","","https://ziweizhang0304.github.io/Stats_learning_trig/img/Stim/FN_021_g.png","13","","","","","","","","","","","","","","","","","",""
"","animation","32","144902","0.0-5.0-9.0-1.0","","","","","","[{""stimulus"":""https://ziweizhang0304.github.io/Stats_learning_trig/img/Stim/FN_010_g.png"",""time"":341.8999999985099},{""stimulus"":""blank"",""time"":643.5},{""stimulus"":""https://ziweizhang0304.github.io/Stats_learning_trig/img/Stim/FN_009_g.png"",""time"":685.1999999992549},{""stimulus"":""blank"",""time"":988.8999999985099},{""stimulus"":""https://ziweizhang0304.github.io/Stats_learning_trig/img/Stim/FN_005_g.png"",""time"":1024},{""stimulus"":""blank"",""time"":1329},{""stimulus"":""https://ziweizhang0304.github.io/Stats_learning_trig/img/Stim/FN_008_g.png"",""time"":1362.699999999255},{""stimulus"":""blank"",""time"":1664.1000000014901},{""stimulus"":""https://ziweizhang0304.github.io/Stats_learning_trig/img/Stim/FN_014_g.png"",""time"":1705},{""stimulus"":""blank"",""time"":2006.5},{""stimulus"":""https://ziweizhang0304.github.io/Stats_learning_trig/img/Stim/FN_020_g.png"",""time"":2041.6000000014901},{""stimulus"":""blank"",""time"":2342.800000000745},{""stimulus"":""https://ziweizhang0304.github.io/Stats_learning_trig/img/Stim/FN_011_g.png"",""time"":2382.39999999851},{""stimulus"":""blank"",""time"":2685.39999999851},{""stimulus"":""https://ziweizhang0304.github.io/Stats_learning_trig/img/Stim/FN_021_g.png"",""time"":2721.10000000149},{""stimulus"":""blank"",""time"":3024.800000000745},{""stimulus"":""https://ziweizhang0304.github.io/Stats_learning_trig/img/Stim/FN_023_g.png"",""time"":3063.300000000745},{""stimulus"":""blank"",""time"":3364.89999999851},{""stimulus"":""https://ziweizhang0304.github.io/Stats_learning_trig/img/Stim/FN_016_g.png"",""time"":3402.60000000149},{""stimulus"":""blank"",""time"":3707.199999999255},{""stimulus"":""https://ziweizhang0304.github.io/Stats_learning_trig/img/Stim/FN_018_g.png"",""time"":3741.89999999851},{""stimulus"":""blank"",""time"":4043.10000000149},{""stimulus"":""https://ziweizhang0304.github.io/Stats_learning_trig/img/Stim/FN_001_g.png"",""time"":4085.10000000149},{""stimulus"":""blank"",""time"":4388.89999999851}]","[{""key_press"":32,""rt"":3088.599999997765,""stimulus"":""https://ziweizhang0304.github.io/Stats_learning_trig/img/Stim/FN_023_g.png""}]","367.4999999962747","https://ziweizhang0304.github.io/Stats_learning_trig/img/Stim/FN_021_g.png","post_TD","10","2721.10000000149","3088.599999997765","fast","8","2","626952f29221cc2ef888c8ac","","","","","",""
"","image-keyboard-response","33","146524","0.0-5.0-10.0-0.0","1619.7000000029802","","","https://ziweizhang0304.github.io/Stats_learning_trig/img/Stim/FN_019_g.png","13","","","","","","","","","","","","","","","","","",""
"","animation","34","150950","0.0-5.0-10.0-1.0","","","","","","[{""stimulus"":""https://ziweizhang0304.github.io/Stats_learning_trig/img/Stim/FN_014_g.png"",""time"":341.69999999925494},{""stimulus"":""blank"",""time"":642},{""stimulus"":""https://ziweizhang0304.github.io/Stats_learning_trig/img/Stim/FN_010_g.png"",""time"":685.6000000014901},{""stimulus"":""blank"",""time"":991.1000000014901},{""stimulus"":""https://ziweizhang0304.github.io/Stats_learning_trig/img/Stim/FN_009_g.png"",""time"":1024.800000000745},{""stimulus"":""blank"",""time"":1330.300000000745},{""stimulus"":""https://ziweizhang0304.github.io/Stats_learning_trig/img/Stim/FN_024_g.png"",""time"":1362},{""stimulus"":""blank"",""time"":1663},{""stimulus"":""https://ziweizhang0304.github.io/Stats_learning_trig/img/Stim/FN_019_g.png"",""time"":1701.3999999985099},{""stimulus"":""blank"",""time"":2005.3999999985099},{""stimulus"":""https://ziweizhang0304.github.io/Stats_learning_trig/img/Stim/FN_002_g.png"",""time"":2040.8999999985099},{""stimulus"":""blank"",""time"":2342.10000000149},{""stimulus"":""https://ziweizhang0304.github.io/Stats_learning_trig/img/Stim/FN_020_g.png"",""time"":2384.89999999851},{""stimulus"":""blank"",""time"":2685.5},{""stimulus"":""https://ziweizhang0304.github.io/Stats_learning_trig/img/Stim/FN_008_g.png"",""time"":2721.10000000149},{""stimulus"":""blank"",""time"":3026.5},{""stimulus"":""https://ziweizhang0304.github.io/Stats_learning_trig/img/Stim/FN_016_g.png"",""time"":3061},{""stimulus"":""blank"",""time"":3361.800000000745},{""stimulus"":""https://ziweizhang0304.github.io/Stats_learning_trig/img/Stim/FN_005_g.png"",""time"":3403.60000000149},{""stimulus"":""blank"",""time"":3706.800000000745},{""stimulus"":""https://ziweizhang0304.github.io/Stats_learning_trig/img/Stim/FN_018_g.png"",""time"":3742},{""stimulus"":""blank"",""time"":4042.39999999851},{""stimulus"":""https://ziweizhang0304.github.io/Stats_learning_trig/img/Stim/FN_001_g.png"",""time"":4085.10000000149},{""stimulus"":""blank"",""time"":4390.5}]","[{""key_press"":32,""rt"":2054.199999999255,""stimulus"":""https://ziweizhang0304.github.io/Stats_learning_trig/img/Stim/FN_002_g.png""}]","352.80000000074506","https://ziweizhang0304.github.io/Stats_learning_trig/img/Stim/FN_019_g.png","post_TD","11","1701.3999999985099","2054.199999999255","slow","5","2","626952f29221cc2ef888c8ac","","","","","",""
"","image-keyboard-response","35","152369","0.0-5.0-11.0-0.0","1416.4000000022352","","","https://ziweizhang0304.github.io/Stats_learning_trig/img/Stim/FN_021_g.png","13","","","","","","","","","","","","","","","","","",""
"","animation","36","156793","0.0-5.0-11.0-1.0","","","","","","[{""stimulus"":""https://ziweizhang0304.github.io/Stats_learning_trig/img/Stim/FN_010_g.png"",""time"":345.1000000014901},{""stimulus"":""blank"",""time"":646},{""stimulus"":""https://ziweizhang0304.github.io/Stats_learning_trig/img/Stim/FN_005_g.png"",""time"":681.1000000014901},{""stimulus"":""blank"",""time"":986.6000000014901},{""stimulus"":""https://ziweizhang0304.github.io/Stats_learning_trig/img/Stim/FN_008_g.png"",""time"":1021.6000000014901},{""stimulus"":""blank"",""time"":1321.800000000745},{""stimulus"":""https://ziweizhang0304.github.io/Stats_learning_trig/img/Stim/FN_016_g.png"",""time"":1363.9000000022352},{""stimulus"":""blank"",""time"":1668.800000000745},{""stimulus"":""https://ziweizhang0304.github.io/Stats_learning_trig/img/Stim/FN_020_g.png"",""time"":1701.300000000745},{""stimulus"":""blank"",""time"":2003.1000000014901},{""stimulus"":""https://ziweizhang0304.github.io/Stats_learning_trig/img/Stim/FN_011_g.png"",""time"":2041.1000000014901},{""stimulus"":""blank"",""time"":2346.199999999255},{""stimulus"":""https://ziweizhang0304.github.io/Stats_learning_trig/img/Stim/FN_021_g.png"",""time"":2381.800000000745},{""stimulus"":""blank"",""time"":2687.199999999255},{""stimulus"":""https://ziweizhang0304.github.io/Stats_learning_trig/img/Stim/FN_023_g.png"",""time"":2721.400000002235},{""stimulus"":""blank"",""time"":3024.300000000745},{""stimulus"":""https://ziweizhang0304.github.io/Stats_learning_trig/img/Stim/FN_014_g.png"",""time"":3061.5},{""stimulus"":""blank"",""time"":3365.5},{""stimulus"":""https://ziweizhang0304.github.io/Stats_learning_trig/img/Stim/FN_018_g.png"",""time"":3402.5},{""stimulus"":""blank"",""time"":3703},{""stimulus"":""https://ziweizhang0304.github.io/Stats_learning_trig/img/Stim/FN_009_g.png"",""time"":3741.300000000745},{""stimulus"":""blank"",""time"":4046.699999999255},{""stimulus"":""https://ziweizhang0304.github.io/Stats_learning_trig/img/Stim/FN_001_g.png"",""time"":4082.10000000149},{""stimulus"":""blank"",""time"":4383}]","[{""key_press"":32,""rt"":2782.39999999851,""stimulus"":""https://ziweizhang0304.github.io/Stats_learning_trig/img/Stim/FN_023_g.png""}]","400.5999999977648","https://ziweizhang0304.github.io/Stats_learning_trig/img/Stim/FN_021_g.png","post_TD","12","2381.800000000745","2782.39999999851","fast","7","2","626952f29221cc2ef888c8ac","","","","","",""
"","image-keyboard-response","37","158057","0.0-5.0-12.0-0.0","1261.6000000014901","","","https://ziweizhang0304.github.io/Stats_learning_trig/img/Stim/FN_011_g.png","13","","","","","","","","","","","","","","","","","",""
"","animation","38","162483","0.0-5.0-12.0-1.0","","","","","","[{""stimulus"":""https://ziweizhang0304.github.io/Stats_learning_trig/img/Stim/FN_010_g.png"",""time"":342.9000000022352},{""stimulus"":""blank"",""time"":647.5},{""stimulus"":""https://ziweizhang0304.github.io/Stats_learning_trig/img/Stim/FN_009_g.png"",""time"":681.4000000022352},{""stimulus"":""blank"",""time"":986.6999999992549},{""stimulus"":""https://ziweizhang0304.github.io/Stats_learning_trig/img/Stim/FN_005_g.png"",""time"":1022.3000000007451},{""stimulus"":""blank"",""time"":1323.4000000022352},{""stimulus"":""https://ziweizhang0304.github.io/Stats_learning_trig/img/Stim/FN_008_g.png"",""time"":1361.699999999255},{""stimulus"":""blank"",""time"":1663.800000000745},{""stimulus"":""https://ziweizhang0304.github.io/Stats_learning_trig/img/Stim/FN_014_g.png"",""time"":1702.800000000745},{""stimulus"":""blank"",""time"":2006},{""stimulus"":""https://ziweizhang0304.github.io/Stats_learning_trig/img/Stim/FN_020_g.png"",""time"":2042.800000000745},{""stimulus"":""blank"",""time"":2347.5},{""stimulus"":""https://ziweizhang0304.github.io/Stats_learning_trig/img/Stim/FN_011_g.png"",""time"":2382.800000000745},{""stimulus"":""blank"",""time"":2686},{""stimulus"":""https://ziweizhang0304.github.io/Stats_learning_trig/img/Stim/FN_021_g.png"",""time"":2723.400000002235},{""stimulus"":""blank"",""time"":3025.699999999255},{""stimulus"":""https://ziweizhang0304.github.io/Stats_learning_trig/img/Stim/FN_023_g.png"",""time"":3061.10000000149},{""stimulus"":""blank"",""time"":3362},{""stimulus"":""https://ziweizhang0304.github.io/Stats_learning_trig/img/Stim/FN_016_g.png"",""time"":3402.300000000745},{""stimulus"":""blank"",""time"":3705.900000002235},{""stimulus"":""https://ziweizhang0304.github.io/Stats_learning_trig/img/Stim/FN_018_g.png"",""time"":3743.60000000149},{""stimulus"":""blank"",""time"":4044.800000000745},{""stimulus"":""https://ziweizhang0304.github.io/Stats_learning_trig/img/Stim/FN_001_g.png"",""time"":4085.699999999255},{""stimulus"":""blank"",""time"":4391}]","[{""key_press"":32,""rt"":2799.199999999255,""stimulus"":""https://ziweizhang0304.github.io/Stats_learning_trig/img/Stim/FN_021_g.png""}]","416.3999999985099","https://ziweizhang0304.github.io/Stats_learning_trig/img/Stim/FN_011_g.png","post_TD","13","2382.800000000745","2799.199999999255","fast","7","1","626952f29221cc2ef888c8ac","","","","","",""
"","image-keyboard-response","39","163727","0.0-5.0-13.0-0.0","1241.6000000014901","","","https://ziweizhang0304.github.io/Stats_learning_trig/img/Stim/FN_011_g.png","13","","","","","","","","","","","","","","","","","",""
"","animation","40","168150","0.0-5.0-13.0-1.0","","","","","","[{""stimulus"":""https://ziweizhang0304.github.io/Stats_learning_trig/img/Stim/FN_010_g.png"",""time"":342.19999999925494},{""stimulus"":""blank"",""time"":643.3999999985099},{""stimulus"":""https://ziweizhang0304.github.io/Stats_learning_trig/img/Stim/FN_005_g.png"",""time"":684.6999999992549},{""stimulus"":""blank"",""time"":988},{""stimulus"":""https://ziweizhang0304.github.io/Stats_learning_trig/img/Stim/FN_008_g.png"",""time"":1025},{""stimulus"":""blank"",""time"":1330.5999999977648},{""stimulus"":""https://ziweizhang0304.github.io/Stats_learning_trig/img/Stim/FN_016_g.png"",""time"":1362.5999999977648},{""stimulus"":""blank"",""time"":1664.5999999977648},{""stimulus"":""https://ziweizhang0304.github.io/Stats_learning_trig/img/Stim/FN_020_g.png"",""time"":1703.300000000745},{""stimulus"":""blank"",""time"":2006.0999999977648},{""stimulus"":""https://ziweizhang0304.github.io/Stats_learning_trig/img/Stim/FN_011_g.png"",""time"":2041.3999999985099},{""stimulus"":""blank"",""time"":2342.39999999851},{""stimulus"":""https://ziweizhang0304.github.io/Stats_learning_trig/img/Stim/FN_021_g.png"",""time"":2382.89999999851},{""stimulus"":""blank"",""time"":2688.300000000745},{""stimulus"":""https://ziweizhang0304.github.io/Stats_learning_trig/img/Stim/FN_023_g.png"",""time"":2723.699999999255},{""stimulus"":""blank"",""time"":3026.599999997765},{""stimulus"":""https://ziweizhang0304.github.io/Stats_learning_trig/img/Stim/FN_014_g.png"",""time"":3061.300000000745},{""stimulus"":""blank"",""time"":3363},{""stimulus"":""https://ziweizhang0304.github.io/Stats_learning_trig/img/Stim/FN_018_g.png"",""time"":3405.099999997765},{""stimulus"":""blank"",""time"":3709.099999997765},{""stimulus"":""https://ziweizhang0304.github.io/Stats_learning_trig/img/Stim/FN_009_g.png"",""time"":3741.5},{""stimulus"":""blank"",""time"":4043.199999999255},{""stimulus"":""https://ziweizhang0304.github.io/Stats_learning_trig/img/Stim/FN_001_g.png"",""time"":4083.599999997765},{""stimulus"":""blank"",""time"":4389.099999997765}]","[{""key_press"":32,""rt"":2414.5,""stimulus"":""https://ziweizhang0304.github.io/Stats_learning_trig/img/Stim/FN_021_g.png""}]","373.1000000014901","https://ziweizhang0304.github.io/Stats_learning_trig/img/Stim/FN_011_g.png","post_TD","14","2041.3999999985099","2414.5","fast","6","1","626952f29221cc2ef888c8ac","","","","","",""
"","image-keyboard-response","41","168845","0.0-5.0-14.0-0.0","692.6999999992549","","","https://ziweizhang0304.github.io/Stats_learning_trig/img/Stim/FN_023_g.png","13","","","","","","","","","","","","","","","","","",""
"","animation","42","173270","0.0-5.0-14.0-1.0","","","","","","[{""stimulus"":""https://ziweizhang0304.github.io/Stats_learning_trig/img/Stim/FN_010_g.png"",""time"":342.5},{""stimulus"":""blank"",""time"":643.4000000022352},{""stimulus"":""https://ziweizhang0304.github.io/Stats_learning_trig/img/Stim/FN_005_g.png"",""time"":683.8000000007451},{""stimulus"":""blank"",""time"":987.7000000029802},{""stimulus"":""https://ziweizhang0304.github.io/Stats_learning_trig/img/Stim/FN_008_g.png"",""time"":1022.2000000029802},{""stimulus"":""blank"",""time"":1322.9000000022352},{""stimulus"":""https://ziweizhang0304.github.io/Stats_learning_trig/img/Stim/FN_016_g.png"",""time"":1363.800000000745},{""stimulus"":""blank"",""time"":1665.9000000022352},{""stimulus"":""https://ziweizhang0304.github.io/Stats_learning_trig/img/Stim/FN_020_g.png"",""time"":1701.2000000029802},{""stimulus"":""blank"",""time"":2003.300000000745},{""stimulus"":""https://ziweizhang0304.github.io/Stats_learning_trig/img/Stim/FN_011_g.png"",""time"":2042.1000000014901},{""stimulus"":""blank"",""time"":2344},{""stimulus"":""https://ziweizhang0304.github.io/Stats_learning_trig/img/Stim/FN_021_g.png"",""time"":2383},{""stimulus"":""blank"",""time"":2686.10000000149},{""stimulus"":""https://ziweizhang0304.github.io/Stats_learning_trig/img/Stim/FN_023_g.png"",""time"":2721.7000000029802},{""stimulus"":""blank"",""time"":3022.2000000029802},{""stimulus"":""https://ziweizhang0304.github.io/Stats_learning_trig/img/Stim/FN_014_g.png"",""time"":3063},{""stimulus"":""blank"",""time"":3366.900000002235},{""stimulus"":""https://ziweizhang0304.github.io/Stats_learning_trig/img/Stim/FN_018_g.png"",""time"":3404.800000000745},{""stimulus"":""blank"",""time"":3707.7000000029802},{""stimulus"":""https://ziweizhang0304.github.io/Stats_learning_trig/img/Stim/FN_009_g.png"",""time"":3742.900000002235},{""stimulus"":""blank"",""time"":4044.900000002235},{""stimulus"":""https://ziweizhang0304.github.io/Stats_learning_trig/img/Stim/FN_001_g.png"",""time"":4085.10000000149},{""stimulus"":""blank"",""time"":4389.60000000149}]","[{""key_press"":32,""rt"":2448,""stimulus"":""https://ziweizhang0304.github.io/Stats_learning_trig/img/Stim/FN_021_g.png""},{""key_press"":32,""rt"":3190.199999999255,""stimulus"":""https://ziweizhang0304.github.io/Stats_learning_trig/img/Stim/FN_014_g.png""}]","468.4999999962747","https://ziweizhang0304.github.io/Stats_learning_trig/img/Stim/FN_023_g.png","post_TD","15","2721.7000000029802","3190.199999999255","fast","8","3","626952f29221cc2ef888c8ac","","","","","",""
"","image-keyboard-response","43","175059","0.0-5.0-15.0-0.0","1786.199999999255","","","https://ziweizhang0304.github.io/Stats_learning_trig/img/Stim/FN_011_g.png","13","","","","","","","","","","","","","","","","","",""
"","animation","44","179483","0.0-5.0-15.0-1.0","","","","","","[{""stimulus"":""https://ziweizhang0304.github.io/Stats_learning_trig/img/Stim/FN_008_g.png"",""time"":341.1000000014901},{""stimulus"":""blank"",""time"":645.5},{""stimulus"":""https://ziweizhang0304.github.io/Stats_learning_trig/img/Stim/FN_005_g.png"",""time"":682.9000000022352},{""stimulus"":""blank"",""time"":986.8000000007451},{""stimulus"":""https://ziweizhang0304.github.io/Stats_learning_trig/img/Stim/FN_009_g.png"",""time"":1022.5},{""stimulus"":""blank"",""time"":1323.800000000745},{""stimulus"":""https://ziweizhang0304.github.io/Stats_learning_trig/img/Stim/FN_001_g.png"",""time"":1362},{""stimulus"":""blank"",""time"":1663.5},{""stimulus"":""https://ziweizhang0304.github.io/Stats_learning_trig/img/Stim/FN_011_g.png"",""time"":1702.5},{""stimulus"":""blank"",""time"":2007.5},{""stimulus"":""https://ziweizhang0304.github.io/Stats_learning_trig/img/Stim/FN_021_g.png"",""time"":2044.5},{""stimulus"":""blank"",""time"":2349.60000000149},{""stimulus"":""https://ziweizhang0304.github.io/Stats_learning_trig/img/Stim/FN_023_g.png"",""time"":2383.900000002235},{""stimulus"":""blank"",""time"":2685.5},{""stimulus"":""https://ziweizhang0304.github.io/Stats_learning_trig/img/Stim/FN_014_g.png"",""time"":2721},{""stimulus"":""blank"",""time"":3021.7000000029802},{""stimulus"":""https://ziweizhang0304.github.io/Stats_learning_trig/img/Stim/FN_020_g.png"",""time"":3061.2000000029802},{""stimulus"":""blank"",""time"":3362.5},{""stimulus"":""https://ziweizhang0304.github.io/Stats_learning_trig/img/Stim/FN_016_g.png"",""time"":3402.900000002235},{""stimulus"":""blank"",""time"":3706.60000000149},{""stimulus"":""https://ziweizhang0304.github.io/Stats_learning_trig/img/Stim/FN_018_g.png"",""time"":3742.400000002235},{""stimulus"":""blank"",""time"":4043.400000002235},{""stimulus"":""https://ziweizhang0304.github.io/Stats_learning_trig/img/Stim/FN_010_g.png"",""time"":4085.5},{""stimulus"":""blank"",""time"":4388.5}]","[{""key_press"":32,""rt"":2176.699999999255,""stimulus"":""https://ziweizhang0304.github.io/Stats_learning_trig/img/Stim/FN_021_g.png""}]","474.19999999925494","https://ziweizhang0304.github.io/Stats_learning_trig/img/Stim/FN_011_g.png","post_TD","16","1702.5","2176.699999999255","fast","5","1","626952f29221cc2ef888c8ac","","","","","",""
"","image-keyboard-response","45","182872","0.0-5.0-16.0-0.0","3385.5","","","https://ziweizhang0304.github.io/Stats_learning_trig/img/Stim/FN_023_g.png","13","","","","","","","","","","","","","","","","","",""
"","animation","46","187293","0.0-5.0-16.0-1.0","","","","","","[{""stimulus"":""https://ziweizhang0304.github.io/Stats_learning_trig/img/Stim/FN_010_g.png"",""time"":341.30000000074506},{""stimulus"":""blank"",""time"":643.4000000022352},{""stimulus"":""https://ziweizhang0304.github.io/Stats_learning_trig/img/Stim/FN_009_g.png"",""time"":686.1000000014901},{""stimulus"":""blank"",""time"":991.6000000014901},{""stimulus"":""https://ziweizhang0304.github.io/Stats_learning_trig/img/Stim/FN_005_g.png"",""time"":1022},{""stimulus"":""blank"",""time"":1325.6000000014901},{""stimulus"":""https://ziweizhang0304.github.io/Stats_learning_trig/img/Stim/FN_008_g.png"",""time"":1361},{""stimulus"":""blank"",""time"":1663.2000000029802},{""stimulus"":""https://ziweizhang0304.github.io/Stats_learning_trig/img/Stim/FN_014_g.png"",""time"":1702},{""stimulus"":""blank"",""time"":2005.2000000029802},{""stimulus"":""https://ziweizhang0304.github.io/Stats_learning_trig/img/Stim/FN_020_g.png"",""time"":2042},{""stimulus"":""blank"",""time"":2345},{""stimulus"":""https://ziweizhang0304.github.io/Stats_learning_trig/img/Stim/FN_011_g.png"",""time"":2386.2000000029802},{""stimulus"":""blank"",""time"":2691.5},{""stimulus"":""https://ziweizhang0304.github.io/Stats_learning_trig/img/Stim/FN_021_g.png"",""time"":2721.300000000745},{""stimulus"":""blank"",""time"":3024.800000000745},{""stimulus"":""https://ziweizhang0304.github.io/Stats_learning_trig/img/Stim/FN_023_g.png"",""time"":3066.300000000745},{""stimulus"":""blank"",""time"":3371.60000000149},{""stimulus"":""https://ziweizhang0304.github.io/Stats_learning_trig/img/Stim/FN_016_g.png"",""time"":3402},{""stimulus"":""blank"",""time"":3704.400000002235},{""stimulus"":""https://ziweizhang0304.github.io/Stats_learning_trig/img/Stim/FN_018_g.png"",""time"":3744.7000000029802},{""stimulus"":""blank"",""time"":4045.800000000745},{""stimulus"":""https://ziweizhang0304.github.io/Stats_learning_trig/img/Stim/FN_001_g.png"",""time"":4081.300000000745},{""stimulus"":""blank"",""time"":4386.70000000298}]","[{""key_press"":32,""rt"":2895.800000000745,""stimulus"":""https://ziweizhang0304.github.io/Stats_learning_trig/img/Stim/FN_021_g.png""}]","NaN","https://ziweizhang0304.github.io/Stats_learning_trig/img/Stim/FN_023_g.png","post_TD","17","3066.300000000745","","fast","9","3","626952f29221cc2ef888c8ac","","","","","",""
"","image-keyboard-response","47","188746","0.0-5.0-17.0-0.0","1449.199999999255","","","https://ziweizhang0304.github.io/Stats_learning_trig/img/Stim/FN_021_g.png","13","","","","","","","","","","","","","","","","","",""
"","animation","48","193167","0.0-5.0-17.0-1.0","","","","","","[{""stimulus"":""https://ziweizhang0304.github.io/Stats_learning_trig/img/Stim/FN_009_g.png"",""time"":341.80000000074506},{""stimulus"":""blank"",""time"":642.9000000022352},{""stimulus"":""https://ziweizhang0304.github.io/Stats_learning_trig/img/Stim/FN_014_g.png"",""time"":683.6000000014901},{""stimulus"":""blank"",""time"":987.3000000007451},{""stimulus"":""https://ziweizhang0304.github.io/Stats_learning_trig/img/Stim/FN_018_g.png"",""time"":1021.6000000014901},{""stimulus"":""blank"",""time"":1322.1000000014901},{""stimulus"":""https://ziweizhang0304.github.io/Stats_learning_trig/img/Stim/FN_011_g.png"",""time"":1361.5},{""stimulus"":""blank"",""time"":1667},{""stimulus"":""https://ziweizhang0304.github.io/Stats_learning_trig/img/Stim/FN_021_g.png"",""time"":1704.5},{""stimulus"":""blank"",""time"":2008.199999999255},{""stimulus"":""https://ziweizhang0304.github.io/Stats_learning_trig/img/Stim/FN_023_g.png"",""time"":2041.699999999255},{""stimulus"":""blank"",""time"":2342.800000000745},{""stimulus"":""https://ziweizhang0304.github.io/Stats_learning_trig/img/Stim/FN_020_g.png"",""time"":2383.400000002235},{""stimulus"":""blank"",""time"":2683.900000002235},{""stimulus"":""https://ziweizhang0304.github.io/Stats_learning_trig/img/Stim/FN_008_g.png"",""time"":2722.10000000149},{""stimulus"":""blank"",""time"":3023},{""stimulus"":""https://ziweizhang0304.github.io/Stats_learning_trig/img/Stim/FN_016_g.png"",""time"":3066.10000000149},{""stimulus"":""blank"",""time"":3371.199999999255},{""stimulus"":""https://ziweizhang0304.github.io/Stats_learning_trig/img/Stim/FN_005_g.png"",""time"":3405.5},{""stimulus"":""blank"",""time"":3711.10000000149},{""stimulus"":""https://ziweizhang0304.github.io/Stats_learning_trig/img/Stim/FN_001_g.png"",""time"":3741},{""stimulus"":""blank"",""time"":4041.900000002235},{""stimulus"":""https://ziweizhang0304.github.io/Stats_learning_trig/img/Stim/FN_010_g.png"",""time"":4083.400000002235},{""stimulus"":""blank"",""time"":4386.199999999255}]","[{""key_press"":32,""rt"":2089.599999997765,""stimulus"":""https://ziweizhang0304.github.io/Stats_learning_trig/img/Stim/FN_023_g.png""}]","385.0999999977648","https://ziweizhang0304.github.io/Stats_learning_trig/img/Stim/FN_021_g.png","post_TD","18","1704.5","2089.599999997765","fast","5","2","626952f29221cc2ef888c8ac","","","","","",""
"","image-keyboard-response","49","194842","0.0-5.0-18.0-0.0","1671.2999999970198","","","https://ziweizhang0304.github.io/Stats_learning_trig/img/Stim/FN_024_g.png","13","","","","","","","","","","","","","","","","","",""
"","animation","50","199263","0.0-5.0-18.0-1.0","","","","","","[{""stimulus"":""https://ziweizhang0304.github.io/Stats_learning_trig/img/Stim/FN_018_g.png"",""time"":343.5},{""stimulus"":""blank"",""time"":644.3999999985099},{""stimulus"":""https://ziweizhang0304.github.io/Stats_learning_trig/img/Stim/FN_016_g.png"",""time"":683.6999999992549},{""stimulus"":""blank"",""time"":985.0999999977648},{""stimulus"":""https://ziweizhang0304.github.io/Stats_learning_trig/img/Stim/FN_009_g.png"",""time"":1021.1999999992549},{""stimulus"":""blank"",""time"":1325.199999999255},{""stimulus"":""https://ziweizhang0304.github.io/Stats_learning_trig/img/Stim/FN_020_g.png"",""time"":1361.800000000745},{""stimulus"":""blank"",""time"":1667.300000000745},{""stimulus"":""https://ziweizhang0304.github.io/Stats_learning_trig/img/Stim/FN_001_g.png"",""time"":1704.199999999255},{""stimulus"":""blank"",""time"":2009.5999999977648},{""stimulus"":""https://ziweizhang0304.github.io/Stats_learning_trig/img/Stim/FN_005_g.png"",""time"":2041.3999999985099},{""stimulus"":""blank"",""time"":2342.099999997765},{""stimulus"":""https://ziweizhang0304.github.io/Stats_learning_trig/img/Stim/FN_024_g.png"",""time"":2381.300000000745},{""stimulus"":""blank"",""time"":2683.89999999851},{""stimulus"":""https://ziweizhang0304.github.io/Stats_learning_trig/img/Stim/FN_019_g.png"",""time"":2721.5},{""stimulus"":""blank"",""time"":3025.099999997765},{""stimulus"":""https://ziweizhang0304.github.io/Stats_learning_trig/img/Stim/FN_002_g.png"",""time"":3062.89999999851},{""stimulus"":""blank"",""time"":3367.199999999255},{""stimulus"":""https://ziweizhang0304.github.io/Stats_learning_trig/img/Stim/FN_014_g.png"",""time"":3402.39999999851},{""stimulus"":""blank"",""time"":3705.699999999255},{""stimulus"":""https://ziweizhang0304.github.io/Stats_learning_trig/img/Stim/FN_008_g.png"",""time"":3741.300000000745},{""stimulus"":""blank"",""time"":4042.599999997765},{""stimulus"":""https://ziweizhang0304.github.io/Stats_learning_trig/img/Stim/FN_010_g.png"",""time"":4082.89999999851},{""stimulus"":""blank"",""time"":4384.800000000745}]","[{""key_press"":32,""rt"":2799,""stimulus"":""https://ziweizhang0304.github.io/Stats_learning_trig/img/Stim/FN_019_g.png""}]","417.69999999925494","https://ziweizhang0304.github.io/Stats_learning_trig/img/Stim/FN_024_g.png","post_TD","19","2381.300000000745","2799","slow","7","1","626952f29221cc2ef888c8ac","","","","","",""
"","image-keyboard-response","51","200774","0.0-5.0-19.0-0.0","1507.699999999255","","","https://ziweizhang0304.github.io/Stats_learning_trig/img/Stim/FN_024_g.png","13","","","","","","","","","","","","","","","","","",""
"","animation","52","205198","0.0-5.0-19.0-1.0","","","","","","[{""stimulus"":""https://ziweizhang0304.github.io/Stats_learning_trig/img/Stim/FN_014_g.png"",""time"":343.79999999701977},{""stimulus"":""blank"",""time"":645.5999999977648},{""stimulus"":""https://ziweizhang0304.github.io/Stats_learning_trig/img/Stim/FN_018_g.png"",""time"":682.5},{""stimulus"":""blank"",""time"":985.5999999977648},{""stimulus"":""https://ziweizhang0304.github.io/Stats_learning_trig/img/Stim/FN_016_g.png"",""time"":1022},{""stimulus"":""blank"",""time"":1324.2999999970198},{""stimulus"":""https://ziweizhang0304.github.io/Stats_learning_trig/img/Stim/FN_010_g.png"",""time"":1366.2999999970198},{""stimulus"":""blank"",""time"":1671.8999999985099},{""stimulus"":""https://ziweizhang0304.github.io/Stats_learning_trig/img/Stim/FN_024_g.png"",""time"":1704},{""stimulus"":""blank"",""time"":2007.199999999255},{""stimulus"":""https://ziweizhang0304.github.io/Stats_learning_trig/img/Stim/FN_019_g.png"",""time"":2041.699999999255},{""stimulus"":""blank"",""time"":2342.199999999255},{""stimulus"":""https://ziweizhang0304.github.io/Stats_learning_trig/img/Stim/FN_002_g.png"",""time"":2382.5},{""stimulus"":""blank"",""time"":2683},{""stimulus"":""https://ziweizhang0304.github.io/Stats_learning_trig/img/Stim/FN_020_g.png"",""time"":2722.699999999255},{""stimulus"":""blank"",""time"":3026.099999997765},{""stimulus"":""https://ziweizhang0304.github.io/Stats_learning_trig/img/Stim/FN_008_g.png"",""time"":3061.2999999970198},{""stimulus"":""blank"",""time"":3366.39999999851},{""stimulus"":""https://ziweizhang0304.github.io/Stats_learning_trig/img/Stim/FN_005_g.png"",""time"":3402.2999999970198},{""stimulus"":""blank"",""time"":3703.099999997765},{""stimulus"":""https://ziweizhang0304.github.io/Stats_learning_trig/img/Stim/FN_009_g.png"",""time"":3741.39999999851},{""stimulus"":""blank"",""time"":4041.5},{""stimulus"":""https://ziweizhang0304.github.io/Stats_learning_trig/img/Stim/FN_001_g.png"",""time"":4083.5},{""stimulus"":""blank"",""time"":4388.89999999851}]","[{""key_press"":32,""rt"":2302.5,""stimulus"":""https://ziweizhang0304.github.io/Stats_learning_trig/img/Stim/FN_019_g.png""}]","598.5","https://ziweizhang0304.github.io/Stats_learning_trig/img/Stim/FN_024_g.png","post_TD","20","1704","2302.5","slow","5","1","626952f29221cc2ef888c8ac","","","","","",""
"","image-keyboard-response","53","206383","0.0-5.0-20.0-0.0","1181.800000000745","","","https://ziweizhang0304.github.io/Stats_learning_trig/img/Stim/FN_021_g.png","13","","","","","","","","","","","","","","","","","",""
"","animation","54","210809","0.0-5.0-20.0-1.0","","","","","","[{""stimulus"":""https://ziweizhang0304.github.io/Stats_learning_trig/img/Stim/FN_008_g.png"",""time"":343.19999999925494},{""stimulus"":""blank"",""time"":644.1999999992549},{""stimulus"":""https://ziweizhang0304.github.io/Stats_learning_trig/img/Stim/FN_005_g.png"",""time"":680.8999999985099},{""stimulus"":""blank"",""time"":983.8999999985099},{""stimulus"":""https://ziweizhang0304.github.io/Stats_learning_trig/img/Stim/FN_009_g.png"",""time"":1026},{""stimulus"":""blank"",""time"":1327.199999999255},{""stimulus"":""https://ziweizhang0304.github.io/Stats_learning_trig/img/Stim/FN_001_g.png"",""time"":1364.1000000014901},{""stimulus"":""blank"",""time"":1669.6000000014901},{""stimulus"":""https://ziweizhang0304.github.io/Stats_learning_trig/img/Stim/FN_011_g.png"",""time"":1701.6000000014901},{""stimulus"":""blank"",""time"":2002},{""stimulus"":""https://ziweizhang0304.github.io/Stats_learning_trig/img/Stim/FN_021_g.png"",""time"":2043.1000000014901},{""stimulus"":""blank"",""time"":2346.10000000149},{""stimulus"":""https://ziweizhang0304.github.io/Stats_learning_trig/img/Stim/FN_023_g.png"",""time"":2381},{""stimulus"":""blank"",""time"":2683.89999999851},{""stimulus"":""https://ziweizhang0304.github.io/Stats_learning_trig/img/Stim/FN_014_g.png"",""time"":2725.199999999255},{""stimulus"":""blank"",""time"":3030.699999999255},{""stimulus"":""https://ziweizhang0304.github.io/Stats_learning_trig/img/Stim/FN_020_g.png"",""time"":3061.300000000745},{""stimulus"":""blank"",""time"":3365.89999999851},{""stimulus"":""https://ziweizhang0304.github.io/Stats_learning_trig/img/Stim/FN_016_g.png"",""time"":3401},{""stimulus"":""blank"",""time"":3702.300000000745},{""stimulus"":""https://ziweizhang0304.github.io/Stats_learning_trig/img/Stim/FN_018_g.png"",""time"":3743.699999999255},{""stimulus"":""blank"",""time"":4047.199999999255},{""stimulus"":""https://ziweizhang0304.github.io/Stats_learning_trig/img/Stim/FN_010_g.png"",""time"":4082.39999999851},{""stimulus"":""blank"",""time"":4383.10000000149}]","[{""key_press"":32,""rt"":2381.2999999970198,""stimulus"":""https://ziweizhang0304.github.io/Stats_learning_trig/img/Stim/FN_023_g.png""}]","338.19999999552965","https://ziweizhang0304.github.io/Stats_learning_trig/img/Stim/FN_021_g.png","post_TD","21","2043.1000000014901","2381.2999999970198","fast","6","2","626952f29221cc2ef888c8ac","","","","","",""
"","image-keyboard-response","55","211853","0.0-5.0-21.0-0.0","1040.8999999985099","","","https://ziweizhang0304.github.io/Stats_learning_trig/img/Stim/FN_019_g.png","13","","","","","","","","","","","","","","","","","",""
"","animation","56","216276","0.0-5.0-21.0-1.0","","","","","","[{""stimulus"":""https://ziweizhang0304.github.io/Stats_learning_trig/img/Stim/FN_018_g.png"",""time"":342.9000000022352},{""stimulus"":""blank"",""time"":644.2000000029802},{""stimulus"":""https://ziweizhang0304.github.io/Stats_learning_trig/img/Stim/FN_016_g.png"",""time"":686.2000000029802},{""stimulus"":""blank"",""time"":991.6000000014901},{""stimulus"":""https://ziweizhang0304.github.io/Stats_learning_trig/img/Stim/FN_009_g.png"",""time"":1023.6000000014901},{""stimulus"":""blank"",""time"":1327.800000000745},{""stimulus"":""https://ziweizhang0304.github.io/Stats_learning_trig/img/Stim/FN_020_g.png"",""time"":1361.2000000029802},{""stimulus"":""blank"",""time"":1664},{""stimulus"":""https://ziweizhang0304.github.io/Stats_learning_trig/img/Stim/FN_001_g.png"",""time"":1706.2000000029802},{""stimulus"":""blank"",""time"":2011.300000000745},{""stimulus"":""https://ziweizhang0304.github.io/Stats_learning_trig/img/Stim/FN_005_g.png"",""time"":2043.800000000745},{""stimulus"":""blank"",""time"":2344.900000002235},{""stimulus"":""https://ziweizhang0304.github.io/Stats_learning_trig/img/Stim/FN_024_g.png"",""time"":2381.400000002235},{""stimulus"":""blank"",""time"":2686.800000000745},{""stimulus"":""https://ziweizhang0304.github.io/Stats_learning_trig/img/Stim/FN_019_g.png"",""time"":2721.60000000149},{""stimulus"":""blank"",""time"":3024.800000000745},{""stimulus"":""https://ziweizhang0304.github.io/Stats_learning_trig/img/Stim/FN_002_g.png"",""time"":3060.800000000745},{""stimulus"":""blank"",""time"":3364.10000000149},{""stimulus"":""https://ziweizhang0304.github.io/Stats_learning_trig/img/Stim/FN_014_g.png"",""time"":3406.2000000029802},{""stimulus"":""blank"",""time"":3711.60000000149},{""stimulus"":""https://ziweizhang0304.github.io/Stats_learning_trig/img/Stim/FN_008_g.png"",""time"":3744.400000002235},{""stimulus"":""blank"",""time"":4048.5},{""stimulus"":""https://ziweizhang0304.github.io/Stats_learning_trig/img/Stim/FN_010_g.png"",""time"":4083.5},{""stimulus"":""blank"",""time"":4388.60000000149}]","[{""key_press"":32,""rt"":3062.39999999851,""stimulus"":""https://ziweizhang0304.github.io/Stats_learning_trig/img/Stim/FN_002_g.png""}]","340.79999999701977","https://ziweizhang0304.github.io/Stats_learning_trig/img/Stim/FN_019_g.png","post_TD","22","2721.60000000149","3062.39999999851","slow","8","2","626952f29221cc2ef888c8ac","","","","","",""
"","image-keyboard-response","57","217516","0.0-5.0-22.0-0.0","1236.800000000745","","","https://ziweizhang0304.github.io/Stats_learning_trig/img/Stim/FN_023_g.png","13","","","","","","","","","","","","","","","","","",""
"","animation","58","221938","0.0-5.0-22.0-1.0","","","","","","[{""stimulus"":""https://ziweizhang0304.github.io/Stats_learning_trig/img/Stim/FN_009_g.png"",""time"":344.19999999925494},{""stimulus"":""blank"",""time"":649.7999999970198},{""stimulus"":""https://ziweizhang0304.github.io/Stats_learning_trig/img/Stim/FN_014_g.png"",""time"":683.5999999977648},{""stimulus"":""blank"",""time"":986.3999999985099},{""stimulus"":""https://ziweizhang0304.github.io/Stats_learning_trig/img/Stim/FN_018_g.png"",""time"":1023.5999999977648},{""stimulus"":""blank"",""time"":1327.5},{""stimulus"":""https://ziweizhang0304.github.io/Stats_learning_trig/img/Stim/FN_011_g.png"",""time"":1362.8999999985099},{""stimulus"":""blank"",""time"":1666.2999999970198},{""stimulus"":""https://ziweizhang0304.github.io/Stats_learning_trig/img/Stim/FN_021_g.png"",""time"":1701.699999999255},{""stimulus"":""blank"",""time"":2002.199999999255},{""stimulus"":""https://ziweizhang0304.github.io/Stats_learning_trig/img/Stim/FN_023_g.png"",""time"":2042.5999999977648},{""stimulus"":""blank"",""time"":2345.099999997765},{""stimulus"":""https://ziweizhang0304.github.io/Stats_learning_trig/img/Stim/FN_020_g.png"",""time"":2381.5},{""stimulus"":""blank"",""time"":2685.5},{""stimulus"":""https://ziweizhang0304.github.io/Stats_learning_trig/img/Stim/FN_008_g.png"",""time"":2726.099999997765},{""stimulus"":""blank"",""time"":3031.699999999255},{""stimulus"":""https://ziweizhang0304.github.io/Stats_learning_trig/img/Stim/FN_016_g.png"",""time"":3062.89999999851},{""stimulus"":""blank"",""time"":3366.199999999255},{""stimulus"":""https://ziweizhang0304.github.io/Stats_learning_trig/img/Stim/FN_005_g.png"",""time"":3401.39999999851},{""stimulus"":""blank"",""time"":3701.699999999255},{""stimulus"":""https://ziweizhang0304.github.io/Stats_learning_trig/img/Stim/FN_001_g.png"",""time"":3742.5},{""stimulus"":""blank"",""time"":4045},{""stimulus"":""https://ziweizhang0304.github.io/Stats_learning_trig/img/Stim/FN_010_g.png"",""time"":4081.099999997765},{""stimulus"":""blank"",""time"":4384.599999997765}]","[{""key_press"":32,""rt"":2392.900000002235,""stimulus"":""https://ziweizhang0304.github.io/Stats_learning_trig/img/Stim/FN_020_g.png""}]","350.30000000447035","https://ziweizhang0304.github.io/Stats_learning_trig/img/Stim/FN_023_g.png","post_TD","23","2042.5999999977648","2392.900000002235","fast","6","3","626952f29221cc2ef888c8ac","","","","","",""
"","image-keyboard-response","59","223334","0.0-5.0-23.0-0.0","1393.1000000014901","","","https://ziweizhang0304.github.io/Stats_learning_trig/img/Stim/FN_024_g.png","13","","","","","","","","","","","","","","","","","",""
"","animation","60","227756","0.0-5.0-23.0-1.0","","","","","","[{""stimulus"":""https://ziweizhang0304.github.io/Stats_learning_trig/img/Stim/FN_014_g.png"",""time"":344},{""stimulus"":""blank"",""time"":648.1999999992549},{""stimulus"":""https://ziweizhang0304.github.io/Stats_learning_trig/img/Stim/FN_010_g.png"",""time"":681.3000000007451},{""stimulus"":""blank"",""time"":981.6999999992549},{""stimulus"":""https://ziweizhang0304.github.io/Stats_learning_trig/img/Stim/FN_009_g.png"",""time"":1026.199999999255},{""stimulus"":""blank"",""time"":1331.6000000014901},{""stimulus"":""https://ziweizhang0304.github.io/Stats_learning_trig/img/Stim/FN_024_g.png"",""time"":1364.199999999255},{""stimulus"":""blank"",""time"":1668.699999999255},{""stimulus"":""https://ziweizhang0304.github.io/Stats_learning_trig/img/Stim/FN_019_g.png"",""time"":1702.300000000745},{""stimulus"":""blank"",""time"":2002.800000000745},{""stimulus"":""https://ziweizhang0304.github.io/Stats_learning_trig/img/Stim/FN_002_g.png"",""time"":2044.300000000745},{""stimulus"":""blank"",""time"":2348.199999999255},{""stimulus"":""https://ziweizhang0304.github.io/Stats_learning_trig/img/Stim/FN_020_g.png"",""time"":2381.300000000745},{""stimulus"":""blank"",""time"":2682.89999999851},{""stimulus"":""https://ziweizhang0304.github.io/Stats_learning_trig/img/Stim/FN_008_g.png"",""time"":2726.10000000149},{""stimulus"":""blank"",""time"":3031.60000000149},{""stimulus"":""https://ziweizhang0304.github.io/Stats_learning_trig/img/Stim/FN_016_g.png"",""time"":3062.89999999851},{""stimulus"":""blank"",""time"":3366.89999999851},{""stimulus"":""https://ziweizhang0304.github.io/Stats_learning_trig/img/Stim/FN_005_g.png"",""time"":3405.10000000149},{""stimulus"":""blank"",""time"":3706},{""stimulus"":""https://ziweizhang0304.github.io/Stats_learning_trig/img/Stim/FN_018_g.png"",""time"":3743.199999999255},{""stimulus"":""blank"",""time"":4046.300000000745},{""stimulus"":""https://ziweizhang0304.github.io/Stats_learning_trig/img/Stim/FN_001_g.png"",""time"":4081.39999999851},{""stimulus"":""blank"",""time"":4381.89999999851}]","[{""key_press"":32,""rt"":1783.6000000014901,""stimulus"":""https://ziweizhang0304.github.io/Stats_learning_trig/img/Stim/FN_019_g.png""}]","419.4000000022352","https://ziweizhang0304.github.io/Stats_learning_trig/img/Stim/FN_024_g.png","post_TD","24","1364.199999999255","1783.6000000014901","slow","4","1","626952f29221cc2ef888c8ac","b29b4","","","","",""
"","survey-text","61","243619","0.0-6.0","15851.60000000149","","","","","","","","","","","","","","","","","","{""Q0"":""Keeping my hand on the spacebar.""}","","","",""
"","survey-text","62","249499","0.0-7.0","5876.300000000745","","","","","","","","","","","","","","","","","","{""[object Object]"":""None""}","","","",""
"","instructions","63","259694","0.0-8.0","10194.10000000149","","[{""page_index"":0,""viewing_time"":10193.199999999255}]","","","","","","","","","","","","","","","","","","","",""
"","free-sort","64","281772","0.0-9.0","22074.20000000298","","","","","","","","","post_drag","","","","fast","","","","","","[{""src"":""https://ziweizhang0304.github.io/Stats_learning_trig/img/Stim/FN_021_g.png"",""x"":475,""y"":0},{""src"":""https://ziweizhang0304.github.io/Stats_learning_trig/img/Stim/FN_011_g.png"",""x"":-225,""y"":50},{""src"":""https://ziweizhang0304.github.io/Stats_learning_trig/img/Stim/FN_023_g.png"",""x"":475,""y"":50}]","[{""src"":""https://ziweizhang0304.github.io/Stats_learning_trig/img/Stim/FN_011_g.png"",""x"":41,""y"":24},{""src"":""https://ziweizhang0304.github.io/Stats_learning_trig/img/Stim/FN_021_g.png"",""x"":140,""y"":14},{""src"":""https://ziweizhang0304.github.io/Stats_learning_trig/img/Stim/FN_023_g.png"",""x"":236,""y"":23}]","[{""src"":""https://ziweizhang0304.github.io/Stats_learning_trig/img/Stim/FN_021_g.png"",""x"":140,""y"":14},{""src"":""https://ziweizhang0304.github.io/Stats_learning_trig/img/Stim/FN_011_g.png"",""x"":41,""y"":24},{""src"":""https://ziweizhang0304.github.io/Stats_learning_trig/img/Stim/FN_023_g.png"",""x"":236,""y"":23}]",""
"","free-sort","65","290172","0.0-10.0","8397.699999999255","","","","","","","","","post_drag","","","","slow","","","","","","[{""src"":""https://ziweizhang0304.github.io/Stats_learning_trig/img/Stim/FN_019_g.png"",""x"":475,""y"":0},{""src"":""https://ziweizhang0304.github.io/Stats_learning_trig/img/Stim/FN_024_g.png"",""x"":-225,""y"":50},{""src"":""https://ziweizhang0304.github.io/Stats_learning_trig/img/Stim/FN_002_g.png"",""x"":475,""y"":50}]","[{""src"":""https://ziweizhang0304.github.io/Stats_learning_trig/img/Stim/FN_019_g.png"",""x"":34,""y"":15},{""src"":""https://ziweizhang0304.github.io/Stats_learning_trig/img/Stim/FN_002_g.png"",""x"":153,""y"":18},{""src"":""https://ziweizhang0304.github.io/Stats_learning_trig/img/Stim/FN_024_g.png"",""x"":276,""y"":28},{""src"":""https://ziweizhang0304.github.io/Stats_learning_trig/img/Stim/FN_024_g.png"",""x"":205,""y"":11},{""src"":""https://ziweizhang0304.github.io/Stats_learning_trig/img/Stim/FN_002_g.png"",""x"":135,""y"":16}]","[{""src"":""https://ziweizhang0304.github.io/Stats_learning_trig/img/Stim/FN_019_g.png"",""x"":34,""y"":15},{""src"":""https://ziweizhang0304.github.io/Stats_learning_trig/img/Stim/FN_024_g.png"",""x"":205,""y"":11},{""src"":""https://ziweizhang0304.github.io/Stats_learning_trig/img/Stim/FN_002_g.png"",""x"":135,""y"":16}]",""
"","survey-multi-choice","66","297059","0.0-11.0","6880.800000000745","","","","","","","","","","","","","","","","626952f29221cc2ef888c8ac","","{""awareness"":""No"",""attention_check"":""Press SPACEBAR to a target""}","","","","[0,1]"
