"success","trial_type","trial_index","time_elapsed","internal_node_id","rt","url","view_history","stimulus","key_press","animation_sequence","response","TD_rt","TD_target","test_part","TD_trial_number","onset","offset","attention_state","TD_target_position","TD_within_triplet_counter","participant","yoke_participant","responses","init_locations","moves","final_locations","question_order"
"true","fullscreen","0","2724","0.0-0.0","","","","","","","","","","","","","","","","","","","","","","",""
"","external-html","1","11696","0.0-1.0","8782.400000095367","https://ziweizhang0304.github.io/Stats_learning_trig/content/consent.html","","","","","","","","","","","","","","","","","","","","",""
"","instructions","2","43084","0.0-2.0","31377.799999952316","","[{""page_index"":0,""viewing_time"":7627.099999904633},{""page_index"":1,""viewing_time"":5909.600000143051},{""page_index"":2,""viewing_time"":16078.899999856949},{""page_index"":3,""viewing_time"":1760.7000000476837}]","","","","","","","","","","","","","","","","","","","",""
"","image-keyboard-response","3","47210","0.0-3.0-0.0-0.0","4124.799999952316","","","https://ziweizhang0304.github.io/Stats_learning_trig/img/Stim/FN_021_g.png","13","","","","","","","","","","","","","","","","","",""
"","animation","4","51637","0.0-3.0-0.0-1.0","","","","","","[{""stimulus"":""https://ziweizhang0304.github.io/Stats_learning_trig/img/Stim/FN_001_g.png"",""time"":358.7999999523163},{""stimulus"":""blank"",""time"":679.5999999046326},{""stimulus"":""https://ziweizhang0304.github.io/Stats_learning_trig/img/Stim/FN_003_g.png"",""time"":681.7000000476837},{""stimulus"":""blank"",""time"":999.5999999046326},{""stimulus"":""https://ziweizhang0304.github.io/Stats_learning_trig/img/Stim/FN_024_g.png"",""time"":1027.5999999046326},{""stimulus"":""blank"",""time"":1339.7000000476837},{""stimulus"":""https://ziweizhang0304.github.io/Stats_learning_trig/img/Stim/FN_016_g.png"",""time"":1364},{""stimulus"":""blank"",""time"":1679.5},{""stimulus"":""https://ziweizhang0304.github.io/Stats_learning_trig/img/Stim/FN_021_g.png"",""time"":1707.0999999046326},{""stimulus"":""blank"",""time"":2019.0999999046326},{""stimulus"":""https://ziweizhang0304.github.io/Stats_learning_trig/img/Stim/FN_013_g.png"",""time"":2047},{""stimulus"":""blank"",""time"":2359.2999999523163},{""stimulus"":""https://ziweizhang0304.github.io/Stats_learning_trig/img/Stim/FN_017_g.png"",""time"":2385.2999999523163},{""stimulus"":""blank"",""time"":2699.5999999046326},{""stimulus"":""https://ziweizhang0304.github.io/Stats_learning_trig/img/Stim/FN_014_g.png"",""time"":2727.2000000476837},{""stimulus"":""blank"",""time"":3039.5},{""stimulus"":""https://ziweizhang0304.github.io/Stats_learning_trig/img/Stim/FN_002_g.png"",""time"":3064.2000000476837},{""stimulus"":""blank"",""time"":3379.2999999523163},{""stimulus"":""https://ziweizhang0304.github.io/Stats_learning_trig/img/Stim/FN_022_g.png"",""time"":3409},{""stimulus"":""blank"",""time"":3719.2999999523163},{""stimulus"":""https://ziweizhang0304.github.io/Stats_learning_trig/img/Stim/FN_012_g.png"",""time"":3747.2999999523163},{""stimulus"":""blank"",""time"":4059.5},{""stimulus"":""https://ziweizhang0304.github.io/Stats_learning_trig/img/Stim/FN_019_g.png"",""time"":4087.2000000476837},{""stimulus"":""blank"",""time"":4399.099999904633}]","[{""key_press"":32,""rt"":2096.199999809265,""stimulus"":""https://ziweizhang0304.github.io/Stats_learning_trig/img/Stim/FN_013_g.png""}]","389.09999990463257","https://ziweizhang0304.github.io/Stats_learning_trig/img/Stim/FN_021_g.png","post_prac","","","","","","","","","","","","",""
"","html-keyboard-response","5","56004","0.0-3.0-0.0-2.0","4361.400000095367","","","<p>Your reaction time for this trial was 389.1 ms.</p><p>Remember that you should only press the SPACEBAR when you see the shape presented at the beginning of the trial. </b> </p><p>Press enter to move on.</p>","13","","","","","","","","","","","","","","","","","",""
"","image-keyboard-response","6","58365","0.0-3.0-1.0-0.0","2360.100000143051","","","https://ziweizhang0304.github.io/Stats_learning_trig/img/Stim/FN_011_g.png","13","","","","","","","","","","","","","","","","","",""
"","animation","7","62790","0.0-3.0-1.0-1.0","","","","","","[{""stimulus"":""https://ziweizhang0304.github.io/Stats_learning_trig/img/Stim/FN_016_g.png"",""time"":345.19999980926514},{""stimulus"":""blank"",""time"":664.5999999046326},{""stimulus"":""https://ziweizhang0304.github.io/Stats_learning_trig/img/Stim/FN_013_g.png"",""time"":684.1999998092651},{""stimulus"":""blank"",""time"":984.3999998569489},{""stimulus"":""https://ziweizhang0304.github.io/Stats_learning_trig/img/Stim/FN_001_g.png"",""time"":1022.0999999046326},{""stimulus"":""blank"",""time"":1324.5999999046326},{""stimulus"":""https://ziweizhang0304.github.io/Stats_learning_trig/img/Stim/FN_003_g.png"",""time"":1375.8999998569489},{""stimulus"":""blank"",""time"":1684.5999999046326},{""stimulus"":""https://ziweizhang0304.github.io/Stats_learning_trig/img/Stim/FN_024_g.png"",""time"":1704.5999999046326},{""stimulus"":""blank"",""time"":2014.7999999523163},{""stimulus"":""https://ziweizhang0304.github.io/Stats_learning_trig/img/Stim/FN_019_g.png"",""time"":2042.0999999046326},{""stimulus"":""blank"",""time"":2354.5999999046326},{""stimulus"":""https://ziweizhang0304.github.io/Stats_learning_trig/img/Stim/FN_011_g.png"",""time"":2382},{""stimulus"":""blank"",""time"":2684.199999809265},{""stimulus"":""https://ziweizhang0304.github.io/Stats_learning_trig/img/Stim/FN_006_g.png"",""time"":2722.2999999523163},{""stimulus"":""blank"",""time"":3034.5},{""stimulus"":""https://ziweizhang0304.github.io/Stats_learning_trig/img/Stim/FN_004_g.png"",""time"":3064.0999999046326},{""stimulus"":""blank"",""time"":3374.199999809265},{""stimulus"":""https://ziweizhang0304.github.io/Stats_learning_trig/img/Stim/FN_012_g.png"",""time"":3402},{""stimulus"":""blank"",""time"":3714.199999809265},{""stimulus"":""https://ziweizhang0304.github.io/Stats_learning_trig/img/Stim/FN_022_g.png"",""time"":3742},{""stimulus"":""blank"",""time"":4054.199999809265},{""stimulus"":""https://ziweizhang0304.github.io/Stats_learning_trig/img/Stim/FN_002_g.png"",""time"":4084.2999999523163},{""stimulus"":""blank"",""time"":4394.599999904633}]","[{""key_press"":32,""rt"":2770.0999999046326,""stimulus"":""https://ziweizhang0304.github.io/Stats_learning_trig/img/Stim/FN_006_g.png""}]","388.09999990463257","https://ziweizhang0304.github.io/Stats_learning_trig/img/Stim/FN_011_g.png","post_prac","","","","","","","","","","","","",""
"","html-keyboard-response","8","65008","0.0-3.0-1.0-2.0","2215.300000190735","","","<p>Your reaction time for this trial was 388.1 ms.</p><p>Remember that you should only press the SPACEBAR when you see the shape presented at the beginning of the trial. </b> </p><p>Press enter to move on.</p>","13","","","","","","","","","","","","","","","","","",""
"","image-keyboard-response","9","67265","0.0-3.0-2.0-0.0","2256.199999809265","","","https://ziweizhang0304.github.io/Stats_learning_trig/img/Stim/FN_011_g.png","13","","","","","","","","","","","","","","","","","",""
"","animation","10","71688","0.0-3.0-2.0-1.0","","","","","","[{""stimulus"":""https://ziweizhang0304.github.io/Stats_learning_trig/img/Stim/FN_002_g.png"",""time"":346.30000019073486},{""stimulus"":""blank"",""time"":665.4000000953674},{""stimulus"":""https://ziweizhang0304.github.io/Stats_learning_trig/img/Stim/FN_013_g.png"",""time"":685},{""stimulus"":""blank"",""time"":1005.2000000476837},{""stimulus"":""https://ziweizhang0304.github.io/Stats_learning_trig/img/Stim/FN_012_g.png"",""time"":1025.5},{""stimulus"":""blank"",""time"":1345.3000001907349},{""stimulus"":""https://ziweizhang0304.github.io/Stats_learning_trig/img/Stim/FN_016_g.png"",""time"":1364.8000001907349},{""stimulus"":""blank"",""time"":1685.4000000953674},{""stimulus"":""https://ziweizhang0304.github.io/Stats_learning_trig/img/Stim/FN_001_g.png"",""time"":1705},{""stimulus"":""blank"",""time"":2005.4000000953674},{""stimulus"":""https://ziweizhang0304.github.io/Stats_learning_trig/img/Stim/FN_011_g.png"",""time"":2042.6000001430511},{""stimulus"":""blank"",""time"":2345.2000000476837},{""stimulus"":""https://ziweizhang0304.github.io/Stats_learning_trig/img/Stim/FN_006_g.png"",""time"":2382.300000190735},{""stimulus"":""blank"",""time"":2685.2000000476837},{""stimulus"":""https://ziweizhang0304.github.io/Stats_learning_trig/img/Stim/FN_004_g.png"",""time"":2725.300000190735},{""stimulus"":""blank"",""time"":3035.300000190735},{""stimulus"":""https://ziweizhang0304.github.io/Stats_learning_trig/img/Stim/FN_022_g.png"",""time"":3064.800000190735},{""stimulus"":""blank"",""time"":3375.2000000476837},{""stimulus"":""https://ziweizhang0304.github.io/Stats_learning_trig/img/Stim/FN_003_g.png"",""time"":3401},{""stimulus"":""blank"",""time"":3715.4000000953674},{""stimulus"":""https://ziweizhang0304.github.io/Stats_learning_trig/img/Stim/FN_024_g.png"",""time"":3742.800000190735},{""stimulus"":""blank"",""time"":4055.4000000953674},{""stimulus"":""https://ziweizhang0304.github.io/Stats_learning_trig/img/Stim/FN_019_g.png"",""time"":4082.800000190735},{""stimulus"":""blank"",""time"":4395.300000190735}]","[{""key_press"":32,""rt"":2380.7000000476837,""stimulus"":""blank""}]","338.09999990463257","https://ziweizhang0304.github.io/Stats_learning_trig/img/Stim/FN_011_g.png","post_prac","","","","","","","","","","","","",""
"","html-keyboard-response","11","73215","0.0-3.0-2.0-2.0","1524.2000000476837","","","<p>Your reaction time for this trial was 338.1 ms.</p><p>Remember that you should only press the SPACEBAR when you see the shape presented at the beginning of the trial. </b> </p><p>Press enter to move on.</p>","13","","","","","","","","","","","","","","","","","",""
"","instructions","12","75715","0.0-4.0","2499.7000000476837","","[{""page_index"":0,""viewing_time"":2499.2000000476837}]","","","","","","","","","","","","","","","","","","","",""
"","image-keyboard-response","13","78596","0.0-5.0-0.0-0.0","2879.7999999523163","","","https://ziweizhang0304.github.io/Stats_learning_trig/img/Stim/FN_004_g.png","13","","","","","","","","","","","","","","","","","",""
"","animation","14","83020","0.0-5.0-0.0-1.0","","","","","","[{""stimulus"":""https://ziweizhang0304.github.io/Stats_learning_trig/img/Stim/FN_002_g.png"",""time"":354.7000000476837},{""stimulus"":""blank"",""time"":663.9000000953674},{""stimulus"":""https://ziweizhang0304.github.io/Stats_learning_trig/img/Stim/FN_013_g.png"",""time"":683.6000001430511},{""stimulus"":""blank"",""time"":1004},{""stimulus"":""https://ziweizhang0304.github.io/Stats_learning_trig/img/Stim/FN_012_g.png"",""time"":1023.6000001430511},{""stimulus"":""blank"",""time"":1343.7000000476837},{""stimulus"":""https://ziweizhang0304.github.io/Stats_learning_trig/img/Stim/FN_016_g.png"",""time"":1364.5},{""stimulus"":""blank"",""time"":1684.1000001430511},{""stimulus"":""https://ziweizhang0304.github.io/Stats_learning_trig/img/Stim/FN_001_g.png"",""time"":1703.7000000476837},{""stimulus"":""blank"",""time"":2004.1000001430511},{""stimulus"":""https://ziweizhang0304.github.io/Stats_learning_trig/img/Stim/FN_011_g.png"",""time"":2044.7000000476837},{""stimulus"":""blank"",""time"":2356.5},{""stimulus"":""https://ziweizhang0304.github.io/Stats_learning_trig/img/Stim/FN_006_g.png"",""time"":2384.100000143051},{""stimulus"":""blank"",""time"":2704.2000000476837},{""stimulus"":""https://ziweizhang0304.github.io/Stats_learning_trig/img/Stim/FN_004_g.png"",""time"":2723.600000143051},{""stimulus"":""blank"",""time"":3043.7999999523163},{""stimulus"":""https://ziweizhang0304.github.io/Stats_learning_trig/img/Stim/FN_022_g.png"",""time"":3063.600000143051},{""stimulus"":""blank"",""time"":3383.7000000476837},{""stimulus"":""https://ziweizhang0304.github.io/Stats_learning_trig/img/Stim/FN_003_g.png"",""time"":3403.7999999523163},{""stimulus"":""blank"",""time"":3704.2999999523163},{""stimulus"":""https://ziweizhang0304.github.io/Stats_learning_trig/img/Stim/FN_024_g.png"",""time"":3741.5},{""stimulus"":""blank"",""time"":4043.7999999523163},{""stimulus"":""https://ziweizhang0304.github.io/Stats_learning_trig/img/Stim/FN_019_g.png"",""time"":4095.600000143051},{""stimulus"":""blank"",""time"":4404.100000143051}]","[{""key_press"":32,""rt"":2355.7999999523163,""stimulus"":""https://ziweizhang0304.github.io/Stats_learning_trig/img/Stim/FN_011_g.png""},{""key_press"":32,""rt"":3157.199999809265,""stimulus"":""https://ziweizhang0304.github.io/Stats_learning_trig/img/Stim/FN_022_g.png""}]","433.599999666214","https://ziweizhang0304.github.io/Stats_learning_trig/img/Stim/FN_004_g.png","post_TD","1","2723.600000143051","3157.199999809265","fast","8","3","5ec75df0d799ae1c11a8115c","","","","","",""
"","image-keyboard-response","15","91271","0.0-5.0-1.0-0.0","8248.299999952316","","","https://ziweizhang0304.github.io/Stats_learning_trig/img/Stim/FN_014_g.png","13","","","","","","","","","","","","","","","","","",""
"","animation","16","95698","0.0-5.0-1.0-1.0","","","","","","[{""stimulus"":""https://ziweizhang0304.github.io/Stats_learning_trig/img/Stim/FN_002_g.png"",""time"":349.7000000476837},{""stimulus"":""blank"",""time"":668.5999999046326},{""stimulus"":""https://ziweizhang0304.github.io/Stats_learning_trig/img/Stim/FN_019_g.png"",""time"":688.2999999523163},{""stimulus"":""blank"",""time"":989.0999999046326},{""stimulus"":""https://ziweizhang0304.github.io/Stats_learning_trig/img/Stim/FN_003_g.png"",""time"":1022.9000000953674},{""stimulus"":""blank"",""time"":1328.9000000953674},{""stimulus"":""https://ziweizhang0304.github.io/Stats_learning_trig/img/Stim/FN_024_g.png"",""time"":1368.7000000476837},{""stimulus"":""blank"",""time"":1669.2000000476837},{""stimulus"":""https://ziweizhang0304.github.io/Stats_learning_trig/img/Stim/FN_001_g.png"",""time"":1702.5999999046326},{""stimulus"":""blank"",""time"":2008.9000000953674},{""stimulus"":""https://ziweizhang0304.github.io/Stats_learning_trig/img/Stim/FN_016_g.png"",""time"":2042.7000000476837},{""stimulus"":""blank"",""time"":2349},{""stimulus"":""https://ziweizhang0304.github.io/Stats_learning_trig/img/Stim/FN_017_g.png"",""time"":2384.4000000953674},{""stimulus"":""blank"",""time"":2689},{""stimulus"":""https://ziweizhang0304.github.io/Stats_learning_trig/img/Stim/FN_021_g.png"",""time"":2729.5999999046326},{""stimulus"":""blank"",""time"":3048.7999999523163},{""stimulus"":""https://ziweizhang0304.github.io/Stats_learning_trig/img/Stim/FN_014_g.png"",""time"":3068.9000000953674},{""stimulus"":""blank"",""time"":3378.9000000953674},{""stimulus"":""https://ziweizhang0304.github.io/Stats_learning_trig/img/Stim/FN_012_g.png"",""time"":3408.2999999523163},{""stimulus"":""blank"",""time"":3728.9000000953674},{""stimulus"":""https://ziweizhang0304.github.io/Stats_learning_trig/img/Stim/FN_022_g.png"",""time"":3749.5},{""stimulus"":""blank"",""time"":4069},{""stimulus"":""https://ziweizhang0304.github.io/Stats_learning_trig/img/Stim/FN_013_g.png"",""time"":4088.9000000953674},{""stimulus"":""blank"",""time"":4398.799999952316}]","[{""key_press"":32,""rt"":3561.7000000476837,""stimulus"":""https://ziweizhang0304.github.io/Stats_learning_trig/img/Stim/FN_012_g.png""}]","492.7999999523163","https://ziweizhang0304.github.io/Stats_learning_trig/img/Stim/FN_014_g.png","post_TD","2","3068.9000000953674","3561.7000000476837","slow","9","3","5ec75df0d799ae1c11a8115c","","","","","",""
"","image-keyboard-response","17","97677","0.0-5.0-2.0-0.0","1977.7000000476837","","","https://ziweizhang0304.github.io/Stats_learning_trig/img/Stim/FN_021_g.png","13","","","","","","","","","","","","","","","","","",""
"","animation","18","102104","0.0-5.0-2.0-1.0","","","","","","[{""stimulus"":""https://ziweizhang0304.github.io/Stats_learning_trig/img/Stim/FN_002_g.png"",""time"":353.60000014305115},{""stimulus"":""blank"",""time"":672.8000001907349},{""stimulus"":""https://ziweizhang0304.github.io/Stats_learning_trig/img/Stim/FN_012_g.png"",""time"":681.6000001430511},{""stimulus"":""blank"",""time"":992.3000001907349},{""stimulus"":""https://ziweizhang0304.github.io/Stats_learning_trig/img/Stim/FN_019_g.png"",""time"":1029.6000001430511},{""stimulus"":""blank"",""time"":1332.6000001430511},{""stimulus"":""https://ziweizhang0304.github.io/Stats_learning_trig/img/Stim/FN_003_g.png"",""time"":1363.6000001430511},{""stimulus"":""blank"",""time"":1672.5},{""stimulus"":""https://ziweizhang0304.github.io/Stats_learning_trig/img/Stim/FN_013_g.png"",""time"":1706.5},{""stimulus"":""blank"",""time"":2012.8000001907349},{""stimulus"":""https://ziweizhang0304.github.io/Stats_learning_trig/img/Stim/FN_017_g.png"",""time"":2046.4000000953674},{""stimulus"":""blank"",""time"":2348.800000190735},{""stimulus"":""https://ziweizhang0304.github.io/Stats_learning_trig/img/Stim/FN_021_g.png"",""time"":2388.300000190735},{""stimulus"":""blank"",""time"":2692.600000143051},{""stimulus"":""https://ziweizhang0304.github.io/Stats_learning_trig/img/Stim/FN_014_g.png"",""time"":2722.300000190735},{""stimulus"":""blank"",""time"":3033},{""stimulus"":""https://ziweizhang0304.github.io/Stats_learning_trig/img/Stim/FN_001_g.png"",""time"":3062.7000000476837},{""stimulus"":""blank"",""time"":3372.9000000953674},{""stimulus"":""https://ziweizhang0304.github.io/Stats_learning_trig/img/Stim/FN_022_g.png"",""time"":3406.5},{""stimulus"":""blank"",""time"":3723},{""stimulus"":""https://ziweizhang0304.github.io/Stats_learning_trig/img/Stim/FN_016_g.png"",""time"":3742.600000143051},{""stimulus"":""blank"",""time"":4062.800000190735},{""stimulus"":""https://ziweizhang0304.github.io/Stats_learning_trig/img/Stim/FN_024_g.png"",""time"":4082.600000143051},{""stimulus"":""blank"",""time"":4392.700000047684}]","[{""key_press"":32,""rt"":2780,""stimulus"":""https://ziweizhang0304.github.io/Stats_learning_trig/img/Stim/FN_014_g.png""}]","391.69999980926514","https://ziweizhang0304.github.io/Stats_learning_trig/img/Stim/FN_021_g.png","post_TD","3","2388.300000190735","2780","slow","7","2","5ec75df0d799ae1c11a8115c","","","","","",""
"","image-keyboard-response","19","103653","0.0-5.0-3.0-0.0","1547.7000000476837","","","https://ziweizhang0304.github.io/Stats_learning_trig/img/Stim/FN_006_g.png","13","","","","","","","","","","","","","","","","","",""
"","animation","20","108079","0.0-5.0-3.0-1.0","","","","","","[{""stimulus"":""https://ziweizhang0304.github.io/Stats_learning_trig/img/Stim/FN_002_g.png"",""time"":357.19999980926514},{""stimulus"":""blank"",""time"":676.5},{""stimulus"":""https://ziweizhang0304.github.io/Stats_learning_trig/img/Stim/FN_022_g.png"",""time"":686.2999999523163},{""stimulus"":""blank"",""time"":996.5},{""stimulus"":""https://ziweizhang0304.github.io/Stats_learning_trig/img/Stim/FN_001_g.png"",""time"":1026.6999998092651},{""stimulus"":""blank"",""time"":1336.3999998569489},{""stimulus"":""https://ziweizhang0304.github.io/Stats_learning_trig/img/Stim/FN_011_g.png"",""time"":1363.5999999046326},{""stimulus"":""blank"",""time"":1676.5},{""stimulus"":""https://ziweizhang0304.github.io/Stats_learning_trig/img/Stim/FN_006_g.png"",""time"":1703},{""stimulus"":""blank"",""time"":2016.2999999523163},{""stimulus"":""https://ziweizhang0304.github.io/Stats_learning_trig/img/Stim/FN_004_g.png"",""time"":2044},{""stimulus"":""blank"",""time"":2356.399999856949},{""stimulus"":""https://ziweizhang0304.github.io/Stats_learning_trig/img/Stim/FN_012_g.png"",""time"":2382},{""stimulus"":""blank"",""time"":2696.5},{""stimulus"":""https://ziweizhang0304.github.io/Stats_learning_trig/img/Stim/FN_013_g.png"",""time"":2725.7999999523163},{""stimulus"":""blank"",""time"":3026.2999999523163},{""stimulus"":""https://ziweizhang0304.github.io/Stats_learning_trig/img/Stim/FN_016_g.png"",""time"":3062.199999809265},{""stimulus"":""blank"",""time"":3366.399999856949},{""stimulus"":""https://ziweizhang0304.github.io/Stats_learning_trig/img/Stim/FN_003_g.png"",""time"":3403.399999856949},{""stimulus"":""blank"",""time"":3706.5},{""stimulus"":""https://ziweizhang0304.github.io/Stats_learning_trig/img/Stim/FN_024_g.png"",""time"":3756.399999856949},{""stimulus"":""blank"",""time"":4066.5},{""stimulus"":""https://ziweizhang0304.github.io/Stats_learning_trig/img/Stim/FN_019_g.png"",""time"":4084},{""stimulus"":""blank"",""time"":4386.399999856949}]","[{""key_press"":32,""rt"":2099.7000000476837,""stimulus"":""https://ziweizhang0304.github.io/Stats_learning_trig/img/Stim/FN_004_g.png""}]","396.7000000476837","https://ziweizhang0304.github.io/Stats_learning_trig/img/Stim/FN_006_g.png","post_TD","4","1703","2099.7000000476837","fast","5","2","5ec75df0d799ae1c11a8115c","","","","","",""
"","image-keyboard-response","21","109929","0.0-5.0-4.0-0.0","1846.7999999523163","","","https://ziweizhang0304.github.io/Stats_learning_trig/img/Stim/FN_014_g.png","13","","","","","","","","","","","","","","","","","",""
"","animation","22","114357","0.0-5.0-4.0-1.0","","","","","","[{""stimulus"":""https://ziweizhang0304.github.io/Stats_learning_trig/img/Stim/FN_002_g.png"",""time"":354.09999990463257},{""stimulus"":""blank"",""time"":670.5999999046326},{""stimulus"":""https://ziweizhang0304.github.io/Stats_learning_trig/img/Stim/FN_012_g.png"",""time"":690.0999999046326},{""stimulus"":""blank"",""time"":1010},{""stimulus"":""https://ziweizhang0304.github.io/Stats_learning_trig/img/Stim/FN_019_g.png"",""time"":1029.6999998092651},{""stimulus"":""blank"",""time"":1330.1999998092651},{""stimulus"":""https://ziweizhang0304.github.io/Stats_learning_trig/img/Stim/FN_003_g.png"",""time"":1366.2999999523163},{""stimulus"":""blank"",""time"":1670.5999999046326},{""stimulus"":""https://ziweizhang0304.github.io/Stats_learning_trig/img/Stim/FN_013_g.png"",""time"":1708.0999999046326},{""stimulus"":""blank"",""time"":2020.2999999523163},{""stimulus"":""https://ziweizhang0304.github.io/Stats_learning_trig/img/Stim/FN_017_g.png"",""time"":2049.899999856949},{""stimulus"":""blank"",""time"":2350.399999856949},{""stimulus"":""https://ziweizhang0304.github.io/Stats_learning_trig/img/Stim/FN_021_g.png"",""time"":2386},{""stimulus"":""blank"",""time"":2690.5999999046326},{""stimulus"":""https://ziweizhang0304.github.io/Stats_learning_trig/img/Stim/FN_014_g.png"",""time"":2727.199999809265},{""stimulus"":""blank"",""time"":3040},{""stimulus"":""https://ziweizhang0304.github.io/Stats_learning_trig/img/Stim/FN_001_g.png"",""time"":3070},{""stimulus"":""blank"",""time"":3380.0999999046326},{""stimulus"":""https://ziweizhang0304.github.io/Stats_learning_trig/img/Stim/FN_022_g.png"",""time"":3406.0999999046326},{""stimulus"":""blank"",""time"":3720.5},{""stimulus"":""https://ziweizhang0304.github.io/Stats_learning_trig/img/Stim/FN_016_g.png"",""time"":3748},{""stimulus"":""blank"",""time"":4060.399999856949},{""stimulus"":""https://ziweizhang0304.github.io/Stats_learning_trig/img/Stim/FN_024_g.png"",""time"":4089.699999809265},{""stimulus"":""blank"",""time"":4400.5}]","[{""key_press"":32,""rt"":3137.2000000476837,""stimulus"":""https://ziweizhang0304.github.io/Stats_learning_trig/img/Stim/FN_001_g.png""}]","410.0000002384186","https://ziweizhang0304.github.io/Stats_learning_trig/img/Stim/FN_014_g.png","post_TD","5","2727.199999809265","3137.2000000476837","slow","8","3","5ec75df0d799ae1c11a8115c","","","","","",""
"","image-keyboard-response","23","145323","0.0-5.0-5.0-0.0","30964.599999904633","","","https://ziweizhang0304.github.io/Stats_learning_trig/img/Stim/FN_014_g.png","13","","","","","","","","","","","","","","","","","",""
"","animation","24","149750","0.0-5.0-5.0-1.0","","","","","","[{""stimulus"":""https://ziweizhang0304.github.io/Stats_learning_trig/img/Stim/FN_012_g.png"",""time"":346.39999985694885},{""stimulus"":""blank"",""time"":666.0999999046326},{""stimulus"":""https://ziweizhang0304.github.io/Stats_learning_trig/img/Stim/FN_019_g.png"",""time"":685.5999999046326},{""stimulus"":""blank"",""time"":986.2000000476837},{""stimulus"":""https://ziweizhang0304.github.io/Stats_learning_trig/img/Stim/FN_003_g.png"",""time"":1026.5999999046326},{""stimulus"":""blank"",""time"":1345.7000000476837},{""stimulus"":""https://ziweizhang0304.github.io/Stats_learning_trig/img/Stim/FN_017_g.png"",""time"":1363.7000000476837},{""stimulus"":""blank"",""time"":1665.8999998569489},{""stimulus"":""https://ziweizhang0304.github.io/Stats_learning_trig/img/Stim/FN_021_g.png"",""time"":1701.7000000476837},{""stimulus"":""blank"",""time"":2006.0999999046326},{""stimulus"":""https://ziweizhang0304.github.io/Stats_learning_trig/img/Stim/FN_014_g.png"",""time"":2041.5999999046326},{""stimulus"":""blank"",""time"":2345.7999999523163},{""stimulus"":""https://ziweizhang0304.github.io/Stats_learning_trig/img/Stim/FN_001_g.png"",""time"":2381.7999999523163},{""stimulus"":""blank"",""time"":2686.2999999523163},{""stimulus"":""https://ziweizhang0304.github.io/Stats_learning_trig/img/Stim/FN_022_g.png"",""time"":2726},{""stimulus"":""blank"",""time"":3045.899999856949},{""stimulus"":""https://ziweizhang0304.github.io/Stats_learning_trig/img/Stim/FN_013_g.png"",""time"":3066},{""stimulus"":""blank"",""time"":3379.399999856949},{""stimulus"":""https://ziweizhang0304.github.io/Stats_learning_trig/img/Stim/FN_016_g.png"",""time"":3405.5999999046326},{""stimulus"":""blank"",""time"":3713.7999999523163},{""stimulus"":""https://ziweizhang0304.github.io/Stats_learning_trig/img/Stim/FN_002_g.png"",""time"":3745.899999856949},{""stimulus"":""blank"",""time"":4065.7000000476837},{""stimulus"":""https://ziweizhang0304.github.io/Stats_learning_trig/img/Stim/FN_024_g.png"",""time"":4085.2999999523163},{""stimulus"":""blank"",""time"":4386}]","[{""key_press"":32,""rt"":2385.399999856949,""stimulus"":""https://ziweizhang0304.github.io/Stats_learning_trig/img/Stim/FN_001_g.png""}]","343.7999999523163","https://ziweizhang0304.github.io/Stats_learning_trig/img/Stim/FN_014_g.png","post_TD","6","2041.5999999046326","2385.399999856949","slow","6","3","5ec75df0d799ae1c11a8115c","","","","","",""
"","image-keyboard-response","25","151392","0.0-5.0-6.0-0.0","1640","","","https://ziweizhang0304.github.io/Stats_learning_trig/img/Stim/FN_017_g.png","13","","","","","","","","","","","","","","","","","",""
"","animation","26","155816","0.0-5.0-6.0-1.0","","","","","","[{""stimulus"":""https://ziweizhang0304.github.io/Stats_learning_trig/img/Stim/FN_002_g.png"",""time"":348},{""stimulus"":""blank"",""time"":652.5999999046326},{""stimulus"":""https://ziweizhang0304.github.io/Stats_learning_trig/img/Stim/FN_012_g.png"",""time"":687.2999999523163},{""stimulus"":""blank"",""time"":1007.0999999046326},{""stimulus"":""https://ziweizhang0304.github.io/Stats_learning_trig/img/Stim/FN_019_g.png"",""time"":1024.6999998092651},{""stimulus"":""blank"",""time"":1327.0999999046326},{""stimulus"":""https://ziweizhang0304.github.io/Stats_learning_trig/img/Stim/FN_003_g.png"",""time"":1363.5},{""stimulus"":""blank"",""time"":1667.2999999523163},{""stimulus"":""https://ziweizhang0304.github.io/Stats_learning_trig/img/Stim/FN_013_g.png"",""time"":1703.1999998092651},{""stimulus"":""blank"",""time"":2007.3999998569489},{""stimulus"":""https://ziweizhang0304.github.io/Stats_learning_trig/img/Stim/FN_017_g.png"",""time"":2043.1999998092651},{""stimulus"":""blank"",""time"":2356.399999856949},{""stimulus"":""https://ziweizhang0304.github.io/Stats_learning_trig/img/Stim/FN_021_g.png"",""time"":2383.0999999046326},{""stimulus"":""blank"",""time"":2687},{""stimulus"":""https://ziweizhang0304.github.io/Stats_learning_trig/img/Stim/FN_014_g.png"",""time"":2723.0999999046326},{""stimulus"":""blank"",""time"":3036.899999856949},{""stimulus"":""https://ziweizhang0304.github.io/Stats_learning_trig/img/Stim/FN_001_g.png"",""time"":3063.2999999523163},{""stimulus"":""blank"",""time"":3377.399999856949},{""stimulus"":""https://ziweizhang0304.github.io/Stats_learning_trig/img/Stim/FN_022_g.png"",""time"":3413.5},{""stimulus"":""blank"",""time"":3717.199999809265},{""stimulus"":""https://ziweizhang0304.github.io/Stats_learning_trig/img/Stim/FN_016_g.png"",""time"":3742.7999999523163},{""stimulus"":""blank"",""time"":4057.399999856949},{""stimulus"":""https://ziweizhang0304.github.io/Stats_learning_trig/img/Stim/FN_024_g.png"",""time"":4084.899999856949},{""stimulus"":""blank"",""time"":4397}]","[{""key_press"":32,""rt"":2446,""stimulus"":""https://ziweizhang0304.github.io/Stats_learning_trig/img/Stim/FN_021_g.png""}]","402.80000019073486","https://ziweizhang0304.github.io/Stats_learning_trig/img/Stim/FN_017_g.png","post_TD","7","2043.1999998092651","2446","slow","6","1","5ec75df0d799ae1c11a8115c","","","","","",""
"","image-keyboard-response","27","157645","0.0-5.0-7.0-0.0","1826.8000001907349","","","https://ziweizhang0304.github.io/Stats_learning_trig/img/Stim/FN_017_g.png","13","","","","","","","","","","","","","","","","","",""
"","animation","28","162069","0.0-5.0-7.0-1.0","","","","","","[{""stimulus"":""https://ziweizhang0304.github.io/Stats_learning_trig/img/Stim/FN_012_g.png"",""time"":355.69999980926514},{""stimulus"":""blank"",""time"":674.8999998569489},{""stimulus"":""https://ziweizhang0304.github.io/Stats_learning_trig/img/Stim/FN_019_g.png"",""time"":695.3999998569489},{""stimulus"":""blank"",""time"":1014.8999998569489},{""stimulus"":""https://ziweizhang0304.github.io/Stats_learning_trig/img/Stim/FN_003_g.png"",""time"":1023.5},{""stimulus"":""blank"",""time"":1334.5},{""stimulus"":""https://ziweizhang0304.github.io/Stats_learning_trig/img/Stim/FN_017_g.png"",""time"":1362.3999998569489},{""stimulus"":""blank"",""time"":1674.8999998569489},{""stimulus"":""https://ziweizhang0304.github.io/Stats_learning_trig/img/Stim/FN_021_g.png"",""time"":1710.7999999523163},{""stimulus"":""blank"",""time"":2015},{""stimulus"":""https://ziweizhang0304.github.io/Stats_learning_trig/img/Stim/FN_014_g.png"",""time"":2044.0999999046326},{""stimulus"":""blank"",""time"":2354.5999999046326},{""stimulus"":""https://ziweizhang0304.github.io/Stats_learning_trig/img/Stim/FN_001_g.png"",""time"":2384.5999999046326},{""stimulus"":""blank"",""time"":2695.0999999046326},{""stimulus"":""https://ziweizhang0304.github.io/Stats_learning_trig/img/Stim/FN_022_g.png"",""time"":2722.5999999046326},{""stimulus"":""blank"",""time"":3034.899999856949},{""stimulus"":""https://ziweizhang0304.github.io/Stats_learning_trig/img/Stim/FN_013_g.png"",""time"":3062.399999856949},{""stimulus"":""blank"",""time"":3374.899999856949},{""stimulus"":""https://ziweizhang0304.github.io/Stats_learning_trig/img/Stim/FN_016_g.png"",""time"":3410.5999999046326},{""stimulus"":""blank"",""time"":3714.5},{""stimulus"":""https://ziweizhang0304.github.io/Stats_learning_trig/img/Stim/FN_002_g.png"",""time"":3742.2999999523163},{""stimulus"":""blank"",""time"":4054.699999809265},{""stimulus"":""https://ziweizhang0304.github.io/Stats_learning_trig/img/Stim/FN_024_g.png"",""time"":4082.5},{""stimulus"":""blank"",""time"":4394.899999856949}]","[{""key_press"":32,""rt"":1758.6999998092651,""stimulus"":""https://ziweizhang0304.github.io/Stats_learning_trig/img/Stim/FN_021_g.png""}]","396.2999999523163","https://ziweizhang0304.github.io/Stats_learning_trig/img/Stim/FN_017_g.png","post_TD","8","1362.3999998569489","1758.6999998092651","slow","4","1","5ec75df0d799ae1c11a8115c","","","","","",""
"","image-keyboard-response","29","167524","0.0-5.0-8.0-0.0","5452.900000095367","","","https://ziweizhang0304.github.io/Stats_learning_trig/img/Stim/FN_021_g.png","13","","","","","","","","","","","","","","","","","",""
"","animation","30","171949","0.0-5.0-8.0-1.0","","","","","","[{""stimulus"":""https://ziweizhang0304.github.io/Stats_learning_trig/img/Stim/FN_001_g.png"",""time"":345.59999990463257},{""stimulus"":""blank"",""time"":654.5999999046326},{""stimulus"":""https://ziweizhang0304.github.io/Stats_learning_trig/img/Stim/FN_013_g.png"",""time"":680.8999998569489},{""stimulus"":""blank"",""time"":995},{""stimulus"":""https://ziweizhang0304.github.io/Stats_learning_trig/img/Stim/FN_024_g.png"",""time"":1031},{""stimulus"":""blank"",""time"":1334.7000000476837},{""stimulus"":""https://ziweizhang0304.github.io/Stats_learning_trig/img/Stim/FN_016_g.png"",""time"":1363.7999999523163},{""stimulus"":""blank"",""time"":1674.5},{""stimulus"":""https://ziweizhang0304.github.io/Stats_learning_trig/img/Stim/FN_017_g.png"",""time"":1704.5999999046326},{""stimulus"":""blank"",""time"":2015.0999999046326},{""stimulus"":""https://ziweizhang0304.github.io/Stats_learning_trig/img/Stim/FN_021_g.png"",""time"":2042.5999999046326},{""stimulus"":""blank"",""time"":2354.7000000476837},{""stimulus"":""https://ziweizhang0304.github.io/Stats_learning_trig/img/Stim/FN_014_g.png"",""time"":2382.7999999523163},{""stimulus"":""blank"",""time"":2694.5999999046326},{""stimulus"":""https://ziweizhang0304.github.io/Stats_learning_trig/img/Stim/FN_012_g.png"",""time"":2724.7000000476837},{""stimulus"":""blank"",""time"":3035.0999999046326},{""stimulus"":""https://ziweizhang0304.github.io/Stats_learning_trig/img/Stim/FN_022_g.png"",""time"":3063.0999999046326},{""stimulus"":""blank"",""time"":3375.899999856949},{""stimulus"":""https://ziweizhang0304.github.io/Stats_learning_trig/img/Stim/FN_002_g.png"",""time"":3405.399999856949},{""stimulus"":""blank"",""time"":3714.5},{""stimulus"":""https://ziweizhang0304.github.io/Stats_learning_trig/img/Stim/FN_003_g.png"",""time"":3744.399999856949},{""stimulus"":""blank"",""time"":4054.899999856949},{""stimulus"":""https://ziweizhang0304.github.io/Stats_learning_trig/img/Stim/FN_019_g.png"",""time"":4082.7000000476837},{""stimulus"":""blank"",""time"":4386.399999856949}]","[{""key_press"":32,""rt"":2385,""stimulus"":""https://ziweizhang0304.github.io/Stats_learning_trig/img/Stim/FN_014_g.png""}]","342.40000009536743","https://ziweizhang0304.github.io/Stats_learning_trig/img/Stim/FN_021_g.png","post_TD","9","2042.5999999046326","2385","slow","6","2","5ec75df0d799ae1c11a8115c","","","","","",""
"","image-keyboard-response","31","174146","0.0-5.0-9.0-0.0","2194.2000000476837","","","https://ziweizhang0304.github.io/Stats_learning_trig/img/Stim/FN_021_g.png","13","","","","","","","","","","","","","","","","","",""
"","animation","32","178572","0.0-5.0-9.0-1.0","","","","","","[{""stimulus"":""https://ziweizhang0304.github.io/Stats_learning_trig/img/Stim/FN_002_g.png"",""time"":344.2000000476837},{""stimulus"":""blank"",""time"":663.2999999523163},{""stimulus"":""https://ziweizhang0304.github.io/Stats_learning_trig/img/Stim/FN_019_g.png"",""time"":683.7000000476837},{""stimulus"":""blank"",""time"":1003.4000000953674},{""stimulus"":""https://ziweizhang0304.github.io/Stats_learning_trig/img/Stim/FN_003_g.png"",""time"":1022.9000000953674},{""stimulus"":""blank"",""time"":1323.2999999523163},{""stimulus"":""https://ziweizhang0304.github.io/Stats_learning_trig/img/Stim/FN_024_g.png"",""time"":1372.4000000953674},{""stimulus"":""blank"",""time"":1683.4000000953674},{""stimulus"":""https://ziweizhang0304.github.io/Stats_learning_trig/img/Stim/FN_001_g.png"",""time"":1703.7000000476837},{""stimulus"":""blank"",""time"":2023.5},{""stimulus"":""https://ziweizhang0304.github.io/Stats_learning_trig/img/Stim/FN_016_g.png"",""time"":2043.7000000476837},{""stimulus"":""blank"",""time"":2363.2999999523163},{""stimulus"":""https://ziweizhang0304.github.io/Stats_learning_trig/img/Stim/FN_017_g.png"",""time"":2383},{""stimulus"":""blank"",""time"":2703.5},{""stimulus"":""https://ziweizhang0304.github.io/Stats_learning_trig/img/Stim/FN_021_g.png"",""time"":2720.9000000953674},{""stimulus"":""blank"",""time"":3032.9000000953674},{""stimulus"":""https://ziweizhang0304.github.io/Stats_learning_trig/img/Stim/FN_014_g.png"",""time"":3063.100000143051},{""stimulus"":""blank"",""time"":3383.5},{""stimulus"":""https://ziweizhang0304.github.io/Stats_learning_trig/img/Stim/FN_012_g.png"",""time"":3400.9000000953674},{""stimulus"":""blank"",""time"":3703.600000143051},{""stimulus"":""https://ziweizhang0304.github.io/Stats_learning_trig/img/Stim/FN_022_g.png"",""time"":3742.5},{""stimulus"":""blank"",""time"":4053.2999999523163},{""stimulus"":""https://ziweizhang0304.github.io/Stats_learning_trig/img/Stim/FN_013_g.png"",""time"":4082.7000000476837},{""stimulus"":""blank"",""time"":4393.400000095367}]","[{""key_press"":32,""rt"":3063.7999999523163,""stimulus"":""https://ziweizhang0304.github.io/Stats_learning_trig/img/Stim/FN_014_g.png""}]","342.89999985694885","https://ziweizhang0304.github.io/Stats_learning_trig/img/Stim/FN_021_g.png","post_TD","10","2720.9000000953674","3063.7999999523163","slow","8","2","5ec75df0d799ae1c11a8115c","","","","","",""
"","image-keyboard-response","33","180488","0.0-5.0-10.0-0.0","1914.5","","","https://ziweizhang0304.github.io/Stats_learning_trig/img/Stim/FN_006_g.png","13","","","","","","","","","","","","","","","","","",""
"","animation","34","184909","0.0-5.0-10.0-1.0","","","","","","[{""stimulus"":""https://ziweizhang0304.github.io/Stats_learning_trig/img/Stim/FN_002_g.png"",""time"":352},{""stimulus"":""blank"",""time"":671},{""stimulus"":""https://ziweizhang0304.github.io/Stats_learning_trig/img/Stim/FN_016_g.png"",""time"":681.4000000953674},{""stimulus"":""blank"",""time"":991.1000001430511},{""stimulus"":""https://ziweizhang0304.github.io/Stats_learning_trig/img/Stim/FN_003_g.png"",""time"":1030.8000001907349},{""stimulus"":""blank"",""time"":1351.1000001430511},{""stimulus"":""https://ziweizhang0304.github.io/Stats_learning_trig/img/Stim/FN_012_g.png"",""time"":1370.5},{""stimulus"":""blank"",""time"":1671.1000001430511},{""stimulus"":""https://ziweizhang0304.github.io/Stats_learning_trig/img/Stim/FN_011_g.png"",""time"":1707},{""stimulus"":""blank"",""time"":2010.7000000476837},{""stimulus"":""https://ziweizhang0304.github.io/Stats_learning_trig/img/Stim/FN_006_g.png"",""time"":2040.9000000953674},{""stimulus"":""blank"",""time"":2361.2000000476837},{""stimulus"":""https://ziweizhang0304.github.io/Stats_learning_trig/img/Stim/FN_004_g.png"",""time"":2381.300000190735},{""stimulus"":""blank"",""time"":2700.7000000476837},{""stimulus"":""https://ziweizhang0304.github.io/Stats_learning_trig/img/Stim/FN_001_g.png"",""time"":2729.4000000953674},{""stimulus"":""blank"",""time"":3040.800000190735},{""stimulus"":""https://ziweizhang0304.github.io/Stats_learning_trig/img/Stim/FN_022_g.png"",""time"":3066.800000190735},{""stimulus"":""blank"",""time"":3380.7000000476837},{""stimulus"":""https://ziweizhang0304.github.io/Stats_learning_trig/img/Stim/FN_013_g.png"",""time"":3401.600000143051},{""stimulus"":""blank"",""time"":3720.7000000476837},{""stimulus"":""https://ziweizhang0304.github.io/Stats_learning_trig/img/Stim/FN_024_g.png"",""time"":3748.800000190735},{""stimulus"":""blank"",""time"":4061},{""stimulus"":""https://ziweizhang0304.github.io/Stats_learning_trig/img/Stim/FN_019_g.png"",""time"":4091.300000190735},{""stimulus"":""blank"",""time"":4411}]","[{""key_press"":32,""rt"":2419.7000000476837,""stimulus"":""https://ziweizhang0304.github.io/Stats_learning_trig/img/Stim/FN_004_g.png""}]","378.7999999523163","https://ziweizhang0304.github.io/Stats_learning_trig/img/Stim/FN_006_g.png","post_TD","11","2040.9000000953674","2419.7000000476837","fast","6","2","5ec75df0d799ae1c11a8115c","","","","","",""
"","image-keyboard-response","35","187209","0.0-5.0-11.0-0.0","2296.7999999523163","","","https://ziweizhang0304.github.io/Stats_learning_trig/img/Stim/FN_006_g.png","13","","","","","","","","","","","","","","","","","",""
"","animation","36","191638","0.0-5.0-11.0-1.0","","","","","","[{""stimulus"":""https://ziweizhang0304.github.io/Stats_learning_trig/img/Stim/FN_002_g.png"",""time"":351.59999990463257},{""stimulus"":""blank"",""time"":670.2999999523163},{""stimulus"":""https://ziweizhang0304.github.io/Stats_learning_trig/img/Stim/FN_013_g.png"",""time"":681.2999999523163},{""stimulus"":""blank"",""time"":990.8999998569489},{""stimulus"":""https://ziweizhang0304.github.io/Stats_learning_trig/img/Stim/FN_012_g.png"",""time"":1029.7999999523163},{""stimulus"":""blank"",""time"":1330.6999998092651},{""stimulus"":""https://ziweizhang0304.github.io/Stats_learning_trig/img/Stim/FN_016_g.png"",""time"":1362.6999998092651},{""stimulus"":""blank"",""time"":1670.5999999046326},{""stimulus"":""https://ziweizhang0304.github.io/Stats_learning_trig/img/Stim/FN_001_g.png"",""time"":1706.5999999046326},{""stimulus"":""blank"",""time"":2010.8999998569489},{""stimulus"":""https://ziweizhang0304.github.io/Stats_learning_trig/img/Stim/FN_011_g.png"",""time"":2046.1999998092651},{""stimulus"":""blank"",""time"":2350.899999856949},{""stimulus"":""https://ziweizhang0304.github.io/Stats_learning_trig/img/Stim/FN_006_g.png"",""time"":2384.2999999523163},{""stimulus"":""blank"",""time"":2700.399999856949},{""stimulus"":""https://ziweizhang0304.github.io/Stats_learning_trig/img/Stim/FN_004_g.png"",""time"":2729.5},{""stimulus"":""blank"",""time"":3040.699999809265},{""stimulus"":""https://ziweizhang0304.github.io/Stats_learning_trig/img/Stim/FN_022_g.png"",""time"":3066.5},{""stimulus"":""blank"",""time"":3380.699999809265},{""stimulus"":""https://ziweizhang0304.github.io/Stats_learning_trig/img/Stim/FN_003_g.png"",""time"":3408.0999999046326},{""stimulus"":""blank"",""time"":3720.399999856949},{""stimulus"":""https://ziweizhang0304.github.io/Stats_learning_trig/img/Stim/FN_024_g.png"",""time"":3746.0999999046326},{""stimulus"":""blank"",""time"":4060.5},{""stimulus"":""https://ziweizhang0304.github.io/Stats_learning_trig/img/Stim/FN_019_g.png"",""time"":4081.0999999046326},{""stimulus"":""blank"",""time"":4390.299999952316}]","[{""key_press"":32,""rt"":2734.4000000953674,""stimulus"":""https://ziweizhang0304.github.io/Stats_learning_trig/img/Stim/FN_004_g.png""}]","350.10000014305115","https://ziweizhang0304.github.io/Stats_learning_trig/img/Stim/FN_006_g.png","post_TD","12","2384.2999999523163","2734.4000000953674","fast","7","2","5ec75df0d799ae1c11a8115c","","","","","",""
"","image-keyboard-response","37","193641","0.0-5.0-12.0-0.0","2000.5999999046326","","","https://ziweizhang0304.github.io/Stats_learning_trig/img/Stim/FN_017_g.png","13","","","","","","","","","","","","","","","","","",""
"","animation","38","198067","0.0-5.0-12.0-1.0","","","","","","[{""stimulus"":""https://ziweizhang0304.github.io/Stats_learning_trig/img/Stim/FN_001_g.png"",""time"":349.40000009536743},{""stimulus"":""blank"",""time"":658.2999999523163},{""stimulus"":""https://ziweizhang0304.github.io/Stats_learning_trig/img/Stim/FN_013_g.png"",""time"":688.2000000476837},{""stimulus"":""blank"",""time"":998.2999999523163},{""stimulus"":""https://ziweizhang0304.github.io/Stats_learning_trig/img/Stim/FN_024_g.png"",""time"":1025.9000000953674},{""stimulus"":""blank"",""time"":1338.4000000953674},{""stimulus"":""https://ziweizhang0304.github.io/Stats_learning_trig/img/Stim/FN_016_g.png"",""time"":1363.4000000953674},{""stimulus"":""blank"",""time"":1668.5},{""stimulus"":""https://ziweizhang0304.github.io/Stats_learning_trig/img/Stim/FN_017_g.png"",""time"":1703.5},{""stimulus"":""blank"",""time"":2018.2000000476837},{""stimulus"":""https://ziweizhang0304.github.io/Stats_learning_trig/img/Stim/FN_021_g.png"",""time"":2046},{""stimulus"":""blank"",""time"":2358.2000000476837},{""stimulus"":""https://ziweizhang0304.github.io/Stats_learning_trig/img/Stim/FN_014_g.png"",""time"":2385.7999999523163},{""stimulus"":""blank"",""time"":2697.9000000953674},{""stimulus"":""https://ziweizhang0304.github.io/Stats_learning_trig/img/Stim/FN_012_g.png"",""time"":2725.600000143051},{""stimulus"":""blank"",""time"":3038.4000000953674},{""stimulus"":""https://ziweizhang0304.github.io/Stats_learning_trig/img/Stim/FN_022_g.png"",""time"":3063.5},{""stimulus"":""blank"",""time"":3378.2999999523163},{""stimulus"":""https://ziweizhang0304.github.io/Stats_learning_trig/img/Stim/FN_002_g.png"",""time"":3413.600000143051},{""stimulus"":""blank"",""time"":3718.100000143051},{""stimulus"":""https://ziweizhang0304.github.io/Stats_learning_trig/img/Stim/FN_003_g.png"",""time"":3745.7999999523163},{""stimulus"":""blank"",""time"":4058.4000000953674},{""stimulus"":""https://ziweizhang0304.github.io/Stats_learning_trig/img/Stim/FN_019_g.png"",""time"":4084.2000000476837},{""stimulus"":""blank"",""time"":4398.299999952316}]","[{""key_press"":32,""rt"":2111.7999999523163,""stimulus"":""https://ziweizhang0304.github.io/Stats_learning_trig/img/Stim/FN_021_g.png""}]","408.2999999523163","https://ziweizhang0304.github.io/Stats_learning_trig/img/Stim/FN_017_g.png","post_TD","13","1703.5","2111.7999999523163","slow","5","1","5ec75df0d799ae1c11a8115c","","","","","",""
"","image-keyboard-response","39","204602","0.0-5.0-13.0-0.0","6532.799999952316","","","https://ziweizhang0304.github.io/Stats_learning_trig/img/Stim/FN_004_g.png","13","","","","","","","","","","","","","","","","","",""
"","animation","40","209030","0.0-5.0-13.0-1.0","","","","","","[{""stimulus"":""https://ziweizhang0304.github.io/Stats_learning_trig/img/Stim/FN_016_g.png"",""time"":357.5},{""stimulus"":""blank"",""time"":676.5},{""stimulus"":""https://ziweizhang0304.github.io/Stats_learning_trig/img/Stim/FN_013_g.png"",""time"":687.3999998569489},{""stimulus"":""blank"",""time"":996.5},{""stimulus"":""https://ziweizhang0304.github.io/Stats_learning_trig/img/Stim/FN_001_g.png"",""time"":1026.5999999046326},{""stimulus"":""blank"",""time"":1336.7000000476837},{""stimulus"":""https://ziweizhang0304.github.io/Stats_learning_trig/img/Stim/FN_003_g.png"",""time"":1365.0999999046326},{""stimulus"":""blank"",""time"":1676.8999998569489},{""stimulus"":""https://ziweizhang0304.github.io/Stats_learning_trig/img/Stim/FN_024_g.png"",""time"":1701.8999998569489},{""stimulus"":""blank"",""time"":2016.5999999046326},{""stimulus"":""https://ziweizhang0304.github.io/Stats_learning_trig/img/Stim/FN_019_g.png"",""time"":2047.3999998569489},{""stimulus"":""blank"",""time"":2357},{""stimulus"":""https://ziweizhang0304.github.io/Stats_learning_trig/img/Stim/FN_011_g.png"",""time"":2385.2999999523163},{""stimulus"":""blank"",""time"":2697.0999999046326},{""stimulus"":""https://ziweizhang0304.github.io/Stats_learning_trig/img/Stim/FN_006_g.png"",""time"":2724.2999999523163},{""stimulus"":""blank"",""time"":3037.2000000476837},{""stimulus"":""https://ziweizhang0304.github.io/Stats_learning_trig/img/Stim/FN_004_g.png"",""time"":3065.5999999046326},{""stimulus"":""blank"",""time"":3377.399999856949},{""stimulus"":""https://ziweizhang0304.github.io/Stats_learning_trig/img/Stim/FN_012_g.png"",""time"":3404.2999999523163},{""stimulus"":""blank"",""time"":3716.5},{""stimulus"":""https://ziweizhang0304.github.io/Stats_learning_trig/img/Stim/FN_022_g.png"",""time"":3752},{""stimulus"":""blank"",""time"":4066.5},{""stimulus"":""https://ziweizhang0304.github.io/Stats_learning_trig/img/Stim/FN_002_g.png"",""time"":4087.7999999523163},{""stimulus"":""blank"",""time"":4406.899999856949}]","[{""key_press"":32,""rt"":3380.699999809265,""stimulus"":""blank""}]","315.09999990463257","https://ziweizhang0304.github.io/Stats_learning_trig/img/Stim/FN_004_g.png","post_TD","14","3065.5999999046326","3380.699999809265","fast","9","3","5ec75df0d799ae1c11a8115c","","","","","",""
"","image-keyboard-response","41","225223","0.0-5.0-14.0-0.0","16195","","","https://ziweizhang0304.github.io/Stats_learning_trig/img/Stim/FN_004_g.png","13","","","","","","","","","","","","","","","","","",""
"","animation","42","229644","0.0-5.0-14.0-1.0","","","","","","[{""stimulus"":""https://ziweizhang0304.github.io/Stats_learning_trig/img/Stim/FN_002_g.png"",""time"":352.60000014305115},{""stimulus"":""blank"",""time"":671.6000001430511},{""stimulus"":""https://ziweizhang0304.github.io/Stats_learning_trig/img/Stim/FN_022_g.png"",""time"":691.3000001907349},{""stimulus"":""blank"",""time"":1011.6000001430511},{""stimulus"":""https://ziweizhang0304.github.io/Stats_learning_trig/img/Stim/FN_001_g.png"",""time"":1030.9000000953674},{""stimulus"":""blank"",""time"":1331.3000001907349},{""stimulus"":""https://ziweizhang0304.github.io/Stats_learning_trig/img/Stim/FN_011_g.png"",""time"":1365.2000000476837},{""stimulus"":""blank"",""time"":1671.8000001907349},{""stimulus"":""https://ziweizhang0304.github.io/Stats_learning_trig/img/Stim/FN_006_g.png"",""time"":1707.1000001430511},{""stimulus"":""blank"",""time"":2011.7000000476837},{""stimulus"":""https://ziweizhang0304.github.io/Stats_learning_trig/img/Stim/FN_004_g.png"",""time"":2043.1000001430511},{""stimulus"":""blank"",""time"":2351.2000000476837},{""stimulus"":""https://ziweizhang0304.github.io/Stats_learning_trig/img/Stim/FN_012_g.png"",""time"":2391.7000000476837},{""stimulus"":""blank"",""time"":2711.600000143051},{""stimulus"":""https://ziweizhang0304.github.io/Stats_learning_trig/img/Stim/FN_013_g.png"",""time"":2730.800000190735},{""stimulus"":""blank"",""time"":3031.600000143051},{""stimulus"":""https://ziweizhang0304.github.io/Stats_learning_trig/img/Stim/FN_016_g.png"",""time"":3067.5},{""stimulus"":""blank"",""time"":3381},{""stimulus"":""https://ziweizhang0304.github.io/Stats_learning_trig/img/Stim/FN_003_g.png"",""time"":3407.5},{""stimulus"":""blank"",""time"":3721.5},{""stimulus"":""https://ziweizhang0304.github.io/Stats_learning_trig/img/Stim/FN_024_g.png"",""time"":3741.2000000476837},{""stimulus"":""blank"",""time"":4061.5},{""stimulus"":""https://ziweizhang0304.github.io/Stats_learning_trig/img/Stim/FN_019_g.png"",""time"":4089.5},{""stimulus"":""blank"",""time"":4401}]","[{""key_press"":32,""rt"":2364.600000143051,""stimulus"":""blank""}]","321.5","https://ziweizhang0304.github.io/Stats_learning_trig/img/Stim/FN_004_g.png","post_TD","15","2043.1000001430511","2364.600000143051","fast","6","3","5ec75df0d799ae1c11a8115c","","","","","",""
"","image-keyboard-response","43","231515","0.0-5.0-15.0-0.0","1866.8999998569489","","","https://ziweizhang0304.github.io/Stats_learning_trig/img/Stim/FN_017_g.png","13","","","","","","","","","","","","","","","","","",""
"","animation","44","235942","0.0-5.0-15.0-1.0","","","","","","[{""stimulus"":""https://ziweizhang0304.github.io/Stats_learning_trig/img/Stim/FN_002_g.png"",""time"":350.40000009536743},{""stimulus"":""blank"",""time"":669.5},{""stimulus"":""https://ziweizhang0304.github.io/Stats_learning_trig/img/Stim/FN_019_g.png"",""time"":687},{""stimulus"":""blank"",""time"":998.5},{""stimulus"":""https://ziweizhang0304.github.io/Stats_learning_trig/img/Stim/FN_003_g.png"",""time"":1034.3000001907349},{""stimulus"":""blank"",""time"":1349},{""stimulus"":""https://ziweizhang0304.github.io/Stats_learning_trig/img/Stim/FN_024_g.png"",""time"":1368.5},{""stimulus"":""blank"",""time"":1679.6000001430511},{""stimulus"":""https://ziweizhang0304.github.io/Stats_learning_trig/img/Stim/FN_001_g.png"",""time"":1707},{""stimulus"":""blank"",""time"":2019.4000000953674},{""stimulus"":""https://ziweizhang0304.github.io/Stats_learning_trig/img/Stim/FN_016_g.png"",""time"":2045.1000001430511},{""stimulus"":""blank"",""time"":2359.100000143051},{""stimulus"":""https://ziweizhang0304.github.io/Stats_learning_trig/img/Stim/FN_017_g.png"",""time"":2384.4000000953674},{""stimulus"":""blank"",""time"":2699.300000190735},{""stimulus"":""https://ziweizhang0304.github.io/Stats_learning_trig/img/Stim/FN_021_g.png"",""time"":2727.100000143051},{""stimulus"":""blank"",""time"":3039.4000000953674},{""stimulus"":""https://ziweizhang0304.github.io/Stats_learning_trig/img/Stim/FN_014_g.png"",""time"":3065.2000000476837},{""stimulus"":""blank"",""time"":3379.5},{""stimulus"":""https://ziweizhang0304.github.io/Stats_learning_trig/img/Stim/FN_012_g.png"",""time"":3407.600000143051},{""stimulus"":""blank"",""time"":3719.100000143051},{""stimulus"":""https://ziweizhang0304.github.io/Stats_learning_trig/img/Stim/FN_022_g.png"",""time"":3747},{""stimulus"":""blank"",""time"":4059.2000000476837},{""stimulus"":""https://ziweizhang0304.github.io/Stats_learning_trig/img/Stim/FN_013_g.png"",""time"":4084.100000143051},{""stimulus"":""blank"",""time"":4399.400000095367}]","[{""key_press"":32,""rt"":2739,""stimulus"":""https://ziweizhang0304.github.io/Stats_learning_trig/img/Stim/FN_021_g.png""}]","354.59999990463257","https://ziweizhang0304.github.io/Stats_learning_trig/img/Stim/FN_017_g.png","post_TD","16","2384.4000000953674","2739","slow","7","1","5ec75df0d799ae1c11a8115c","","","","","",""
"","image-keyboard-response","45","238634","0.0-5.0-16.0-0.0","2689.5","","","https://ziweizhang0304.github.io/Stats_learning_trig/img/Stim/FN_011_g.png","13","","","","","","","","","","","","","","","","","",""
"","animation","46","243061","0.0-5.0-16.0-1.0","","","","","","[{""stimulus"":""https://ziweizhang0304.github.io/Stats_learning_trig/img/Stim/FN_002_g.png"",""time"":350.7999999523163},{""stimulus"":""blank"",""time"":670.1999998092651},{""stimulus"":""https://ziweizhang0304.github.io/Stats_learning_trig/img/Stim/FN_022_g.png"",""time"":689.6999998092651},{""stimulus"":""blank"",""time"":1010},{""stimulus"":""https://ziweizhang0304.github.io/Stats_learning_trig/img/Stim/FN_001_g.png"",""time"":1030.2999999523163},{""stimulus"":""blank"",""time"":1350.0999999046326},{""stimulus"":""https://ziweizhang0304.github.io/Stats_learning_trig/img/Stim/FN_011_g.png"",""time"":1369.6999998092651},{""stimulus"":""blank"",""time"":1670.0999999046326},{""stimulus"":""https://ziweizhang0304.github.io/Stats_learning_trig/img/Stim/FN_006_g.png"",""time"":1710.5999999046326},{""stimulus"":""blank"",""time"":2030.2999999523163},{""stimulus"":""https://ziweizhang0304.github.io/Stats_learning_trig/img/Stim/FN_004_g.png"",""time"":2050.0999999046326},{""stimulus"":""blank"",""time"":2370.199999809265},{""stimulus"":""https://ziweizhang0304.github.io/Stats_learning_trig/img/Stim/FN_012_g.png"",""time"":2389.7999999523163},{""stimulus"":""blank"",""time"":2710.2999999523163},{""stimulus"":""https://ziweizhang0304.github.io/Stats_learning_trig/img/Stim/FN_013_g.png"",""time"":2729.5999999046326},{""stimulus"":""blank"",""time"":3050.0999999046326},{""stimulus"":""https://ziweizhang0304.github.io/Stats_learning_trig/img/Stim/FN_016_g.png"",""time"":3069.699999809265},{""stimulus"":""blank"",""time"":3380.2999999523163},{""stimulus"":""https://ziweizhang0304.github.io/Stats_learning_trig/img/Stim/FN_003_g.png"",""time"":3409.699999809265},{""stimulus"":""blank"",""time"":3710},{""stimulus"":""https://ziweizhang0304.github.io/Stats_learning_trig/img/Stim/FN_024_g.png"",""time"":3745.699999809265},{""stimulus"":""blank"",""time"":4050.0999999046326},{""stimulus"":""https://ziweizhang0304.github.io/Stats_learning_trig/img/Stim/FN_019_g.png"",""time"":4081.5},{""stimulus"":""blank"",""time"":4390.099999904633}]","[{""key_press"":32,""rt"":1689.0999999046326,""stimulus"":""blank""}]","319.40000009536743","https://ziweizhang0304.github.io/Stats_learning_trig/img/Stim/FN_011_g.png","post_TD","17","1369.6999998092651","1689.0999999046326","fast","4","1","5ec75df0d799ae1c11a8115c","","","","","",""
"","image-keyboard-response","47","244414","0.0-5.0-17.0-0.0","1350.7000000476837","","","https://ziweizhang0304.github.io/Stats_learning_trig/img/Stim/FN_004_g.png","13","","","","","","","","","","","","","","","","","",""
"","animation","48","248843","0.0-5.0-17.0-1.0","","","","","","[{""stimulus"":""https://ziweizhang0304.github.io/Stats_learning_trig/img/Stim/FN_002_g.png"",""time"":341.40000009536743},{""stimulus"":""blank"",""time"":649.7000000476837},{""stimulus"":""https://ziweizhang0304.github.io/Stats_learning_trig/img/Stim/FN_016_g.png"",""time"":691.5},{""stimulus"":""blank"",""time"":1000.2000000476837},{""stimulus"":""https://ziweizhang0304.github.io/Stats_learning_trig/img/Stim/FN_003_g.png"",""time"":1021},{""stimulus"":""blank"",""time"":1340.2000000476837},{""stimulus"":""https://ziweizhang0304.github.io/Stats_learning_trig/img/Stim/FN_012_g.png"",""time"":1368.2000000476837},{""stimulus"":""blank"",""time"":1680.4000000953674},{""stimulus"":""https://ziweizhang0304.github.io/Stats_learning_trig/img/Stim/FN_011_g.png"",""time"":1708.2999999523163},{""stimulus"":""blank"",""time"":2020.0999999046326},{""stimulus"":""https://ziweizhang0304.github.io/Stats_learning_trig/img/Stim/FN_006_g.png"",""time"":2048},{""stimulus"":""blank"",""time"":2360.5},{""stimulus"":""https://ziweizhang0304.github.io/Stats_learning_trig/img/Stim/FN_004_g.png"",""time"":2388},{""stimulus"":""blank"",""time"":2700.5999999046326},{""stimulus"":""https://ziweizhang0304.github.io/Stats_learning_trig/img/Stim/FN_001_g.png"",""time"":2728.2000000476837},{""stimulus"":""blank"",""time"":3040.5999999046326},{""stimulus"":""https://ziweizhang0304.github.io/Stats_learning_trig/img/Stim/FN_022_g.png"",""time"":3061},{""stimulus"":""blank"",""time"":3380.4000000953674},{""stimulus"":""https://ziweizhang0304.github.io/Stats_learning_trig/img/Stim/FN_013_g.png"",""time"":3406.2999999523163},{""stimulus"":""blank"",""time"":3720.2999999523163},{""stimulus"":""https://ziweizhang0304.github.io/Stats_learning_trig/img/Stim/FN_024_g.png"",""time"":3748},{""stimulus"":""blank"",""time"":4060.7999999523163},{""stimulus"":""https://ziweizhang0304.github.io/Stats_learning_trig/img/Stim/FN_019_g.png"",""time"":4080.9000000953674},{""stimulus"":""blank"",""time"":4400.400000095367}]","[{""key_press"":32,""rt"":2753.7999999523163,""stimulus"":""https://ziweizhang0304.github.io/Stats_learning_trig/img/Stim/FN_001_g.png""}]","365.7999999523163","https://ziweizhang0304.github.io/Stats_learning_trig/img/Stim/FN_004_g.png","post_TD","18","2388","2753.7999999523163","fast","7","3","5ec75df0d799ae1c11a8115c","","","","","",""
"","image-keyboard-response","49","256980","0.0-5.0-18.0-0.0","8135.200000047684","","","https://ziweizhang0304.github.io/Stats_learning_trig/img/Stim/FN_014_g.png","13","","","","","","","","","","","","","","","","","",""
"","animation","50","261402","0.0-5.0-18.0-1.0","","","","","","[{""stimulus"":""https://ziweizhang0304.github.io/Stats_learning_trig/img/Stim/FN_001_g.png"",""time"":355.90000009536743},{""stimulus"":""blank"",""time"":674.4000000953674},{""stimulus"":""https://ziweizhang0304.github.io/Stats_learning_trig/img/Stim/FN_013_g.png"",""time"":683.2000000476837},{""stimulus"":""blank"",""time"":996.2000000476837},{""stimulus"":""https://ziweizhang0304.github.io/Stats_learning_trig/img/Stim/FN_024_g.png"",""time"":1024.2000000476837},{""stimulus"":""blank"",""time"":1334.4000000953674},{""stimulus"":""https://ziweizhang0304.github.io/Stats_learning_trig/img/Stim/FN_016_g.png"",""time"":1361.9000000953674},{""stimulus"":""blank"",""time"":1674.2000000476837},{""stimulus"":""https://ziweizhang0304.github.io/Stats_learning_trig/img/Stim/FN_017_g.png"",""time"":1702.0999999046326},{""stimulus"":""blank"",""time"":2014.7000000476837},{""stimulus"":""https://ziweizhang0304.github.io/Stats_learning_trig/img/Stim/FN_021_g.png"",""time"":2052.2000000476837},{""stimulus"":""blank"",""time"":2354.5},{""stimulus"":""https://ziweizhang0304.github.io/Stats_learning_trig/img/Stim/FN_014_g.png"",""time"":2385.7999999523163},{""stimulus"":""blank"",""time"":2694.0999999046326},{""stimulus"":""https://ziweizhang0304.github.io/Stats_learning_trig/img/Stim/FN_012_g.png"",""time"":2722.4000000953674},{""stimulus"":""blank"",""time"":3034.2000000476837},{""stimulus"":""https://ziweizhang0304.github.io/Stats_learning_trig/img/Stim/FN_022_g.png"",""time"":3067.9000000953674},{""stimulus"":""blank"",""time"":3374.2000000476837},{""stimulus"":""https://ziweizhang0304.github.io/Stats_learning_trig/img/Stim/FN_002_g.png"",""time"":3402},{""stimulus"":""blank"",""time"":3714.5},{""stimulus"":""https://ziweizhang0304.github.io/Stats_learning_trig/img/Stim/FN_003_g.png"",""time"":3742.0999999046326},{""stimulus"":""blank"",""time"":4054.4000000953674},{""stimulus"":""https://ziweizhang0304.github.io/Stats_learning_trig/img/Stim/FN_019_g.png"",""time"":4082.2000000476837},{""stimulus"":""blank"",""time"":4394.5}]","[{""key_press"":32,""rt"":2762.9000000953674,""stimulus"":""https://ziweizhang0304.github.io/Stats_learning_trig/img/Stim/FN_012_g.png""}]","377.10000014305115","https://ziweizhang0304.github.io/Stats_learning_trig/img/Stim/FN_014_g.png","post_TD","19","2385.7999999523163","2762.9000000953674","slow","7","3","5ec75df0d799ae1c11a8115c","","","","","",""
"","image-keyboard-response","51","266156","0.0-5.0-19.0-0.0","4751.299999952316","","","https://ziweizhang0304.github.io/Stats_learning_trig/img/Stim/FN_021_g.png","13","","","","","","","","","","","","","","","","","",""
"","animation","52","270581","0.0-5.0-19.0-1.0","","","","","","[{""stimulus"":""https://ziweizhang0304.github.io/Stats_learning_trig/img/Stim/FN_012_g.png"",""time"":348.7999999523163},{""stimulus"":""blank"",""time"":668},{""stimulus"":""https://ziweizhang0304.github.io/Stats_learning_trig/img/Stim/FN_019_g.png"",""time"":687.6000001430511},{""stimulus"":""blank"",""time"":988.4000000953674},{""stimulus"":""https://ziweizhang0304.github.io/Stats_learning_trig/img/Stim/FN_003_g.png"",""time"":1025.6000001430511},{""stimulus"":""blank"",""time"":1327.9000000953674},{""stimulus"":""https://ziweizhang0304.github.io/Stats_learning_trig/img/Stim/FN_017_g.png"",""time"":1361.9000000953674},{""stimulus"":""blank"",""time"":1667.7000000476837},{""stimulus"":""https://ziweizhang0304.github.io/Stats_learning_trig/img/Stim/FN_021_g.png"",""time"":1703.7999999523163},{""stimulus"":""blank"",""time"":2018.2999999523163},{""stimulus"":""https://ziweizhang0304.github.io/Stats_learning_trig/img/Stim/FN_014_g.png"",""time"":2043.7999999523163},{""stimulus"":""blank"",""time"":2348.2000000476837},{""stimulus"":""https://ziweizhang0304.github.io/Stats_learning_trig/img/Stim/FN_001_g.png"",""time"":2384},{""stimulus"":""blank"",""time"":2698.4000000953674},{""stimulus"":""https://ziweizhang0304.github.io/Stats_learning_trig/img/Stim/FN_022_g.png"",""time"":2725.600000143051},{""stimulus"":""blank"",""time"":3037.7999999523163},{""stimulus"":""https://ziweizhang0304.github.io/Stats_learning_trig/img/Stim/FN_013_g.png"",""time"":3065.7000000476837},{""stimulus"":""blank"",""time"":3378.100000143051},{""stimulus"":""https://ziweizhang0304.github.io/Stats_learning_trig/img/Stim/FN_016_g.png"",""time"":3405.7000000476837},{""stimulus"":""blank"",""time"":3718.2999999523163},{""stimulus"":""https://ziweizhang0304.github.io/Stats_learning_trig/img/Stim/FN_002_g.png"",""time"":3745.7999999523163},{""stimulus"":""blank"",""time"":4058.2999999523163},{""stimulus"":""https://ziweizhang0304.github.io/Stats_learning_trig/img/Stim/FN_024_g.png"",""time"":4083.9000000953674},{""stimulus"":""blank"",""time"":4398}]","[{""key_press"":32,""rt"":2052.199999809265,""stimulus"":""https://ziweizhang0304.github.io/Stats_learning_trig/img/Stim/FN_014_g.png""}]","348.39999985694885","https://ziweizhang0304.github.io/Stats_learning_trig/img/Stim/FN_021_g.png","post_TD","20","1703.7999999523163","2052.199999809265","slow","5","2","5ec75df0d799ae1c11a8115c","","","","","",""
"","image-keyboard-response","53","272378","0.0-5.0-20.0-0.0","1794.7000000476837","","","https://ziweizhang0304.github.io/Stats_learning_trig/img/Stim/FN_011_g.png","13","","","","","","","","","","","","","","","","","",""
"","animation","54","276803","0.0-5.0-20.0-1.0","","","","","","[{""stimulus"":""https://ziweizhang0304.github.io/Stats_learning_trig/img/Stim/FN_002_g.png"",""time"":352.2999999523163},{""stimulus"":""blank"",""time"":656.5},{""stimulus"":""https://ziweizhang0304.github.io/Stats_learning_trig/img/Stim/FN_013_g.png"",""time"":686.2999999523163},{""stimulus"":""blank"",""time"":996.5},{""stimulus"":""https://ziweizhang0304.github.io/Stats_learning_trig/img/Stim/FN_012_g.png"",""time"":1024.5},{""stimulus"":""blank"",""time"":1326.7999999523163},{""stimulus"":""https://ziweizhang0304.github.io/Stats_learning_trig/img/Stim/FN_016_g.png"",""time"":1362.6000001430511},{""stimulus"":""blank"",""time"":1667},{""stimulus"":""https://ziweizhang0304.github.io/Stats_learning_trig/img/Stim/FN_001_g.png"",""time"":1703.9000000953674},{""stimulus"":""blank"",""time"":2006.4000000953674},{""stimulus"":""https://ziweizhang0304.github.io/Stats_learning_trig/img/Stim/FN_011_g.png"",""time"":2042.2999999523163},{""stimulus"":""blank"",""time"":2346.600000143051},{""stimulus"":""https://ziweizhang0304.github.io/Stats_learning_trig/img/Stim/FN_006_g.png"",""time"":2384.2000000476837},{""stimulus"":""blank"",""time"":2686.600000143051},{""stimulus"":""https://ziweizhang0304.github.io/Stats_learning_trig/img/Stim/FN_004_g.png"",""time"":2726.5},{""stimulus"":""blank"",""time"":3033.7999999523163},{""stimulus"":""https://ziweizhang0304.github.io/Stats_learning_trig/img/Stim/FN_022_g.png"",""time"":3070.600000143051},{""stimulus"":""blank"",""time"":3386.7000000476837},{""stimulus"":""https://ziweizhang0304.github.io/Stats_learning_trig/img/Stim/FN_003_g.png"",""time"":3406.2999999523163},{""stimulus"":""blank"",""time"":3715.7000000476837},{""stimulus"":""https://ziweizhang0304.github.io/Stats_learning_trig/img/Stim/FN_024_g.png"",""time"":3742},{""stimulus"":""blank"",""time"":4046.7999999523163},{""stimulus"":""https://ziweizhang0304.github.io/Stats_learning_trig/img/Stim/FN_019_g.png"",""time"":4087.7999999523163},{""stimulus"":""blank"",""time"":4396.600000143051}]","[{""key_press"":32,""rt"":2332,""stimulus"":""https://ziweizhang0304.github.io/Stats_learning_trig/img/Stim/FN_011_g.png""}]","289.7000000476837","https://ziweizhang0304.github.io/Stats_learning_trig/img/Stim/FN_011_g.png","post_TD","21","2042.2999999523163","2332","fast","6","1","5ec75df0d799ae1c11a8115c","","","","","",""
"","image-keyboard-response","55","278263","0.0-5.0-21.0-0.0","1456.7999999523163","","","https://ziweizhang0304.github.io/Stats_learning_trig/img/Stim/FN_011_g.png","13","","","","","","","","","","","","","","","","","",""
"","animation","56","282695","0.0-5.0-21.0-1.0","","","","","","[{""stimulus"":""https://ziweizhang0304.github.io/Stats_learning_trig/img/Stim/FN_016_g.png"",""time"":352.40000009536743},{""stimulus"":""blank"",""time"":661.3000001907349},{""stimulus"":""https://ziweizhang0304.github.io/Stats_learning_trig/img/Stim/FN_013_g.png"",""time"":681.2000000476837},{""stimulus"":""blank"",""time"":981.6000001430511},{""stimulus"":""https://ziweizhang0304.github.io/Stats_learning_trig/img/Stim/FN_001_g.png"",""time"":1041.6000001430511},{""stimulus"":""blank"",""time"":1361.1000001430511},{""stimulus"":""https://ziweizhang0304.github.io/Stats_learning_trig/img/Stim/FN_003_g.png"",""time"":1361.7000000476837},{""stimulus"":""blank"",""time"":1681.4000000953674},{""stimulus"":""https://ziweizhang0304.github.io/Stats_learning_trig/img/Stim/FN_024_g.png"",""time"":1701.4000000953674},{""stimulus"":""blank"",""time"":2021.3000001907349},{""stimulus"":""https://ziweizhang0304.github.io/Stats_learning_trig/img/Stim/FN_019_g.png"",""time"":2040.8000001907349},{""stimulus"":""blank"",""time"":2341.5},{""stimulus"":""https://ziweizhang0304.github.io/Stats_learning_trig/img/Stim/FN_011_g.png"",""time"":2385.100000143051},{""stimulus"":""blank"",""time"":2701.300000190735},{""stimulus"":""https://ziweizhang0304.github.io/Stats_learning_trig/img/Stim/FN_006_g.png"",""time"":2721.4000000953674},{""stimulus"":""blank"",""time"":3031.2000000476837},{""stimulus"":""https://ziweizhang0304.github.io/Stats_learning_trig/img/Stim/FN_004_g.png"",""time"":3061.100000143051},{""stimulus"":""blank"",""time"":3381.4000000953674},{""stimulus"":""https://ziweizhang0304.github.io/Stats_learning_trig/img/Stim/FN_012_g.png"",""time"":3401.5},{""stimulus"":""blank"",""time"":3721.100000143051},{""stimulus"":""https://ziweizhang0304.github.io/Stats_learning_trig/img/Stim/FN_022_g.png"",""time"":3748.300000190735},{""stimulus"":""blank"",""time"":4060.9000000953674},{""stimulus"":""https://ziweizhang0304.github.io/Stats_learning_trig/img/Stim/FN_002_g.png"",""time"":4080.9000000953674},{""stimulus"":""blank"",""time"":4381.400000095367}]","[{""key_press"":32,""rt"":2760,""stimulus"":""https://ziweizhang0304.github.io/Stats_learning_trig/img/Stim/FN_006_g.png""}]","374.89999985694885","https://ziweizhang0304.github.io/Stats_learning_trig/img/Stim/FN_011_g.png","post_TD","22","2385.100000143051","2760","fast","7","1","5ec75df0d799ae1c11a8115c","","","","","",""
"","image-keyboard-response","57","286951","0.0-5.0-22.0-0.0","4254.799999952316","","","https://ziweizhang0304.github.io/Stats_learning_trig/img/Stim/FN_006_g.png","13","","","","","","","","","","","","","","","","","",""
"","animation","58","291373","0.0-5.0-22.0-1.0","","","","","","[{""stimulus"":""https://ziweizhang0304.github.io/Stats_learning_trig/img/Stim/FN_016_g.png"",""time"":343.09999990463257},{""stimulus"":""blank"",""time"":662.2999999523163},{""stimulus"":""https://ziweizhang0304.github.io/Stats_learning_trig/img/Stim/FN_013_g.png"",""time"":682.5999999046326},{""stimulus"":""blank"",""time"":1002.3999998569489},{""stimulus"":""https://ziweizhang0304.github.io/Stats_learning_trig/img/Stim/FN_001_g.png"",""time"":1021.5999999046326},{""stimulus"":""blank"",""time"":1342.2999999523163},{""stimulus"":""https://ziweizhang0304.github.io/Stats_learning_trig/img/Stim/FN_003_g.png"",""time"":1362.2999999523163},{""stimulus"":""blank"",""time"":1671.0999999046326},{""stimulus"":""https://ziweizhang0304.github.io/Stats_learning_trig/img/Stim/FN_024_g.png"",""time"":1706.2000000476837},{""stimulus"":""blank"",""time"":2022.5},{""stimulus"":""https://ziweizhang0304.github.io/Stats_learning_trig/img/Stim/FN_019_g.png"",""time"":2048.0999999046326},{""stimulus"":""blank"",""time"":2352.2000000476837},{""stimulus"":""https://ziweizhang0304.github.io/Stats_learning_trig/img/Stim/FN_011_g.png"",""time"":2392.2999999523163},{""stimulus"":""blank"",""time"":2692.5999999046326},{""stimulus"":""https://ziweizhang0304.github.io/Stats_learning_trig/img/Stim/FN_006_g.png"",""time"":2729.0999999046326},{""stimulus"":""blank"",""time"":3031.899999856949},{""stimulus"":""https://ziweizhang0304.github.io/Stats_learning_trig/img/Stim/FN_004_g.png"",""time"":3062.899999856949},{""stimulus"":""blank"",""time"":3372.2000000476837},{""stimulus"":""https://ziweizhang0304.github.io/Stats_learning_trig/img/Stim/FN_012_g.png"",""time"":3401.7999999523163},{""stimulus"":""blank"",""time"":3712.2999999523163},{""stimulus"":""https://ziweizhang0304.github.io/Stats_learning_trig/img/Stim/FN_022_g.png"",""time"":3741.7000000476837},{""stimulus"":""blank"",""time"":4052.399999856949},{""stimulus"":""https://ziweizhang0304.github.io/Stats_learning_trig/img/Stim/FN_002_g.png"",""time"":4086.2999999523163},{""stimulus"":""blank"",""time"":4401.799999952316}]","[{""key_press"":32,""rt"":3088,""stimulus"":""https://ziweizhang0304.github.io/Stats_learning_trig/img/Stim/FN_004_g.png""}]","358.90000009536743","https://ziweizhang0304.github.io/Stats_learning_trig/img/Stim/FN_006_g.png","post_TD","23","2729.0999999046326","3088","fast","8","2","5ec75df0d799ae1c11a8115c","","","","","",""
"","image-keyboard-response","59","293149","0.0-5.0-23.0-0.0","1772.7999999523163","","","https://ziweizhang0304.github.io/Stats_learning_trig/img/Stim/FN_011_g.png","13","","","","","","","","","","","","","","","","","",""
"","animation","60","297586","0.0-5.0-23.0-1.0","","","","","","[{""stimulus"":""https://ziweizhang0304.github.io/Stats_learning_trig/img/Stim/FN_002_g.png"",""time"":345.7000000476837},{""stimulus"":""blank"",""time"":664.6000001430511},{""stimulus"":""https://ziweizhang0304.github.io/Stats_learning_trig/img/Stim/FN_016_g.png"",""time"":682.4000000953674},{""stimulus"":""blank"",""time"":984.6000001430511},{""stimulus"":""https://ziweizhang0304.github.io/Stats_learning_trig/img/Stim/FN_003_g.png"",""time"":1028.7000000476837},{""stimulus"":""blank"",""time"":1344.6000001430511},{""stimulus"":""https://ziweizhang0304.github.io/Stats_learning_trig/img/Stim/FN_012_g.png"",""time"":1362.2999999523163},{""stimulus"":""blank"",""time"":1664.6000001430511},{""stimulus"":""https://ziweizhang0304.github.io/Stats_learning_trig/img/Stim/FN_011_g.png"",""time"":1706.2000000476837},{""stimulus"":""blank"",""time"":2024.7999999523163},{""stimulus"":""https://ziweizhang0304.github.io/Stats_learning_trig/img/Stim/FN_006_g.png"",""time"":2042.7000000476837},{""stimulus"":""blank"",""time"":2344.2999999523163},{""stimulus"":""https://ziweizhang0304.github.io/Stats_learning_trig/img/Stim/FN_004_g.png"",""time"":2381.600000143051},{""stimulus"":""blank"",""time"":2684.5},{""stimulus"":""https://ziweizhang0304.github.io/Stats_learning_trig/img/Stim/FN_001_g.png"",""time"":2736.2999999523163},{""stimulus"":""blank"",""time"":3044.2999999523163},{""stimulus"":""https://ziweizhang0304.github.io/Stats_learning_trig/img/Stim/FN_022_g.png"",""time"":3064.2000000476837},{""stimulus"":""blank"",""time"":3384.600000143051},{""stimulus"":""https://ziweizhang0304.github.io/Stats_learning_trig/img/Stim/FN_013_g.png"",""time"":3404.4000000953674},{""stimulus"":""blank"",""time"":3724.600000143051},{""stimulus"":""https://ziweizhang0304.github.io/Stats_learning_trig/img/Stim/FN_024_g.png"",""time"":3744.2999999523163},{""stimulus"":""blank"",""time"":4044.600000143051},{""stimulus"":""https://ziweizhang0304.github.io/Stats_learning_trig/img/Stim/FN_019_g.png"",""time"":4081.4000000953674},{""stimulus"":""blank"",""time"":4384.400000095367}]","[{""key_press"":32,""rt"":2077.0999999046326,""stimulus"":""https://ziweizhang0304.github.io/Stats_learning_trig/img/Stim/FN_006_g.png""}]","370.89999985694885","https://ziweizhang0304.github.io/Stats_learning_trig/img/Stim/FN_011_g.png","post_TD","24","1706.2000000476837","2077.0999999046326","fast","5","1","5ec75df0d799ae1c11a8115c","497b8","","","","",""
"","survey-text","61","323547","0.0-6.0","25953.900000095367","","","","","","","","","","","","","","","","","","{""Q0"":""I just memorized the shape, and then waited for it to appear.""}","","","",""
"","survey-text","62","328077","0.0-7.0","4523.800000190735","","","","","","","","","","","","","","","","","","{""[object Object]"":""No""}","","","",""
"","instructions","63","336916","0.0-8.0","8838.100000143051","","[{""page_index"":0,""viewing_time"":8837.400000095367}]","","","","","","","","","","","","","","","","","","","",""
"","free-sort","64","368317","0.0-9.0","31397.900000095367","","","","","","","","","post_drag","","","","fast","","","","","","[{""src"":""https://ziweizhang0304.github.io/Stats_learning_trig/img/Stim/FN_006_g.png"",""x"":475,""y"":0},{""src"":""https://ziweizhang0304.github.io/Stats_learning_trig/img/Stim/FN_011_g.png"",""x"":-225,""y"":50},{""src"":""https://ziweizhang0304.github.io/Stats_learning_trig/img/Stim/FN_004_g.png"",""x"":475,""y"":50}]","[{""src"":""https://ziweizhang0304.github.io/Stats_learning_trig/img/Stim/FN_011_g.png"",""x"":44,""y"":21},{""src"":""https://ziweizhang0304.github.io/Stats_learning_trig/img/Stim/FN_006_g.png"",""x"":115,""y"":24},{""src"":""https://ziweizhang0304.github.io/Stats_learning_trig/img/Stim/FN_004_g.png"",""x"":200,""y"":35},{""src"":""https://ziweizhang0304.github.io/Stats_learning_trig/img/Stim/FN_006_g.png"",""x"":222,""y"":9},{""src"":""https://ziweizhang0304.github.io/Stats_learning_trig/img/Stim/FN_004_g.png"",""x"":127,""y"":35},{""src"":""https://ziweizhang0304.github.io/Stats_learning_trig/img/Stim/FN_006_g.png"",""x"":201,""y"":26},{""src"":""https://ziweizhang0304.github.io/Stats_learning_trig/img/Stim/FN_011_g.png"",""x"":198,""y"":11},{""src"":""https://ziweizhang0304.github.io/Stats_learning_trig/img/Stim/FN_004_g.png"",""x"":45,""y"":27},{""src"":""https://ziweizhang0304.github.io/Stats_learning_trig/img/Stim/FN_006_g.png"",""x"":130,""y"":20},{""src"":""https://ziweizhang0304.github.io/Stats_learning_trig/img/Stim/FN_011_g.png"",""x"":211,""y"":24}]","[{""src"":""https://ziweizhang0304.github.io/Stats_learning_trig/img/Stim/FN_006_g.png"",""x"":130,""y"":20},{""src"":""https://ziweizhang0304.github.io/Stats_learning_trig/img/Stim/FN_011_g.png"",""x"":211,""y"":24},{""src"":""https://ziweizhang0304.github.io/Stats_learning_trig/img/Stim/FN_004_g.png"",""x"":45,""y"":27}]",""
"","free-sort","65","385307","0.0-10.0","16988.700000047684","","","","","","","","","post_drag","","","","slow","","","","","","[{""src"":""https://ziweizhang0304.github.io/Stats_learning_trig/img/Stim/FN_021_g.png"",""x"":475,""y"":0},{""src"":""https://ziweizhang0304.github.io/Stats_learning_trig/img/Stim/FN_017_g.png"",""x"":-225,""y"":50},{""src"":""https://ziweizhang0304.github.io/Stats_learning_trig/img/Stim/FN_014_g.png"",""x"":475,""y"":50}]","[{""src"":""https://ziweizhang0304.github.io/Stats_learning_trig/img/Stim/FN_014_g.png"",""x"":114,""y"":29},{""src"":""https://ziweizhang0304.github.io/Stats_learning_trig/img/Stim/FN_017_g.png"",""x"":46,""y"":32},{""src"":""https://ziweizhang0304.github.io/Stats_learning_trig/img/Stim/FN_021_g.png"",""x"":475,""y"":0},{""src"":""https://ziweizhang0304.github.io/Stats_learning_trig/img/Stim/FN_021_g.png"",""x"":193,""y"":26}]","[{""src"":""https://ziweizhang0304.github.io/Stats_learning_trig/img/Stim/FN_021_g.png"",""x"":193,""y"":26},{""src"":""https://ziweizhang0304.github.io/Stats_learning_trig/img/Stim/FN_017_g.png"",""x"":46,""y"":32},{""src"":""https://ziweizhang0304.github.io/Stats_learning_trig/img/Stim/FN_014_g.png"",""x"":114,""y"":29}]",""
"","survey-multi-choice","66","393928","0.0-11.0","8612.800000190735","","","","","","","","","","","","","","","","5ec75df0d799ae1c11a8115c","","{""awareness"":""No"",""attention_check"":""Press SPACEBAR to a target""}","","","","[0,1]"
