"success","trial_type","trial_index","time_elapsed","internal_node_id","rt","url","view_history","stimulus","key_press","animation_sequence","response","TD_rt","TD_target","test_part","TD_trial_number","onset","offset","attention_state","TD_target_position","TD_within_triplet_counter","participant","yoke_participant","responses","init_locations","moves","final_locations","question_order"
"true","fullscreen","0","41399","0.0-0.0","","","","","","","","","","","","","","","","","","","","","","",""
"","external-html","1","930269","0.0-1.0","888747.6","https://ziweizhang0304.github.io/Stats_learning_trig/content/consent.html","","","","","","","","","","","","","","","","","","","","",""
"","instructions","2","952942","0.0-2.0","22672.40000000014","","[{""page_index"":0,""viewing_time"":1266.6000000000931},{""page_index"":1,""viewing_time"":8300.09999999986},{""page_index"":2,""viewing_time"":12115.90000000014},{""page_index"":3,""viewing_time"":989.1999999999534}]","","","","","","","","","","","","","","","","","","","",""
"","image-keyboard-response","3","959753","0.0-3.0-0.0-0.0","6809.699999999953","","","https://ziweizhang0304.github.io/Stats_learning_trig/img/Stim/FN_019_g.png","13","","","","","","","","","","","","","","","","","",""
"","animation","4","964175","0.0-3.0-0.0-1.0","","","","","","[{""stimulus"":""https://ziweizhang0304.github.io/Stats_learning_trig/img/Stim/FN_003_g.png"",""time"":345.9000000001397},{""stimulus"":""blank"",""time"":647.3000000000466},{""stimulus"":""https://ziweizhang0304.github.io/Stats_learning_trig/img/Stim/FN_017_g.png"",""time"":681.4000000001397},{""stimulus"":""blank"",""time"":996.9000000001397},{""stimulus"":""https://ziweizhang0304.github.io/Stats_learning_trig/img/Stim/FN_014_g.png"",""time"":1020.9000000001397},{""stimulus"":""blank"",""time"":1322.5},{""stimulus"":""https://ziweizhang0304.github.io/Stats_learning_trig/img/Stim/FN_018_g.png"",""time"":1374.7000000001863},{""stimulus"":""blank"",""time"":1685.7000000001863},{""stimulus"":""https://ziweizhang0304.github.io/Stats_learning_trig/img/Stim/FN_009_g.png"",""time"":1702.1000000000931},{""stimulus"":""blank"",""time"":2003.7000000001863},{""stimulus"":""https://ziweizhang0304.github.io/Stats_learning_trig/img/Stim/FN_016_g.png"",""time"":2044},{""stimulus"":""blank"",""time"":2354.4000000001397},{""stimulus"":""https://ziweizhang0304.github.io/Stats_learning_trig/img/Stim/FN_025_g.png"",""time"":2381.5},{""stimulus"":""blank"",""time"":2684.9000000001397},{""stimulus"":""https://ziweizhang0304.github.io/Stats_learning_trig/img/Stim/FN_015_g.png"",""time"":2721},{""stimulus"":""blank"",""time"":3026.5},{""stimulus"":""https://ziweizhang0304.github.io/Stats_learning_trig/img/Stim/FN_011_g.png"",""time"":3061.600000000093},{""stimulus"":""blank"",""time"":3362.5},{""stimulus"":""https://ziweizhang0304.github.io/Stats_learning_trig/img/Stim/FN_022_g.png"",""time"":3405.600000000093},{""stimulus"":""blank"",""time"":3706.7000000001863},{""stimulus"":""https://ziweizhang0304.github.io/Stats_learning_trig/img/Stim/FN_013_g.png"",""time"":3741.7000000001863},{""stimulus"":""blank"",""time"":4044.3000000000466},{""stimulus"":""https://ziweizhang0304.github.io/Stats_learning_trig/img/Stim/FN_019_g.png"",""time"":4081.600000000093},{""stimulus"":""blank"",""time"":4387}]","[]","NaN","https://ziweizhang0304.github.io/Stats_learning_trig/img/Stim/FN_019_g.png","post_prac","","","","","","","","","","","","",""
"","html-keyboard-response","5","969072","0.0-3.0-0.0-2.0","4894.09999999986","","","<p>Your reaction time for this trial was NaN ms.</p><p>Remember that you should only press the SPACEBAR when you see the shape presented at the beginning of the trial. </b> </p><p>Press enter to move on.</p>","13","","","","","","","","","","","","","","","","","",""
"","image-keyboard-response","6","973696","0.0-3.0-1.0-0.0","4623.5","","","https://ziweizhang0304.github.io/Stats_learning_trig/img/Stim/FN_019_g.png","13","","","","","","","","","","","","","","","","","",""
"","animation","7","978118","0.0-3.0-1.0-1.0","","","","","","[{""stimulus"":""https://ziweizhang0304.github.io/Stats_learning_trig/img/Stim/FN_022_g.png"",""time"":344.19999999995343},{""stimulus"":""blank"",""time"":656.8000000000466},{""stimulus"":""https://ziweizhang0304.github.io/Stats_learning_trig/img/Stim/FN_025_g.png"",""time"":681.3999999999069},{""stimulus"":""blank"",""time"":997.1999999999534},{""stimulus"":""https://ziweizhang0304.github.io/Stats_learning_trig/img/Stim/FN_016_g.png"",""time"":1021.3999999999069},{""stimulus"":""blank"",""time"":1322.3999999999069},{""stimulus"":""https://ziweizhang0304.github.io/Stats_learning_trig/img/Stim/FN_011_g.png"",""time"":1361.5},{""stimulus"":""blank"",""time"":1663},{""stimulus"":""https://ziweizhang0304.github.io/Stats_learning_trig/img/Stim/FN_003_g.png"",""time"":1702.1999999999534},{""stimulus"":""blank"",""time"":2007.1000000000931},{""stimulus"":""https://ziweizhang0304.github.io/Stats_learning_trig/img/Stim/FN_019_g.png"",""time"":2041.1999999999534},{""stimulus"":""blank"",""time"":2348.6999999999534},{""stimulus"":""https://ziweizhang0304.github.io/Stats_learning_trig/img/Stim/FN_018_g.png"",""time"":2381.3000000000466},{""stimulus"":""blank"",""time"":2682.3000000000466},{""stimulus"":""https://ziweizhang0304.github.io/Stats_learning_trig/img/Stim/FN_014_g.png"",""time"":2722.899999999907},{""stimulus"":""blank"",""time"":3024.3000000000466},{""stimulus"":""https://ziweizhang0304.github.io/Stats_learning_trig/img/Stim/FN_009_g.png"",""time"":3061.5},{""stimulus"":""blank"",""time"":3363},{""stimulus"":""https://ziweizhang0304.github.io/Stats_learning_trig/img/Stim/FN_015_g.png"",""time"":3406},{""stimulus"":""blank"",""time"":3718.100000000093},{""stimulus"":""https://ziweizhang0304.github.io/Stats_learning_trig/img/Stim/FN_017_g.png"",""time"":3742.1999999999534},{""stimulus"":""blank"",""time"":4043.6999999999534},{""stimulus"":""https://ziweizhang0304.github.io/Stats_learning_trig/img/Stim/FN_013_g.png"",""time"":4080.6999999999534},{""stimulus"":""blank"",""time"":4391.800000000047}]","[{""key_press"":32,""rt"":2747.7999999998137,""stimulus"":""https://ziweizhang0304.github.io/Stats_learning_trig/img/Stim/FN_014_g.png""}]","706.5999999998603","https://ziweizhang0304.github.io/Stats_learning_trig/img/Stim/FN_019_g.png","post_prac","","","","","","","","","","","","",""
"","html-keyboard-response","8","983308","0.0-3.0-1.0-2.0","5188.300000000047","","","<p>Your reaction time for this trial was 706.6 ms.</p><p>Remember that you should only press the SPACEBAR when you see the shape presented at the beginning of the trial. </b> </p><p>Press enter to move on.</p>","13","","","","","","","","","","","","","","","","","",""
"","image-keyboard-response","9","988005","0.0-3.0-2.0-0.0","4696.100000000093","","","https://ziweizhang0304.github.io/Stats_learning_trig/img/Stim/FN_002_g.png","13","","","","","","","","","","","","","","","","","",""
"","animation","10","992426","0.0-3.0-2.0-1.0","","","","","","[{""stimulus"":""https://ziweizhang0304.github.io/Stats_learning_trig/img/Stim/FN_022_g.png"",""time"":340.60000000009313},{""stimulus"":""blank"",""time"":648},{""stimulus"":""https://ziweizhang0304.github.io/Stats_learning_trig/img/Stim/FN_015_g.png"",""time"":682.1000000000931},{""stimulus"":""blank"",""time"":993.8000000000466},{""stimulus"":""https://ziweizhang0304.github.io/Stats_learning_trig/img/Stim/FN_025_g.png"",""time"":1020.6999999999534},{""stimulus"":""blank"",""time"":1336.3000000000466},{""stimulus"":""https://ziweizhang0304.github.io/Stats_learning_trig/img/Stim/FN_011_g.png"",""time"":1361.4000000001397},{""stimulus"":""blank"",""time"":1665.4000000001397},{""stimulus"":""https://ziweizhang0304.github.io/Stats_learning_trig/img/Stim/FN_016_g.png"",""time"":1712.6000000000931},{""stimulus"":""blank"",""time"":2014.4000000001397},{""stimulus"":""https://ziweizhang0304.github.io/Stats_learning_trig/img/Stim/FN_013_g.png"",""time"":2041.6000000000931},{""stimulus"":""blank"",""time"":2343},{""stimulus"":""https://ziweizhang0304.github.io/Stats_learning_trig/img/Stim/FN_026_g.png"",""time"":2382.100000000093},{""stimulus"":""blank"",""time"":2683.600000000093},{""stimulus"":""https://ziweizhang0304.github.io/Stats_learning_trig/img/Stim/FN_002_g.png"",""time"":2721.8000000000466},{""stimulus"":""blank"",""time"":3029.1999999999534},{""stimulus"":""https://ziweizhang0304.github.io/Stats_learning_trig/img/Stim/FN_008_g.png"",""time"":3061.8000000000466},{""stimulus"":""blank"",""time"":3362.8000000000466},{""stimulus"":""https://ziweizhang0304.github.io/Stats_learning_trig/img/Stim/FN_014_g.png"",""time"":3401.9000000001397},{""stimulus"":""blank"",""time"":3715.9000000001397},{""stimulus"":""https://ziweizhang0304.github.io/Stats_learning_trig/img/Stim/FN_009_g.png"",""time"":3742.3000000000466},{""stimulus"":""blank"",""time"":4058},{""stimulus"":""https://ziweizhang0304.github.io/Stats_learning_trig/img/Stim/FN_017_g.png"",""time"":4082},{""stimulus"":""blank"",""time"":4384}]","[{""key_press"":32,""rt"":3059.1999999999534,""stimulus"":""blank""}]","337.39999999990687","https://ziweizhang0304.github.io/Stats_learning_trig/img/Stim/FN_002_g.png","post_prac","","","","","","","","","","","","",""
"","html-keyboard-response","11","994544","0.0-3.0-2.0-2.0","2117.100000000093","","","<p>Your reaction time for this trial was 337.4 ms.</p><p>Remember that you should only press the SPACEBAR when you see the shape presented at the beginning of the trial. </b> </p><p>Press enter to move on.</p>","13","","","","","","","","","","","","","","","","","",""
"","instructions","12","996664","0.0-4.0","2119.5999999998603","","[{""page_index"":0,""viewing_time"":2119.5}]","","","","","","","","","","","","","","","","","","","",""
"","image-keyboard-response","13","1002100","0.0-5.0-0.0-0.0","5435.899999999907","","","https://ziweizhang0304.github.io/Stats_learning_trig/img/Stim/FN_003_g.png","13","","","","","","","","","","","","","","","","","",""
"","animation","14","1006522","0.0-5.0-0.0-1.0","","","","","","[{""stimulus"":""https://ziweizhang0304.github.io/Stats_learning_trig/img/Stim/FN_014_g.png"",""time"":348.89999999990687},{""stimulus"":""blank"",""time"":650.6999999999534},{""stimulus"":""https://ziweizhang0304.github.io/Stats_learning_trig/img/Stim/FN_017_g.png"",""time"":681.8000000000466},{""stimulus"":""blank"",""time"":982.8000000000466},{""stimulus"":""https://ziweizhang0304.github.io/Stats_learning_trig/img/Stim/FN_016_g.png"",""time"":1021.8999999999069},{""stimulus"":""blank"",""time"":1323.5},{""stimulus"":""https://ziweizhang0304.github.io/Stats_learning_trig/img/Stim/FN_011_g.png"",""time"":1361.6999999999534},{""stimulus"":""blank"",""time"":1662.6000000000931},{""stimulus"":""https://ziweizhang0304.github.io/Stats_learning_trig/img/Stim/FN_022_g.png"",""time"":1706.8000000000466},{""stimulus"":""blank"",""time"":2008.3000000000466},{""stimulus"":""https://ziweizhang0304.github.io/Stats_learning_trig/img/Stim/FN_003_g.png"",""time"":2048.100000000093},{""stimulus"":""blank"",""time"":2362.3000000000466},{""stimulus"":""https://ziweizhang0304.github.io/Stats_learning_trig/img/Stim/FN_019_g.png"",""time"":2381.6999999999534},{""stimulus"":""blank"",""time"":2683.399999999907},{""stimulus"":""https://ziweizhang0304.github.io/Stats_learning_trig/img/Stim/FN_018_g.png"",""time"":2721.6999999999534},{""stimulus"":""blank"",""time"":3023.399999999907},{""stimulus"":""https://ziweizhang0304.github.io/Stats_learning_trig/img/Stim/FN_009_g.png"",""time"":3061.600000000093},{""stimulus"":""blank"",""time"":3362.600000000093},{""stimulus"":""https://ziweizhang0304.github.io/Stats_learning_trig/img/Stim/FN_015_g.png"",""time"":3415.6999999999534},{""stimulus"":""blank"",""time"":3725.100000000093},{""stimulus"":""https://ziweizhang0304.github.io/Stats_learning_trig/img/Stim/FN_013_g.png"",""time"":3741.1999999999534},{""stimulus"":""blank"",""time"":4054.3000000000466},{""stimulus"":""https://ziweizhang0304.github.io/Stats_learning_trig/img/Stim/FN_025_g.png"",""time"":4081.399999999907},{""stimulus"":""blank"",""time"":4382.399999999907}]","[{""key_press"":32,""rt"":2511.8000000000466,""stimulus"":""https://ziweizhang0304.github.io/Stats_learning_trig/img/Stim/FN_019_g.png""}]","463.69999999995343","https://ziweizhang0304.github.io/Stats_learning_trig/img/Stim/FN_003_g.png","post_TD","1","2048.100000000093","2511.8000000000466","slow","6","1","5de7ccc24b7cf973d7b05bfb","","","","","",""
"","image-keyboard-response","15","1010528","0.0-5.0-1.0-0.0","4004.3000000000466","","","https://ziweizhang0304.github.io/Stats_learning_trig/img/Stim/FN_008_g.png","13","","","","","","","","","","","","","","","","","",""
"","animation","16","1014949","0.0-5.0-1.0-1.0","","","","","","[{""stimulus"":""https://ziweizhang0304.github.io/Stats_learning_trig/img/Stim/FN_025_g.png"",""time"":341.5999999998603},{""stimulus"":""blank"",""time"":642.6999999999534},{""stimulus"":""https://ziweizhang0304.github.io/Stats_learning_trig/img/Stim/FN_011_g.png"",""time"":690},{""stimulus"":""blank"",""time"":991.6999999999534},{""stimulus"":""https://ziweizhang0304.github.io/Stats_learning_trig/img/Stim/FN_013_g.png"",""time"":1021.8000000000466},{""stimulus"":""blank"",""time"":1323.3000000000466},{""stimulus"":""https://ziweizhang0304.github.io/Stats_learning_trig/img/Stim/FN_009_g.png"",""time"":1361.5},{""stimulus"":""blank"",""time"":1668.5},{""stimulus"":""https://ziweizhang0304.github.io/Stats_learning_trig/img/Stim/FN_026_g.png"",""time"":1700.5},{""stimulus"":""blank"",""time"":2012.5999999998603},{""stimulus"":""https://ziweizhang0304.github.io/Stats_learning_trig/img/Stim/FN_002_g.png"",""time"":2041.6999999999534},{""stimulus"":""blank"",""time"":2356.5999999998603},{""stimulus"":""https://ziweizhang0304.github.io/Stats_learning_trig/img/Stim/FN_008_g.png"",""time"":2381.6999999999534},{""stimulus"":""blank"",""time"":2687.6999999999534},{""stimulus"":""https://ziweizhang0304.github.io/Stats_learning_trig/img/Stim/FN_014_g.png"",""time"":2731.8000000000466},{""stimulus"":""blank"",""time"":3033.1999999999534},{""stimulus"":""https://ziweizhang0304.github.io/Stats_learning_trig/img/Stim/FN_015_g.png"",""time"":3061.5999999998603},{""stimulus"":""blank"",""time"":3362},{""stimulus"":""https://ziweizhang0304.github.io/Stats_learning_trig/img/Stim/FN_017_g.png"",""time"":3401.5},{""stimulus"":""blank"",""time"":3702.5},{""stimulus"":""https://ziweizhang0304.github.io/Stats_learning_trig/img/Stim/FN_022_g.png"",""time"":3741.5999999998603},{""stimulus"":""blank"",""time"":4042.5999999998603},{""stimulus"":""https://ziweizhang0304.github.io/Stats_learning_trig/img/Stim/FN_016_g.png"",""time"":4092.6999999999534},{""stimulus"":""blank"",""time"":4405.699999999953}]","[{""key_press"":32,""rt"":2731.4000000001397,""stimulus"":""blank""}]","349.70000000018626","https://ziweizhang0304.github.io/Stats_learning_trig/img/Stim/FN_008_g.png","post_TD","2","2381.6999999999534","2731.4000000001397","fast","7","3","5de7ccc24b7cf973d7b05bfb","","","","","",""
"","image-keyboard-response","17","1016500","0.0-5.0-2.0-0.0","1549.5","","","https://ziweizhang0304.github.io/Stats_learning_trig/img/Stim/FN_003_g.png","13","","","","","","","","","","","","","","","","","",""
"","animation","18","1020921","0.0-5.0-2.0-1.0","","","","","","[{""stimulus"":""https://ziweizhang0304.github.io/Stats_learning_trig/img/Stim/FN_022_g.png"",""time"":350.20000000018626},{""stimulus"":""blank"",""time"":652.2000000001863},{""stimulus"":""https://ziweizhang0304.github.io/Stats_learning_trig/img/Stim/FN_025_g.png"",""time"":681.2000000001863},{""stimulus"":""blank"",""time"":984.8000000000466},{""stimulus"":""https://ziweizhang0304.github.io/Stats_learning_trig/img/Stim/FN_016_g.png"",""time"":1020.3000000000466},{""stimulus"":""blank"",""time"":1326.9000000001397},{""stimulus"":""https://ziweizhang0304.github.io/Stats_learning_trig/img/Stim/FN_011_g.png"",""time"":1374},{""stimulus"":""blank"",""time"":1674.9000000001397},{""stimulus"":""https://ziweizhang0304.github.io/Stats_learning_trig/img/Stim/FN_003_g.png"",""time"":1703.1000000000931},{""stimulus"":""blank"",""time"":2016.1000000000931},{""stimulus"":""https://ziweizhang0304.github.io/Stats_learning_trig/img/Stim/FN_019_g.png"",""time"":2047.2000000001863},{""stimulus"":""blank"",""time"":2349.100000000093},{""stimulus"":""https://ziweizhang0304.github.io/Stats_learning_trig/img/Stim/FN_018_g.png"",""time"":2381.2000000001863},{""stimulus"":""blank"",""time"":2682.2000000001863},{""stimulus"":""https://ziweizhang0304.github.io/Stats_learning_trig/img/Stim/FN_014_g.png"",""time"":2721.4000000001397},{""stimulus"":""blank"",""time"":3024.4000000001397},{""stimulus"":""https://ziweizhang0304.github.io/Stats_learning_trig/img/Stim/FN_009_g.png"",""time"":3061.5},{""stimulus"":""blank"",""time"":3362.5},{""stimulus"":""https://ziweizhang0304.github.io/Stats_learning_trig/img/Stim/FN_015_g.png"",""time"":3403.600000000093},{""stimulus"":""blank"",""time"":3716.5},{""stimulus"":""https://ziweizhang0304.github.io/Stats_learning_trig/img/Stim/FN_017_g.png"",""time"":3741.600000000093},{""stimulus"":""blank"",""time"":4047.2000000001863},{""stimulus"":""https://ziweizhang0304.github.io/Stats_learning_trig/img/Stim/FN_013_g.png"",""time"":4081.2000000001863},{""stimulus"":""blank"",""time"":4382.700000000186}]","[{""key_press"":32,""rt"":2067.8000000000466,""stimulus"":""https://ziweizhang0304.github.io/Stats_learning_trig/img/Stim/FN_019_g.png""}]","364.69999999995343","https://ziweizhang0304.github.io/Stats_learning_trig/img/Stim/FN_003_g.png","post_TD","3","1703.1000000000931","2067.8000000000466","slow","5","1","5de7ccc24b7cf973d7b05bfb","","","","","",""
"","image-keyboard-response","19","1021248","0.0-5.0-3.0-0.0","326.19999999995343","","","https://ziweizhang0304.github.io/Stats_learning_trig/img/Stim/FN_019_g.png","13","","","","","","","","","","","","","","","","","",""
"","animation","20","1025670","0.0-5.0-3.0-1.0","","","","","","[{""stimulus"":""https://ziweizhang0304.github.io/Stats_learning_trig/img/Stim/FN_022_g.png"",""time"":346.19999999995343},{""stimulus"":""blank"",""time"":647.6999999999534},{""stimulus"":""https://ziweizhang0304.github.io/Stats_learning_trig/img/Stim/FN_025_g.png"",""time"":682.0999999998603},{""stimulus"":""blank"",""time"":984.8999999999069},{""stimulus"":""https://ziweizhang0304.github.io/Stats_learning_trig/img/Stim/FN_016_g.png"",""time"":1021.0999999998603},{""stimulus"":""blank"",""time"":1329.0999999998603},{""stimulus"":""https://ziweizhang0304.github.io/Stats_learning_trig/img/Stim/FN_011_g.png"",""time"":1362.3999999999069},{""stimulus"":""blank"",""time"":1672.0999999998603},{""stimulus"":""https://ziweizhang0304.github.io/Stats_learning_trig/img/Stim/FN_003_g.png"",""time"":1703.3999999999069},{""stimulus"":""blank"",""time"":2005.1999999999534},{""stimulus"":""https://ziweizhang0304.github.io/Stats_learning_trig/img/Stim/FN_019_g.png"",""time"":2041.0999999998603},{""stimulus"":""blank"",""time"":2342.8000000000466},{""stimulus"":""https://ziweizhang0304.github.io/Stats_learning_trig/img/Stim/FN_018_g.png"",""time"":2380.899999999907},{""stimulus"":""blank"",""time"":2683},{""stimulus"":""https://ziweizhang0304.github.io/Stats_learning_trig/img/Stim/FN_014_g.png"",""time"":2720.5},{""stimulus"":""blank"",""time"":3022},{""stimulus"":""https://ziweizhang0304.github.io/Stats_learning_trig/img/Stim/FN_009_g.png"",""time"":3062.3000000000466},{""stimulus"":""blank"",""time"":3372.3000000000466},{""stimulus"":""https://ziweizhang0304.github.io/Stats_learning_trig/img/Stim/FN_015_g.png"",""time"":3404.5},{""stimulus"":""blank"",""time"":3719.6999999999534},{""stimulus"":""https://ziweizhang0304.github.io/Stats_learning_trig/img/Stim/FN_017_g.png"",""time"":3741.8000000000466},{""stimulus"":""blank"",""time"":4042.8000000000466},{""stimulus"":""https://ziweizhang0304.github.io/Stats_learning_trig/img/Stim/FN_013_g.png"",""time"":4082.0999999998603},{""stimulus"":""blank"",""time"":4391.800000000047}]","[{""key_press"":32,""rt"":2388.5999999998603,""stimulus"":""https://ziweizhang0304.github.io/Stats_learning_trig/img/Stim/FN_018_g.png""}]","347.5","https://ziweizhang0304.github.io/Stats_learning_trig/img/Stim/FN_019_g.png","post_TD","4","2041.0999999998603","2388.5999999998603","slow","6","2","5de7ccc24b7cf973d7b05bfb","","","","","",""
"","image-keyboard-response","21","1026365","0.0-5.0-4.0-0.0","694.2000000001863","","","https://ziweizhang0304.github.io/Stats_learning_trig/img/Stim/FN_002_g.png","13","","","","","","","","","","","","","","","","","",""
"","animation","22","1030786","0.0-5.0-4.0-1.0","","","","","","[{""stimulus"":""https://ziweizhang0304.github.io/Stats_learning_trig/img/Stim/FN_022_g.png"",""time"":352.69999999995343},{""stimulus"":""blank"",""time"":654.5},{""stimulus"":""https://ziweizhang0304.github.io/Stats_learning_trig/img/Stim/FN_025_g.png"",""time"":681.6000000000931},{""stimulus"":""blank"",""time"":995.6000000000931},{""stimulus"":""https://ziweizhang0304.github.io/Stats_learning_trig/img/Stim/FN_013_g.png"",""time"":1022.1000000000931},{""stimulus"":""blank"",""time"":1323.6999999999534},{""stimulus"":""https://ziweizhang0304.github.io/Stats_learning_trig/img/Stim/FN_026_g.png"",""time"":1361.6999999999534},{""stimulus"":""blank"",""time"":1665.8000000000466},{""stimulus"":""https://ziweizhang0304.github.io/Stats_learning_trig/img/Stim/FN_002_g.png"",""time"":1701.8000000000466},{""stimulus"":""blank"",""time"":2002.8000000000466},{""stimulus"":""https://ziweizhang0304.github.io/Stats_learning_trig/img/Stim/FN_008_g.png"",""time"":2043.5},{""stimulus"":""blank"",""time"":2354.399999999907},{""stimulus"":""https://ziweizhang0304.github.io/Stats_learning_trig/img/Stim/FN_014_g.png"",""time"":2381.600000000093},{""stimulus"":""blank"",""time"":2682.5},{""stimulus"":""https://ziweizhang0304.github.io/Stats_learning_trig/img/Stim/FN_009_g.png"",""time"":2720.600000000093},{""stimulus"":""blank"",""time"":3020.6999999999534},{""stimulus"":""https://ziweizhang0304.github.io/Stats_learning_trig/img/Stim/FN_011_g.png"",""time"":3060.6999999999534},{""stimulus"":""blank"",""time"":3361.6999999999534},{""stimulus"":""https://ziweizhang0304.github.io/Stats_learning_trig/img/Stim/FN_015_g.png"",""time"":3413.899999999907},{""stimulus"":""blank"",""time"":3728.8000000000466},{""stimulus"":""https://ziweizhang0304.github.io/Stats_learning_trig/img/Stim/FN_017_g.png"",""time"":3741.5},{""stimulus"":""blank"",""time"":4052.5},{""stimulus"":""https://ziweizhang0304.github.io/Stats_learning_trig/img/Stim/FN_016_g.png"",""time"":4081.5},{""stimulus"":""blank"",""time"":4382.600000000093}]","[{""key_press"":32,""rt"":1995.3999999999069,""stimulus"":""https://ziweizhang0304.github.io/Stats_learning_trig/img/Stim/FN_002_g.png""}]","293.5999999998603","https://ziweizhang0304.github.io/Stats_learning_trig/img/Stim/FN_002_g.png","post_TD","5","1701.8000000000466","1995.3999999999069","fast","5","2","5de7ccc24b7cf973d7b05bfb","","","","","",""
"","image-keyboard-response","23","1031453","0.0-5.0-5.0-0.0","666.3000000000466","","","https://ziweizhang0304.github.io/Stats_learning_trig/img/Stim/FN_008_g.png","13","","","","","","","","","","","","","","","","","",""
"","animation","24","1035874","0.0-5.0-5.0-1.0","","","","","","[{""stimulus"":""https://ziweizhang0304.github.io/Stats_learning_trig/img/Stim/FN_022_g.png"",""time"":355.60000000009313},{""stimulus"":""blank"",""time"":669.6000000000931},{""stimulus"":""https://ziweizhang0304.github.io/Stats_learning_trig/img/Stim/FN_025_g.png"",""time"":681.7000000001863},{""stimulus"":""blank"",""time"":982.7000000001863},{""stimulus"":""https://ziweizhang0304.github.io/Stats_learning_trig/img/Stim/FN_013_g.png"",""time"":1020.7000000001863},{""stimulus"":""blank"",""time"":1321.7000000001863},{""stimulus"":""https://ziweizhang0304.github.io/Stats_learning_trig/img/Stim/FN_026_g.png"",""time"":1361.8000000000466},{""stimulus"":""blank"",""time"":1670.9000000001397},{""stimulus"":""https://ziweizhang0304.github.io/Stats_learning_trig/img/Stim/FN_002_g.png"",""time"":1716.1000000000931},{""stimulus"":""blank"",""time"":2018},{""stimulus"":""https://ziweizhang0304.github.io/Stats_learning_trig/img/Stim/FN_008_g.png"",""time"":2044.1000000000931},{""stimulus"":""blank"",""time"":2353.5},{""stimulus"":""https://ziweizhang0304.github.io/Stats_learning_trig/img/Stim/FN_014_g.png"",""time"":2381.7000000001863},{""stimulus"":""blank"",""time"":2682.7000000001863},{""stimulus"":""https://ziweizhang0304.github.io/Stats_learning_trig/img/Stim/FN_009_g.png"",""time"":2721.9000000001397},{""stimulus"":""blank"",""time"":3023.3000000000466},{""stimulus"":""https://ziweizhang0304.github.io/Stats_learning_trig/img/Stim/FN_011_g.png"",""time"":3061.3000000000466},{""stimulus"":""blank"",""time"":3374.5},{""stimulus"":""https://ziweizhang0304.github.io/Stats_learning_trig/img/Stim/FN_015_g.png"",""time"":3401.5},{""stimulus"":""blank"",""time"":3703.5},{""stimulus"":""https://ziweizhang0304.github.io/Stats_learning_trig/img/Stim/FN_017_g.png"",""time"":3749.600000000093},{""stimulus"":""blank"",""time"":4064.5},{""stimulus"":""https://ziweizhang0304.github.io/Stats_learning_trig/img/Stim/FN_016_g.png"",""time"":4080.600000000093},{""stimulus"":""blank"",""time"":4381.200000000186}]","[{""key_press"":32,""rt"":2388.2999999998137,""stimulus"":""https://ziweizhang0304.github.io/Stats_learning_trig/img/Stim/FN_014_g.png""}]","344.1999999997206","https://ziweizhang0304.github.io/Stats_learning_trig/img/Stim/FN_008_g.png","post_TD","6","2044.1000000000931","2388.2999999998137","fast","6","3","5de7ccc24b7cf973d7b05bfb","","","","","",""
"","image-keyboard-response","25","1036181","0.0-5.0-6.0-0.0","305.4000000001397","","","https://ziweizhang0304.github.io/Stats_learning_trig/img/Stim/FN_026_g.png","13","","","","","","","","","","","","","","","","","",""
"","animation","26","1040603","0.0-5.0-6.0-1.0","","","","","","[{""stimulus"":""https://ziweizhang0304.github.io/Stats_learning_trig/img/Stim/FN_022_g.png"",""time"":342},{""stimulus"":""blank"",""time"":643.8999999999069},{""stimulus"":""https://ziweizhang0304.github.io/Stats_learning_trig/img/Stim/FN_025_g.png"",""time"":682},{""stimulus"":""blank"",""time"":988},{""stimulus"":""https://ziweizhang0304.github.io/Stats_learning_trig/img/Stim/FN_013_g.png"",""time"":1036},{""stimulus"":""blank"",""time"":1337.1000000000931},{""stimulus"":""https://ziweizhang0304.github.io/Stats_learning_trig/img/Stim/FN_026_g.png"",""time"":1364.3000000000466},{""stimulus"":""blank"",""time"":1674.1999999999534},{""stimulus"":""https://ziweizhang0304.github.io/Stats_learning_trig/img/Stim/FN_002_g.png"",""time"":1701.3000000000466},{""stimulus"":""blank"",""time"":2005.3999999999069},{""stimulus"":""https://ziweizhang0304.github.io/Stats_learning_trig/img/Stim/FN_008_g.png"",""time"":2041.3000000000466},{""stimulus"":""blank"",""time"":2342.399999999907},{""stimulus"":""https://ziweizhang0304.github.io/Stats_learning_trig/img/Stim/FN_014_g.png"",""time"":2395.5},{""stimulus"":""blank"",""time"":2695.899999999907},{""stimulus"":""https://ziweizhang0304.github.io/Stats_learning_trig/img/Stim/FN_009_g.png"",""time"":2722.100000000093},{""stimulus"":""blank"",""time"":3023.5},{""stimulus"":""https://ziweizhang0304.github.io/Stats_learning_trig/img/Stim/FN_011_g.png"",""time"":3061.6999999999534},{""stimulus"":""blank"",""time"":3364.8000000000466},{""stimulus"":""https://ziweizhang0304.github.io/Stats_learning_trig/img/Stim/FN_015_g.png"",""time"":3400.8000000000466},{""stimulus"":""blank"",""time"":3701.1999999999534},{""stimulus"":""https://ziweizhang0304.github.io/Stats_learning_trig/img/Stim/FN_017_g.png"",""time"":3741.3000000000466},{""stimulus"":""blank"",""time"":4051.399999999907},{""stimulus"":""https://ziweizhang0304.github.io/Stats_learning_trig/img/Stim/FN_016_g.png"",""time"":4081.5},{""stimulus"":""blank"",""time"":4382}]","[{""key_press"":32,""rt"":1691.3999999999069,""stimulus"":""blank""}]","327.0999999998603","https://ziweizhang0304.github.io/Stats_learning_trig/img/Stim/FN_026_g.png","post_TD","7","1364.3000000000466","1691.3999999999069","fast","4","1","5de7ccc24b7cf973d7b05bfb","","","","","",""
"","image-keyboard-response","27","1040913","0.0-5.0-7.0-0.0","309","","","https://ziweizhang0304.github.io/Stats_learning_trig/img/Stim/FN_003_g.png","13","","","","","","","","","","","","","","","","","",""
"","animation","28","1045334","0.0-5.0-7.0-1.0","","","","","","[{""stimulus"":""https://ziweizhang0304.github.io/Stats_learning_trig/img/Stim/FN_014_g.png"",""time"":342},{""stimulus"":""blank"",""time"":644},{""stimulus"":""https://ziweizhang0304.github.io/Stats_learning_trig/img/Stim/FN_009_g.png"",""time"":681.5},{""stimulus"":""blank"",""time"":993.5},{""stimulus"":""https://ziweizhang0304.github.io/Stats_learning_trig/img/Stim/FN_016_g.png"",""time"":1021.6000000000931},{""stimulus"":""blank"",""time"":1336.6000000000931},{""stimulus"":""https://ziweizhang0304.github.io/Stats_learning_trig/img/Stim/FN_025_g.png"",""time"":1362.2000000001863},{""stimulus"":""blank"",""time"":1663.8000000000466},{""stimulus"":""https://ziweizhang0304.github.io/Stats_learning_trig/img/Stim/FN_013_g.png"",""time"":1701.8000000000466},{""stimulus"":""blank"",""time"":2002.8000000000466},{""stimulus"":""https://ziweizhang0304.github.io/Stats_learning_trig/img/Stim/FN_017_g.png"",""time"":2055.9000000001397},{""stimulus"":""blank"",""time"":2356.9000000001397},{""stimulus"":""https://ziweizhang0304.github.io/Stats_learning_trig/img/Stim/FN_003_g.png"",""time"":2382.600000000093},{""stimulus"":""blank"",""time"":2696.5},{""stimulus"":""https://ziweizhang0304.github.io/Stats_learning_trig/img/Stim/FN_019_g.png"",""time"":2720.600000000093},{""stimulus"":""blank"",""time"":3025.600000000093},{""stimulus"":""https://ziweizhang0304.github.io/Stats_learning_trig/img/Stim/FN_018_g.png"",""time"":3060.7000000001863},{""stimulus"":""blank"",""time"":3367.7000000001863},{""stimulus"":""https://ziweizhang0304.github.io/Stats_learning_trig/img/Stim/FN_011_g.png"",""time"":3401.8000000000466},{""stimulus"":""blank"",""time"":3711.9000000001397},{""stimulus"":""https://ziweizhang0304.github.io/Stats_learning_trig/img/Stim/FN_015_g.png"",""time"":3741.9000000001397},{""stimulus"":""blank"",""time"":4043.8000000000466},{""stimulus"":""https://ziweizhang0304.github.io/Stats_learning_trig/img/Stim/FN_022_g.png"",""time"":4087.600000000093},{""stimulus"":""blank"",""time"":4402.5}]","[{""key_press"":32,""rt"":2703.6999999999534,""stimulus"":""blank""}]","321.0999999998603","https://ziweizhang0304.github.io/Stats_learning_trig/img/Stim/FN_003_g.png","post_TD","8","2382.600000000093","2703.6999999999534","slow","7","1","5de7ccc24b7cf973d7b05bfb","","","","","",""
"","image-keyboard-response","29","1045705","0.0-5.0-8.0-0.0","369.30000000004657","","","https://ziweizhang0304.github.io/Stats_learning_trig/img/Stim/FN_019_g.png","13","","","","","","","","","","","","","","","","","",""
"","animation","30","1050126","0.0-5.0-8.0-1.0","","","","","","[{""stimulus"":""https://ziweizhang0304.github.io/Stats_learning_trig/img/Stim/FN_014_g.png"",""time"":344.4000000001397},{""stimulus"":""blank"",""time"":646.3000000000466},{""stimulus"":""https://ziweizhang0304.github.io/Stats_learning_trig/img/Stim/FN_017_g.png"",""time"":680.4000000001397},{""stimulus"":""blank"",""time"":983},{""stimulus"":""https://ziweizhang0304.github.io/Stats_learning_trig/img/Stim/FN_016_g.png"",""time"":1021.4000000001397},{""stimulus"":""blank"",""time"":1326.4999999998836},{""stimulus"":""https://ziweizhang0304.github.io/Stats_learning_trig/img/Stim/FN_011_g.png"",""time"":1360.5999999999767},{""stimulus"":""blank"",""time"":1661.9999999998836},{""stimulus"":""https://ziweizhang0304.github.io/Stats_learning_trig/img/Stim/FN_022_g.png"",""time"":1701.9000000002561},{""stimulus"":""blank"",""time"":2003.5999999999767},{""stimulus"":""https://ziweizhang0304.github.io/Stats_learning_trig/img/Stim/FN_003_g.png"",""time"":2042.4000000002561},{""stimulus"":""blank"",""time"":2357.70000000007},{""stimulus"":""https://ziweizhang0304.github.io/Stats_learning_trig/img/Stim/FN_019_g.png"",""time"":2380.900000000256},{""stimulus"":""blank"",""time"":2685.800000000163},{""stimulus"":""https://ziweizhang0304.github.io/Stats_learning_trig/img/Stim/FN_018_g.png"",""time"":2721.800000000163},{""stimulus"":""blank"",""time"":3030.9999999998836},{""stimulus"":""https://ziweizhang0304.github.io/Stats_learning_trig/img/Stim/FN_009_g.png"",""time"":3060.9999999998836},{""stimulus"":""blank"",""time"":3369.9999999998836},{""stimulus"":""https://ziweizhang0304.github.io/Stats_learning_trig/img/Stim/FN_015_g.png"",""time"":3402.0999999999767},{""stimulus"":""blank"",""time"":3714.0999999999767},{""stimulus"":""https://ziweizhang0304.github.io/Stats_learning_trig/img/Stim/FN_013_g.png"",""time"":3746.20000000007},{""stimulus"":""blank"",""time"":4056.20000000007},{""stimulus"":""https://ziweizhang0304.github.io/Stats_learning_trig/img/Stim/FN_025_g.png"",""time"":4082.300000000163},{""stimulus"":""blank"",""time"":4385.400000000256}]","[{""key_press"":32,""rt"":2432.0999999999767,""stimulus"":""https://ziweizhang0304.github.io/Stats_learning_trig/img/Stim/FN_019_g.png""}]","51.1999999997206","https://ziweizhang0304.github.io/Stats_learning_trig/img/Stim/FN_019_g.png","post_TD","9","2380.900000000256","2432.0999999999767","slow","7","2","5de7ccc24b7cf973d7b05bfb","","","","","",""
"","image-keyboard-response","31","1050473","0.0-5.0-9.0-0.0","345.5","","","https://ziweizhang0304.github.io/Stats_learning_trig/img/Stim/FN_002_g.png","13","","","","","","","","","","","","","","","","","",""
"","animation","32","1054903","0.0-5.0-9.0-1.0","","","","","","[{""stimulus"":""https://ziweizhang0304.github.io/Stats_learning_trig/img/Stim/FN_022_g.png"",""time"":349.39999999990687},{""stimulus"":""blank"",""time"":651.1999999997206},{""stimulus"":""https://ziweizhang0304.github.io/Stats_learning_trig/img/Stim/FN_015_g.png"",""time"":682.2999999998137},{""stimulus"":""blank"",""time"":983.7999999998137},{""stimulus"":""https://ziweizhang0304.github.io/Stats_learning_trig/img/Stim/FN_025_g.png"",""time"":1026},{""stimulus"":""blank"",""time"":1338.0999999996275},{""stimulus"":""https://ziweizhang0304.github.io/Stats_learning_trig/img/Stim/FN_011_g.png"",""time"":1362},{""stimulus"":""blank"",""time"":1665.2999999998137},{""stimulus"":""https://ziweizhang0304.github.io/Stats_learning_trig/img/Stim/FN_016_g.png"",""time"":1701.5999999996275},{""stimulus"":""blank"",""time"":2003.1999999997206},{""stimulus"":""https://ziweizhang0304.github.io/Stats_learning_trig/img/Stim/FN_013_g.png"",""time"":2042.3999999999069},{""stimulus"":""blank"",""time"":2343.2999999998137},{""stimulus"":""https://ziweizhang0304.github.io/Stats_learning_trig/img/Stim/FN_026_g.png"",""time"":2382.5999999996275},{""stimulus"":""blank"",""time"":2683.7999999998137},{""stimulus"":""https://ziweizhang0304.github.io/Stats_learning_trig/img/Stim/FN_002_g.png"",""time"":2726.0999999996275},{""stimulus"":""blank"",""time"":3041.899999999907},{""stimulus"":""https://ziweizhang0304.github.io/Stats_learning_trig/img/Stim/FN_008_g.png"",""time"":3060.899999999907},{""stimulus"":""blank"",""time"":3368.1999999997206},{""stimulus"":""https://ziweizhang0304.github.io/Stats_learning_trig/img/Stim/FN_014_g.png"",""time"":3404.399999999907},{""stimulus"":""blank"",""time"":3706.1999999997206},{""stimulus"":""https://ziweizhang0304.github.io/Stats_learning_trig/img/Stim/FN_009_g.png"",""time"":3742.399999999907},{""stimulus"":""blank"",""time"":4055.5999999996275},{""stimulus"":""https://ziweizhang0304.github.io/Stats_learning_trig/img/Stim/FN_017_g.png"",""time"":4081.5},{""stimulus"":""blank"",""time"":4382}]","[{""key_press"":32,""rt"":3067.3000000002794,""stimulus"":""https://ziweizhang0304.github.io/Stats_learning_trig/img/Stim/FN_008_g.png""}]","341.2000000006519","https://ziweizhang0304.github.io/Stats_learning_trig/img/Stim/FN_002_g.png","post_TD","10","2726.0999999996275","3067.3000000002794","fast","8","2","5de7ccc24b7cf973d7b05bfb","","","","","",""
"","image-keyboard-response","33","1055505","0.0-5.0-10.0-0.0","596.7000000001863","","","https://ziweizhang0304.github.io/Stats_learning_trig/img/Stim/FN_018_g.png","13","","","","","","","","","","","","","","","","","",""
"","animation","34","1059926","0.0-5.0-10.0-1.0","","","","","","[{""stimulus"":""https://ziweizhang0304.github.io/Stats_learning_trig/img/Stim/FN_014_g.png"",""time"":342.40000000037253},{""stimulus"":""blank"",""time"":643.8000000002794},{""stimulus"":""https://ziweizhang0304.github.io/Stats_learning_trig/img/Stim/FN_009_g.png"",""time"":681.3000000002794},{""stimulus"":""blank"",""time"":982.4000000003725},{""stimulus"":""https://ziweizhang0304.github.io/Stats_learning_trig/img/Stim/FN_016_g.png"",""time"":1020.5},{""stimulus"":""blank"",""time"":1335.4000000003725},{""stimulus"":""https://ziweizhang0304.github.io/Stats_learning_trig/img/Stim/FN_025_g.png"",""time"":1361.5},{""stimulus"":""blank"",""time"":1662.1000000000931},{""stimulus"":""https://ziweizhang0304.github.io/Stats_learning_trig/img/Stim/FN_013_g.png"",""time"":1712.2000000001863},{""stimulus"":""blank"",""time"":2027.7000000001863},{""stimulus"":""https://ziweizhang0304.github.io/Stats_learning_trig/img/Stim/FN_017_g.png"",""time"":2040.8000000002794},{""stimulus"":""blank"",""time"":2356.8000000002794},{""stimulus"":""https://ziweizhang0304.github.io/Stats_learning_trig/img/Stim/FN_003_g.png"",""time"":2382.4000000003725},{""stimulus"":""blank"",""time"":2683.4000000003725},{""stimulus"":""https://ziweizhang0304.github.io/Stats_learning_trig/img/Stim/FN_019_g.png"",""time"":2721.4000000003725},{""stimulus"":""blank"",""time"":3025.5},{""stimulus"":""https://ziweizhang0304.github.io/Stats_learning_trig/img/Stim/FN_018_g.png"",""time"":3061.5},{""stimulus"":""blank"",""time"":3362.600000000093},{""stimulus"":""https://ziweizhang0304.github.io/Stats_learning_trig/img/Stim/FN_011_g.png"",""time"":3401.3000000002794},{""stimulus"":""blank"",""time"":3708.7000000001863},{""stimulus"":""https://ziweizhang0304.github.io/Stats_learning_trig/img/Stim/FN_015_g.png"",""time"":3741.8000000002794},{""stimulus"":""blank"",""time"":4042.8000000002794},{""stimulus"":""https://ziweizhang0304.github.io/Stats_learning_trig/img/Stim/FN_022_g.png"",""time"":4080.9000000003725},{""stimulus"":""blank"",""time"":4382.4000000003725}]","[{""key_press"":32,""rt"":3396.2000000001863,""stimulus"":""blank""}]","334.70000000018626","https://ziweizhang0304.github.io/Stats_learning_trig/img/Stim/FN_018_g.png","post_TD","11","3061.5","3396.2000000001863","slow","9","3","5de7ccc24b7cf973d7b05bfb","","","","","",""
"","image-keyboard-response","35","1060529","0.0-5.0-11.0-0.0","601.5","","","https://ziweizhang0304.github.io/Stats_learning_trig/img/Stim/FN_026_g.png","13","","","","","","","","","","","","","","","","","",""
"","animation","36","1064963","0.0-5.0-11.0-1.0","","","","","","[{""stimulus"":""https://ziweizhang0304.github.io/Stats_learning_trig/img/Stim/FN_025_g.png"",""time"":341.89999999990687},{""stimulus"":""blank"",""time"":643.8999999999069},{""stimulus"":""https://ziweizhang0304.github.io/Stats_learning_trig/img/Stim/FN_011_g.png"",""time"":688.1000000000931},{""stimulus"":""blank"",""time"":1002.8999999999069},{""stimulus"":""https://ziweizhang0304.github.io/Stats_learning_trig/img/Stim/FN_013_g.png"",""time"":1022.1000000000931},{""stimulus"":""blank"",""time"":1323.5},{""stimulus"":""https://ziweizhang0304.github.io/Stats_learning_trig/img/Stim/FN_009_g.png"",""time"":1361.8000000002794},{""stimulus"":""blank"",""time"":1671.7000000001863},{""stimulus"":""https://ziweizhang0304.github.io/Stats_learning_trig/img/Stim/FN_026_g.png"",""time"":1701.8999999999069},{""stimulus"":""blank"",""time"":2014.7000000001863},{""stimulus"":""https://ziweizhang0304.github.io/Stats_learning_trig/img/Stim/FN_002_g.png"",""time"":2041},{""stimulus"":""blank"",""time"":2341.899999999907},{""stimulus"":""https://ziweizhang0304.github.io/Stats_learning_trig/img/Stim/FN_008_g.png"",""time"":2390},{""stimulus"":""blank"",""time"":2690.899999999907},{""stimulus"":""https://ziweizhang0304.github.io/Stats_learning_trig/img/Stim/FN_014_g.png"",""time"":2735},{""stimulus"":""blank"",""time"":3036.5},{""stimulus"":""https://ziweizhang0304.github.io/Stats_learning_trig/img/Stim/FN_015_g.png"",""time"":3061.7000000001863},{""stimulus"":""blank"",""time"":3362.3000000002794},{""stimulus"":""https://ziweizhang0304.github.io/Stats_learning_trig/img/Stim/FN_017_g.png"",""time"":3401.7000000001863},{""stimulus"":""blank"",""time"":3703.2000000001863},{""stimulus"":""https://ziweizhang0304.github.io/Stats_learning_trig/img/Stim/FN_022_g.png"",""time"":3741.399999999907},{""stimulus"":""blank"",""time"":4042.399999999907},{""stimulus"":""https://ziweizhang0304.github.io/Stats_learning_trig/img/Stim/FN_016_g.png"",""time"":4081.399999999907},{""stimulus"":""blank"",""time"":4385.5}]","[{""key_press"":32,""rt"":2063.600000000093,""stimulus"":""https://ziweizhang0304.github.io/Stats_learning_trig/img/Stim/FN_002_g.png""}]","361.70000000018626","https://ziweizhang0304.github.io/Stats_learning_trig/img/Stim/FN_026_g.png","post_TD","12","1701.8999999999069","2063.600000000093","fast","5","1","5de7ccc24b7cf973d7b05bfb","","","","","",""
"","image-keyboard-response","37","1066909","0.0-5.0-12.0-0.0","1945.5","","","https://ziweizhang0304.github.io/Stats_learning_trig/img/Stim/FN_019_g.png","13","","","","","","","","","","","","","","","","","",""
"","animation","38","1071331","0.0-5.0-12.0-1.0","","","","","","[{""stimulus"":""https://ziweizhang0304.github.io/Stats_learning_trig/img/Stim/FN_014_g.png"",""time"":341.79999999981374},{""stimulus"":""blank"",""time"":643.3999999999069},{""stimulus"":""https://ziweizhang0304.github.io/Stats_learning_trig/img/Stim/FN_009_g.png"",""time"":681.7999999998137},{""stimulus"":""blank"",""time"":993.7000000001863},{""stimulus"":""https://ziweizhang0304.github.io/Stats_learning_trig/img/Stim/FN_016_g.png"",""time"":1022.2999999998137},{""stimulus"":""blank"",""time"":1335.6000000000931},{""stimulus"":""https://ziweizhang0304.github.io/Stats_learning_trig/img/Stim/FN_025_g.png"",""time"":1361.7000000001863},{""stimulus"":""blank"",""time"":1663.2000000001863},{""stimulus"":""https://ziweizhang0304.github.io/Stats_learning_trig/img/Stim/FN_013_g.png"",""time"":1702.2000000001863},{""stimulus"":""blank"",""time"":2007.7999999998137},{""stimulus"":""https://ziweizhang0304.github.io/Stats_learning_trig/img/Stim/FN_017_g.png"",""time"":2054.5},{""stimulus"":""blank"",""time"":2356.2999999998137},{""stimulus"":""https://ziweizhang0304.github.io/Stats_learning_trig/img/Stim/FN_003_g.png"",""time"":2381.5},{""stimulus"":""blank"",""time"":2690.5},{""stimulus"":""https://ziweizhang0304.github.io/Stats_learning_trig/img/Stim/FN_019_g.png"",""time"":2721.5},{""stimulus"":""blank"",""time"":3030.5},{""stimulus"":""https://ziweizhang0304.github.io/Stats_learning_trig/img/Stim/FN_018_g.png"",""time"":3060.600000000093},{""stimulus"":""blank"",""time"":3361.7000000001863},{""stimulus"":""https://ziweizhang0304.github.io/Stats_learning_trig/img/Stim/FN_011_g.png"",""time"":3404.7999999998137},{""stimulus"":""blank"",""time"":3716.2000000001863},{""stimulus"":""https://ziweizhang0304.github.io/Stats_learning_trig/img/Stim/FN_015_g.png"",""time"":3746.7999999998137},{""stimulus"":""blank"",""time"":4048.7999999998137},{""stimulus"":""https://ziweizhang0304.github.io/Stats_learning_trig/img/Stim/FN_022_g.png"",""time"":4082},{""stimulus"":""blank"",""time"":4383.899999999907}]","[{""key_press"":32,""rt"":3083,""stimulus"":""https://ziweizhang0304.github.io/Stats_learning_trig/img/Stim/FN_018_g.png""}]","361.5","https://ziweizhang0304.github.io/Stats_learning_trig/img/Stim/FN_019_g.png","post_TD","13","2721.5","3083","slow","8","2","5de7ccc24b7cf973d7b05bfb","","","","","",""
"","image-keyboard-response","39","1071977","0.0-5.0-13.0-0.0","645.2999999998137","","","https://ziweizhang0304.github.io/Stats_learning_trig/img/Stim/FN_018_g.png","13","","","","","","","","","","","","","","","","","",""
"","animation","40","1076404","0.0-5.0-13.0-1.0","","","","","","[{""stimulus"":""https://ziweizhang0304.github.io/Stats_learning_trig/img/Stim/FN_014_g.png"",""time"":352.10000000009313},{""stimulus"":""blank"",""time"":664.5},{""stimulus"":""https://ziweizhang0304.github.io/Stats_learning_trig/img/Stim/FN_017_g.png"",""time"":681.6000000000931},{""stimulus"":""blank"",""time"":982.6000000000931},{""stimulus"":""https://ziweizhang0304.github.io/Stats_learning_trig/img/Stim/FN_016_g.png"",""time"":1023.7000000001863},{""stimulus"":""blank"",""time"":1335.2000000001863},{""stimulus"":""https://ziweizhang0304.github.io/Stats_learning_trig/img/Stim/FN_011_g.png"",""time"":1361.2000000001863},{""stimulus"":""blank"",""time"":1664.3000000002794},{""stimulus"":""https://ziweizhang0304.github.io/Stats_learning_trig/img/Stim/FN_022_g.png"",""time"":1701.3999999999069},{""stimulus"":""blank"",""time"":2001.8999999999069},{""stimulus"":""https://ziweizhang0304.github.io/Stats_learning_trig/img/Stim/FN_003_g.png"",""time"":2041},{""stimulus"":""blank"",""time"":2342.5},{""stimulus"":""https://ziweizhang0304.github.io/Stats_learning_trig/img/Stim/FN_019_g.png"",""time"":2381.600000000093},{""stimulus"":""blank"",""time"":2682.600000000093},{""stimulus"":""https://ziweizhang0304.github.io/Stats_learning_trig/img/Stim/FN_018_g.png"",""time"":2727.8000000002794},{""stimulus"":""blank"",""time"":3040.2000000001863},{""stimulus"":""https://ziweizhang0304.github.io/Stats_learning_trig/img/Stim/FN_009_g.png"",""time"":3061.2000000001863},{""stimulus"":""blank"",""time"":3362.3000000002794},{""stimulus"":""https://ziweizhang0304.github.io/Stats_learning_trig/img/Stim/FN_015_g.png"",""time"":3401.3000000002794},{""stimulus"":""blank"",""time"":3701.899999999907},{""stimulus"":""https://ziweizhang0304.github.io/Stats_learning_trig/img/Stim/FN_013_g.png"",""time"":3741},{""stimulus"":""blank"",""time"":4042.5},{""stimulus"":""https://ziweizhang0304.github.io/Stats_learning_trig/img/Stim/FN_025_g.png"",""time"":4081.5},{""stimulus"":""blank"",""time"":4382.5}]","[{""key_press"":32,""rt"":3055.5,""stimulus"":""blank""}]","327.6999999997206","https://ziweizhang0304.github.io/Stats_learning_trig/img/Stim/FN_018_g.png","post_TD","14","2727.8000000002794","3055.5","slow","8","3","5de7ccc24b7cf973d7b05bfb","","","","","",""
"","image-keyboard-response","41","1092433","0.0-5.0-14.0-0.0","16028.30000000028","","","https://ziweizhang0304.github.io/Stats_learning_trig/img/Stim/FN_002_g.png","13","","","","","","","","","","","","","","","","","",""
"","animation","42","1096854","0.0-5.0-14.0-1.0","","","","","","[{""stimulus"":""https://ziweizhang0304.github.io/Stats_learning_trig/img/Stim/FN_009_g.png"",""time"":341.39999999990687},{""stimulus"":""blank"",""time"":643.2000000001863},{""stimulus"":""https://ziweizhang0304.github.io/Stats_learning_trig/img/Stim/FN_013_g.png"",""time"":681.2000000001863},{""stimulus"":""blank"",""time"":987.2999999998137},{""stimulus"":""https://ziweizhang0304.github.io/Stats_learning_trig/img/Stim/FN_017_g.png"",""time"":1021.5},{""stimulus"":""blank"",""time"":1322.2999999998137},{""stimulus"":""https://ziweizhang0304.github.io/Stats_learning_trig/img/Stim/FN_025_g.png"",""time"":1363.6000000000931},{""stimulus"":""blank"",""time"":1678},{""stimulus"":""https://ziweizhang0304.github.io/Stats_learning_trig/img/Stim/FN_015_g.png"",""time"":1701.1000000000931},{""stimulus"":""blank"",""time"":2003.7000000001863},{""stimulus"":""https://ziweizhang0304.github.io/Stats_learning_trig/img/Stim/FN_026_g.png"",""time"":2041.6000000000931},{""stimulus"":""blank"",""time"":2342.7000000001863},{""stimulus"":""https://ziweizhang0304.github.io/Stats_learning_trig/img/Stim/FN_002_g.png"",""time"":2391.7999999998137},{""stimulus"":""blank"",""time"":2692.7999999998137},{""stimulus"":""https://ziweizhang0304.github.io/Stats_learning_trig/img/Stim/FN_008_g.png"",""time"":2735.7999999998137},{""stimulus"":""blank"",""time"":3037.7999999998137},{""stimulus"":""https://ziweizhang0304.github.io/Stats_learning_trig/img/Stim/FN_014_g.png"",""time"":3064},{""stimulus"":""blank"",""time"":3365.899999999907},{""stimulus"":""https://ziweizhang0304.github.io/Stats_learning_trig/img/Stim/FN_011_g.png"",""time"":3402},{""stimulus"":""blank"",""time"":3704.100000000093},{""stimulus"":""https://ziweizhang0304.github.io/Stats_learning_trig/img/Stim/FN_022_g.png"",""time"":3741.100000000093},{""stimulus"":""blank"",""time"":4047.2000000001863},{""stimulus"":""https://ziweizhang0304.github.io/Stats_learning_trig/img/Stim/FN_016_g.png"",""time"":4081.2000000001863},{""stimulus"":""blank"",""time"":4388.200000000186}]","[{""key_press"":32,""rt"":2683.7000000001863,""stimulus"":""https://ziweizhang0304.github.io/Stats_learning_trig/img/Stim/FN_002_g.png""}]","291.90000000037253","https://ziweizhang0304.github.io/Stats_learning_trig/img/Stim/FN_002_g.png","post_TD","15","2391.7999999998137","2683.7000000001863","fast","7","2","5de7ccc24b7cf973d7b05bfb","","","","","",""
"","image-keyboard-response","43","1097409","0.0-5.0-15.0-0.0","553.2999999998137","","","https://ziweizhang0304.github.io/Stats_learning_trig/img/Stim/FN_026_g.png","13","","","","","","","","","","","","","","","","","",""
"","animation","44","1101831","0.0-5.0-15.0-1.0","","","","","","[{""stimulus"":""https://ziweizhang0304.github.io/Stats_learning_trig/img/Stim/FN_009_g.png"",""time"":342},{""stimulus"":""blank"",""time"":653.1000000000931},{""stimulus"":""https://ziweizhang0304.github.io/Stats_learning_trig/img/Stim/FN_013_g.png"",""time"":682.1000000000931},{""stimulus"":""blank"",""time"":994.7000000001863},{""stimulus"":""https://ziweizhang0304.github.io/Stats_learning_trig/img/Stim/FN_017_g.png"",""time"":1020.7000000001863},{""stimulus"":""blank"",""time"":1332.8000000002794},{""stimulus"":""https://ziweizhang0304.github.io/Stats_learning_trig/img/Stim/FN_025_g.png"",""time"":1360.8999999999069},{""stimulus"":""blank"",""time"":1661.8999999999069},{""stimulus"":""https://ziweizhang0304.github.io/Stats_learning_trig/img/Stim/FN_015_g.png"",""time"":1701.8999999999069},{""stimulus"":""blank"",""time"":2008.8999999999069},{""stimulus"":""https://ziweizhang0304.github.io/Stats_learning_trig/img/Stim/FN_026_g.png"",""time"":2042},{""stimulus"":""blank"",""time"":2352},{""stimulus"":""https://ziweizhang0304.github.io/Stats_learning_trig/img/Stim/FN_002_g.png"",""time"":2382.100000000093},{""stimulus"":""blank"",""time"":2694.600000000093},{""stimulus"":""https://ziweizhang0304.github.io/Stats_learning_trig/img/Stim/FN_008_g.png"",""time"":2721.7000000001863},{""stimulus"":""blank"",""time"":3022.8000000002794},{""stimulus"":""https://ziweizhang0304.github.io/Stats_learning_trig/img/Stim/FN_014_g.png"",""time"":3062},{""stimulus"":""blank"",""time"":3363.899999999907},{""stimulus"":""https://ziweizhang0304.github.io/Stats_learning_trig/img/Stim/FN_011_g.png"",""time"":3413},{""stimulus"":""blank"",""time"":3718.899999999907},{""stimulus"":""https://ziweizhang0304.github.io/Stats_learning_trig/img/Stim/FN_022_g.png"",""time"":3749.100000000093},{""stimulus"":""blank"",""time"":4062.100000000093},{""stimulus"":""https://ziweizhang0304.github.io/Stats_learning_trig/img/Stim/FN_016_g.png"",""time"":4082.100000000093},{""stimulus"":""blank"",""time"":4389.700000000186}]","[{""key_press"":32,""rt"":2387.5,""stimulus"":""https://ziweizhang0304.github.io/Stats_learning_trig/img/Stim/FN_002_g.png""}]","345.5","https://ziweizhang0304.github.io/Stats_learning_trig/img/Stim/FN_026_g.png","post_TD","16","2042","2387.5","fast","6","1","5de7ccc24b7cf973d7b05bfb","","","","","",""
"","image-keyboard-response","45","1102397","0.0-5.0-16.0-0.0","564.6000000000931","","","https://ziweizhang0304.github.io/Stats_learning_trig/img/Stim/FN_002_g.png","13","","","","","","","","","","","","","","","","","",""
"","animation","46","1106819","0.0-5.0-16.0-1.0","","","","","","[{""stimulus"":""https://ziweizhang0304.github.io/Stats_learning_trig/img/Stim/FN_025_g.png"",""time"":353.20000000018626},{""stimulus"":""blank"",""time"":665.2000000001863},{""stimulus"":""https://ziweizhang0304.github.io/Stats_learning_trig/img/Stim/FN_011_g.png"",""time"":681.2999999998137},{""stimulus"":""blank"",""time"":992.7999999998137},{""stimulus"":""https://ziweizhang0304.github.io/Stats_learning_trig/img/Stim/FN_013_g.png"",""time"":1021.8999999999069},{""stimulus"":""blank"",""time"":1334.8999999999069},{""stimulus"":""https://ziweizhang0304.github.io/Stats_learning_trig/img/Stim/FN_009_g.png"",""time"":1361.5},{""stimulus"":""blank"",""time"":1663},{""stimulus"":""https://ziweizhang0304.github.io/Stats_learning_trig/img/Stim/FN_026_g.png"",""time"":1713.1000000000931},{""stimulus"":""blank"",""time"":2014.1000000000931},{""stimulus"":""https://ziweizhang0304.github.io/Stats_learning_trig/img/Stim/FN_002_g.png"",""time"":2041.5},{""stimulus"":""blank"",""time"":2351.2999999998137},{""stimulus"":""https://ziweizhang0304.github.io/Stats_learning_trig/img/Stim/FN_008_g.png"",""time"":2381.5},{""stimulus"":""blank"",""time"":2682.7999999998137},{""stimulus"":""https://ziweizhang0304.github.io/Stats_learning_trig/img/Stim/FN_014_g.png"",""time"":2720.899999999907},{""stimulus"":""blank"",""time"":3021.899999999907},{""stimulus"":""https://ziweizhang0304.github.io/Stats_learning_trig/img/Stim/FN_015_g.png"",""time"":3061.5},{""stimulus"":""blank"",""time"":3363.100000000093},{""stimulus"":""https://ziweizhang0304.github.io/Stats_learning_trig/img/Stim/FN_017_g.png"",""time"":3416},{""stimulus"":""blank"",""time"":3726.600000000093},{""stimulus"":""https://ziweizhang0304.github.io/Stats_learning_trig/img/Stim/FN_022_g.png"",""time"":3740.7000000001863},{""stimulus"":""blank"",""time"":4041.7999999998137},{""stimulus"":""https://ziweizhang0304.github.io/Stats_learning_trig/img/Stim/FN_016_g.png"",""time"":4080.7999999998137},{""stimulus"":""blank"",""time"":4381.799999999814}]","[{""key_press"":32,""rt"":2426.899999999907,""stimulus"":""https://ziweizhang0304.github.io/Stats_learning_trig/img/Stim/FN_008_g.png""}]","385.39999999990687","https://ziweizhang0304.github.io/Stats_learning_trig/img/Stim/FN_002_g.png","post_TD","17","2041.5","2426.899999999907","fast","6","2","5de7ccc24b7cf973d7b05bfb","","","","","",""
"","image-keyboard-response","47","1112917","0.0-5.0-17.0-0.0","6097.300000000279","","","https://ziweizhang0304.github.io/Stats_learning_trig/img/Stim/FN_018_g.png","13","","","","","","","","","","","","","","","","","",""
"","animation","48","1117338","0.0-5.0-17.0-1.0","","","","","","[{""stimulus"":""https://ziweizhang0304.github.io/Stats_learning_trig/img/Stim/FN_015_g.png"",""time"":341.5},{""stimulus"":""blank"",""time"":643.2999999998137},{""stimulus"":""https://ziweizhang0304.github.io/Stats_learning_trig/img/Stim/FN_017_g.png"",""time"":681.3999999999069},{""stimulus"":""blank"",""time"":982.5},{""stimulus"":""https://ziweizhang0304.github.io/Stats_learning_trig/img/Stim/FN_013_g.png"",""time"":1021.1000000000931},{""stimulus"":""blank"",""time"":1326.5},{""stimulus"":""https://ziweizhang0304.github.io/Stats_learning_trig/img/Stim/FN_003_g.png"",""time"":1361.7000000001863},{""stimulus"":""blank"",""time"":1663.6000000000931},{""stimulus"":""https://ziweizhang0304.github.io/Stats_learning_trig/img/Stim/FN_019_g.png"",""time"":1701.7000000001863},{""stimulus"":""blank"",""time"":2002.2000000001863},{""stimulus"":""https://ziweizhang0304.github.io/Stats_learning_trig/img/Stim/FN_018_g.png"",""time"":2041.2000000001863},{""stimulus"":""blank"",""time"":2342.399999999907},{""stimulus"":""https://ziweizhang0304.github.io/Stats_learning_trig/img/Stim/FN_014_g.png"",""time"":2381.399999999907},{""stimulus"":""blank"",""time"":2683.399999999907},{""stimulus"":""https://ziweizhang0304.github.io/Stats_learning_trig/img/Stim/FN_009_g.png"",""time"":2721},{""stimulus"":""blank"",""time"":3026.600000000093},{""stimulus"":""https://ziweizhang0304.github.io/Stats_learning_trig/img/Stim/FN_011_g.png"",""time"":3061.600000000093},{""stimulus"":""blank"",""time"":3362.600000000093},{""stimulus"":""https://ziweizhang0304.github.io/Stats_learning_trig/img/Stim/FN_022_g.png"",""time"":3405.7000000001863},{""stimulus"":""blank"",""time"":3714.2000000001863},{""stimulus"":""https://ziweizhang0304.github.io/Stats_learning_trig/img/Stim/FN_025_g.png"",""time"":3741.2000000001863},{""stimulus"":""blank"",""time"":4042.2999999998137},{""stimulus"":""https://ziweizhang0304.github.io/Stats_learning_trig/img/Stim/FN_016_g.png"",""time"":4084.5},{""stimulus"":""blank"",""time"":4386.399999999907}]","[{""key_press"":32,""rt"":2368,""stimulus"":""blank""}]","326.79999999981374","https://ziweizhang0304.github.io/Stats_learning_trig/img/Stim/FN_018_g.png","post_TD","18","2041.2000000001863","2368","slow","6","3","5de7ccc24b7cf973d7b05bfb","","","","","",""
"","image-keyboard-response","49","1118081","0.0-5.0-18.0-0.0","741.8999999999069","","","https://ziweizhang0304.github.io/Stats_learning_trig/img/Stim/FN_026_g.png","13","","","","","","","","","","","","","","","","","",""
"","animation","50","1122516","0.0-5.0-18.0-1.0","","","","","","[{""stimulus"":""https://ziweizhang0304.github.io/Stats_learning_trig/img/Stim/FN_022_g.png"",""time"":341.3000000002794},{""stimulus"":""blank"",""time"":642.2000000001863},{""stimulus"":""https://ziweizhang0304.github.io/Stats_learning_trig/img/Stim/FN_015_g.png"",""time"":681.2000000001863},{""stimulus"":""blank"",""time"":982.8999999999069},{""stimulus"":""https://ziweizhang0304.github.io/Stats_learning_trig/img/Stim/FN_025_g.png"",""time"":1029.8999999999069},{""stimulus"":""blank"",""time"":1341.5},{""stimulus"":""https://ziweizhang0304.github.io/Stats_learning_trig/img/Stim/FN_011_g.png"",""time"":1361.5},{""stimulus"":""blank"",""time"":1662.6000000000931},{""stimulus"":""https://ziweizhang0304.github.io/Stats_learning_trig/img/Stim/FN_016_g.png"",""time"":1701.6000000000931},{""stimulus"":""blank"",""time"":2003.1000000000931},{""stimulus"":""https://ziweizhang0304.github.io/Stats_learning_trig/img/Stim/FN_013_g.png"",""time"":2041.3000000002794},{""stimulus"":""blank"",""time"":2353.3000000002794},{""stimulus"":""https://ziweizhang0304.github.io/Stats_learning_trig/img/Stim/FN_026_g.png"",""time"":2381.399999999907},{""stimulus"":""blank"",""time"":2682.8000000002794},{""stimulus"":""https://ziweizhang0304.github.io/Stats_learning_trig/img/Stim/FN_002_g.png"",""time"":2721.899999999907},{""stimulus"":""blank"",""time"":3022.899999999907},{""stimulus"":""https://ziweizhang0304.github.io/Stats_learning_trig/img/Stim/FN_008_g.png"",""time"":3062},{""stimulus"":""blank"",""time"":3369},{""stimulus"":""https://ziweizhang0304.github.io/Stats_learning_trig/img/Stim/FN_014_g.png"",""time"":3401.100000000093},{""stimulus"":""blank"",""time"":3715.100000000093},{""stimulus"":""https://ziweizhang0304.github.io/Stats_learning_trig/img/Stim/FN_009_g.png"",""time"":3741.3000000002794},{""stimulus"":""blank"",""time"":4042.100000000093},{""stimulus"":""https://ziweizhang0304.github.io/Stats_learning_trig/img/Stim/FN_017_g.png"",""time"":4081.2000000001863},{""stimulus"":""blank"",""time"":4388.399999999907}]","[{""key_press"":32,""rt"":2703.5,""stimulus"":""blank""}]","322.10000000009313","https://ziweizhang0304.github.io/Stats_learning_trig/img/Stim/FN_026_g.png","post_TD","19","2381.399999999907","2703.5","fast","7","1","5de7ccc24b7cf973d7b05bfb","","","","","",""
"","image-keyboard-response","51","1122901","0.0-5.0-19.0-0.0","383.29999999981374","","","https://ziweizhang0304.github.io/Stats_learning_trig/img/Stim/FN_008_g.png","13","","","","","","","","","","","","","","","","","",""
"","animation","52","1127323","0.0-5.0-19.0-1.0","","","","","","[{""stimulus"":""https://ziweizhang0304.github.io/Stats_learning_trig/img/Stim/FN_009_g.png"",""time"":340.5},{""stimulus"":""blank"",""time"":641.8999999999069},{""stimulus"":""https://ziweizhang0304.github.io/Stats_learning_trig/img/Stim/FN_013_g.png"",""time"":680.8999999999069},{""stimulus"":""blank"",""time"":987.6000000000931},{""stimulus"":""https://ziweizhang0304.github.io/Stats_learning_trig/img/Stim/FN_017_g.png"",""time"":1021.3999999999069},{""stimulus"":""blank"",""time"":1322},{""stimulus"":""https://ziweizhang0304.github.io/Stats_learning_trig/img/Stim/FN_025_g.png"",""time"":1362.1000000000931},{""stimulus"":""blank"",""time"":1663.1000000000931},{""stimulus"":""https://ziweizhang0304.github.io/Stats_learning_trig/img/Stim/FN_015_g.png"",""time"":1711.2999999998137},{""stimulus"":""blank"",""time"":2020.2999999998137},{""stimulus"":""https://ziweizhang0304.github.io/Stats_learning_trig/img/Stim/FN_026_g.png"",""time"":2041.2999999998137},{""stimulus"":""blank"",""time"":2349},{""stimulus"":""https://ziweizhang0304.github.io/Stats_learning_trig/img/Stim/FN_002_g.png"",""time"":2382},{""stimulus"":""blank"",""time"":2682.399999999907},{""stimulus"":""https://ziweizhang0304.github.io/Stats_learning_trig/img/Stim/FN_008_g.png"",""time"":2721.600000000093},{""stimulus"":""blank"",""time"":3024.2000000001863},{""stimulus"":""https://ziweizhang0304.github.io/Stats_learning_trig/img/Stim/FN_014_g.png"",""time"":3065.2000000001863},{""stimulus"":""blank"",""time"":3367.100000000093},{""stimulus"":""https://ziweizhang0304.github.io/Stats_learning_trig/img/Stim/FN_011_g.png"",""time"":3408.2999999998137},{""stimulus"":""blank"",""time"":3720.2000000001863},{""stimulus"":""https://ziweizhang0304.github.io/Stats_learning_trig/img/Stim/FN_022_g.png"",""time"":3741.399999999907},{""stimulus"":""blank"",""time"":4045.7999999998137},{""stimulus"":""https://ziweizhang0304.github.io/Stats_learning_trig/img/Stim/FN_016_g.png"",""time"":4081.7999999998137},{""stimulus"":""blank"",""time"":4382.399999999907}]","[{""key_press"":32,""rt"":3024.100000000093,""stimulus"":""https://ziweizhang0304.github.io/Stats_learning_trig/img/Stim/FN_008_g.png""}]","302.5","https://ziweizhang0304.github.io/Stats_learning_trig/img/Stim/FN_008_g.png","post_TD","20","2721.600000000093","3024.100000000093","fast","8","3","5de7ccc24b7cf973d7b05bfb","","","","","",""
"","image-keyboard-response","53","1127669","0.0-5.0-20.0-0.0","345","","","https://ziweizhang0304.github.io/Stats_learning_trig/img/Stim/FN_008_g.png","13","","","","","","","","","","","","","","","","","",""
"","animation","54","1132091","0.0-5.0-20.0-1.0","","","","","","[{""stimulus"":""https://ziweizhang0304.github.io/Stats_learning_trig/img/Stim/FN_022_g.png"",""time"":342.10000000009313},{""stimulus"":""blank"",""time"":658.1000000000931},{""stimulus"":""https://ziweizhang0304.github.io/Stats_learning_trig/img/Stim/FN_015_g.png"",""time"":690.1999999997206},{""stimulus"":""blank"",""time"":991.6000000000931},{""stimulus"":""https://ziweizhang0304.github.io/Stats_learning_trig/img/Stim/FN_025_g.png"",""time"":1021.8999999999069},{""stimulus"":""blank"",""time"":1331.3999999999069},{""stimulus"":""https://ziweizhang0304.github.io/Stats_learning_trig/img/Stim/FN_011_g.png"",""time"":1361.3999999999069},{""stimulus"":""blank"",""time"":1673.8999999999069},{""stimulus"":""https://ziweizhang0304.github.io/Stats_learning_trig/img/Stim/FN_016_g.png"",""time"":1701.8999999999069},{""stimulus"":""blank"",""time"":2003},{""stimulus"":""https://ziweizhang0304.github.io/Stats_learning_trig/img/Stim/FN_013_g.png"",""time"":2041.1000000000931},{""stimulus"":""blank"",""time"":2343.5},{""stimulus"":""https://ziweizhang0304.github.io/Stats_learning_trig/img/Stim/FN_026_g.png"",""time"":2382.1999999997206},{""stimulus"":""blank"",""time"":2683.6999999997206},{""stimulus"":""https://ziweizhang0304.github.io/Stats_learning_trig/img/Stim/FN_002_g.png"",""time"":2721.7999999998137},{""stimulus"":""blank"",""time"":3034.2999999998137},{""stimulus"":""https://ziweizhang0304.github.io/Stats_learning_trig/img/Stim/FN_008_g.png"",""time"":3060.2999999998137},{""stimulus"":""blank"",""time"":3360.899999999907},{""stimulus"":""https://ziweizhang0304.github.io/Stats_learning_trig/img/Stim/FN_014_g.png"",""time"":3400.899999999907},{""stimulus"":""blank"",""time"":3702},{""stimulus"":""https://ziweizhang0304.github.io/Stats_learning_trig/img/Stim/FN_009_g.png"",""time"":3749.100000000093},{""stimulus"":""blank"",""time"":4058.100000000093},{""stimulus"":""https://ziweizhang0304.github.io/Stats_learning_trig/img/Stim/FN_017_g.png"",""time"":4089.1999999997206},{""stimulus"":""blank"",""time"":4390.600000000093}]","[{""key_press"":32,""rt"":2063.5999999996275,""stimulus"":""https://ziweizhang0304.github.io/Stats_learning_trig/img/Stim/FN_013_g.png""},{""key_press"":32,""rt"":2263.1999999997206,""stimulus"":""https://ziweizhang0304.github.io/Stats_learning_trig/img/Stim/FN_013_g.png""}]","NaN","https://ziweizhang0304.github.io/Stats_learning_trig/img/Stim/FN_008_g.png","post_TD","21","3060.2999999998137","","fast","9","3","5de7ccc24b7cf973d7b05bfb","","","","","",""
"","image-keyboard-response","55","1132865","0.0-5.0-21.0-0.0","773","","","https://ziweizhang0304.github.io/Stats_learning_trig/img/Stim/FN_019_g.png","13","","","","","","","","","","","","","","","","","",""
"","animation","56","1137287","0.0-5.0-21.0-1.0","","","","","","[{""stimulus"":""https://ziweizhang0304.github.io/Stats_learning_trig/img/Stim/FN_015_g.png"",""time"":351.89999999990687},{""stimulus"":""blank"",""time"":653.7999999998137},{""stimulus"":""https://ziweizhang0304.github.io/Stats_learning_trig/img/Stim/FN_017_g.png"",""time"":696},{""stimulus"":""blank"",""time"":1007.8999999999069},{""stimulus"":""https://ziweizhang0304.github.io/Stats_learning_trig/img/Stim/FN_013_g.png"",""time"":1022.1000000000931},{""stimulus"":""blank"",""time"":1323.1000000000931},{""stimulus"":""https://ziweizhang0304.github.io/Stats_learning_trig/img/Stim/FN_003_g.png"",""time"":1361.1000000000931},{""stimulus"":""blank"",""time"":1662.2000000001863},{""stimulus"":""https://ziweizhang0304.github.io/Stats_learning_trig/img/Stim/FN_019_g.png"",""time"":1702.2999999998137},{""stimulus"":""blank"",""time"":2009.2999999998137},{""stimulus"":""https://ziweizhang0304.github.io/Stats_learning_trig/img/Stim/FN_018_g.png"",""time"":2041.3999999999069},{""stimulus"":""blank"",""time"":2354.399999999907},{""stimulus"":""https://ziweizhang0304.github.io/Stats_learning_trig/img/Stim/FN_014_g.png"",""time"":2381.5},{""stimulus"":""blank"",""time"":2683},{""stimulus"":""https://ziweizhang0304.github.io/Stats_learning_trig/img/Stim/FN_009_g.png"",""time"":2727.100000000093},{""stimulus"":""blank"",""time"":3028.600000000093},{""stimulus"":""https://ziweizhang0304.github.io/Stats_learning_trig/img/Stim/FN_011_g.png"",""time"":3060.600000000093},{""stimulus"":""blank"",""time"":3369.600000000093},{""stimulus"":""https://ziweizhang0304.github.io/Stats_learning_trig/img/Stim/FN_022_g.png"",""time"":3400.7999999998137},{""stimulus"":""blank"",""time"":3713.2000000001863},{""stimulus"":""https://ziweizhang0304.github.io/Stats_learning_trig/img/Stim/FN_025_g.png"",""time"":3741.2999999998137},{""stimulus"":""blank"",""time"":4043.2999999998137},{""stimulus"":""https://ziweizhang0304.github.io/Stats_learning_trig/img/Stim/FN_016_g.png"",""time"":4081.2999999998137},{""stimulus"":""blank"",""time"":4382.899999999907}]","[{""key_press"":32,""rt"":2063.6999999997206,""stimulus"":""https://ziweizhang0304.github.io/Stats_learning_trig/img/Stim/FN_018_g.png""}]","361.39999999990687","https://ziweizhang0304.github.io/Stats_learning_trig/img/Stim/FN_019_g.png","post_TD","22","1702.2999999998137","2063.6999999997206","slow","5","2","5de7ccc24b7cf973d7b05bfb","","","","","",""
"","image-keyboard-response","57","1137597","0.0-5.0-22.0-0.0","309.1999999997206","","","https://ziweizhang0304.github.io/Stats_learning_trig/img/Stim/FN_003_g.png","13","","","","","","","","","","","","","","","","","",""
"","animation","58","1142020","0.0-5.0-22.0-1.0","","","","","","[{""stimulus"":""https://ziweizhang0304.github.io/Stats_learning_trig/img/Stim/FN_015_g.png"",""time"":355.60000000009313},{""stimulus"":""blank"",""time"":657},{""stimulus"":""https://ziweizhang0304.github.io/Stats_learning_trig/img/Stim/FN_017_g.png"",""time"":681.1000000000931},{""stimulus"":""blank"",""time"":982.1000000000931},{""stimulus"":""https://ziweizhang0304.github.io/Stats_learning_trig/img/Stim/FN_013_g.png"",""time"":1021.2000000001863},{""stimulus"":""blank"",""time"":1334.3000000002794},{""stimulus"":""https://ziweizhang0304.github.io/Stats_learning_trig/img/Stim/FN_003_g.png"",""time"":1360.8000000002794},{""stimulus"":""blank"",""time"":1662.3000000002794},{""stimulus"":""https://ziweizhang0304.github.io/Stats_learning_trig/img/Stim/FN_019_g.png"",""time"":1701.4000000003725},{""stimulus"":""blank"",""time"":2002.4000000003725},{""stimulus"":""https://ziweizhang0304.github.io/Stats_learning_trig/img/Stim/FN_018_g.png"",""time"":2041.8000000002794},{""stimulus"":""blank"",""time"":2351.5},{""stimulus"":""https://ziweizhang0304.github.io/Stats_learning_trig/img/Stim/FN_014_g.png"",""time"":2382.3000000002794},{""stimulus"":""blank"",""time"":2684.100000000093},{""stimulus"":""https://ziweizhang0304.github.io/Stats_learning_trig/img/Stim/FN_009_g.png"",""time"":2721.2000000001863},{""stimulus"":""blank"",""time"":3022.2000000001863},{""stimulus"":""https://ziweizhang0304.github.io/Stats_learning_trig/img/Stim/FN_011_g.png"",""time"":3062.3000000002794},{""stimulus"":""blank"",""time"":3363.3000000002794},{""stimulus"":""https://ziweizhang0304.github.io/Stats_learning_trig/img/Stim/FN_022_g.png"",""time"":3402.5},{""stimulus"":""blank"",""time"":3716.4000000003725},{""stimulus"":""https://ziweizhang0304.github.io/Stats_learning_trig/img/Stim/FN_025_g.png"",""time"":3741.4000000003725},{""stimulus"":""blank"",""time"":4043.600000000093},{""stimulus"":""https://ziweizhang0304.github.io/Stats_learning_trig/img/Stim/FN_016_g.png"",""time"":4082.100000000093},{""stimulus"":""blank"",""time"":4383.100000000093}]","[{""key_press"":32,""rt"":1751.7000000001863,""stimulus"":""https://ziweizhang0304.github.io/Stats_learning_trig/img/Stim/FN_019_g.png""}]","390.89999999990687","https://ziweizhang0304.github.io/Stats_learning_trig/img/Stim/FN_003_g.png","post_TD","23","1360.8000000002794","1751.7000000001863","slow","4","1","5de7ccc24b7cf973d7b05bfb","","","","","",""
"","image-keyboard-response","59","1142317","0.0-5.0-23.0-0.0","296.20000000018626","","","https://ziweizhang0304.github.io/Stats_learning_trig/img/Stim/FN_018_g.png","13","","","","","","","","","","","","","","","","","",""
"","animation","60","1146739","0.0-5.0-23.0-1.0","","","","","","[{""stimulus"":""https://ziweizhang0304.github.io/Stats_learning_trig/img/Stim/FN_022_g.png"",""time"":341.89999999990687},{""stimulus"":""blank"",""time"":643.7999999998137},{""stimulus"":""https://ziweizhang0304.github.io/Stats_learning_trig/img/Stim/FN_025_g.png"",""time"":684.1000000000931},{""stimulus"":""blank"",""time"":997.7999999998137},{""stimulus"":""https://ziweizhang0304.github.io/Stats_learning_trig/img/Stim/FN_016_g.png"",""time"":1021.8999999999069},{""stimulus"":""blank"",""time"":1323.6000000000931},{""stimulus"":""https://ziweizhang0304.github.io/Stats_learning_trig/img/Stim/FN_011_g.png"",""time"":1361.6999999997206},{""stimulus"":""blank"",""time"":1662.5},{""stimulus"":""https://ziweizhang0304.github.io/Stats_learning_trig/img/Stim/FN_003_g.png"",""time"":1712.6000000000931},{""stimulus"":""blank"",""time"":2027.6000000000931},{""stimulus"":""https://ziweizhang0304.github.io/Stats_learning_trig/img/Stim/FN_019_g.png"",""time"":2040.7999999998137},{""stimulus"":""blank"",""time"":2341.7999999998137},{""stimulus"":""https://ziweizhang0304.github.io/Stats_learning_trig/img/Stim/FN_018_g.png"",""time"":2388},{""stimulus"":""blank"",""time"":2689.7999999998137},{""stimulus"":""https://ziweizhang0304.github.io/Stats_learning_trig/img/Stim/FN_014_g.png"",""time"":2721.7999999998137},{""stimulus"":""blank"",""time"":3023.399999999907},{""stimulus"":""https://ziweizhang0304.github.io/Stats_learning_trig/img/Stim/FN_009_g.png"",""time"":3060.5},{""stimulus"":""blank"",""time"":3362},{""stimulus"":""https://ziweizhang0304.github.io/Stats_learning_trig/img/Stim/FN_015_g.png"",""time"":3401.600000000093},{""stimulus"":""blank"",""time"":3703.100000000093},{""stimulus"":""https://ziweizhang0304.github.io/Stats_learning_trig/img/Stim/FN_017_g.png"",""time"":3742.100000000093},{""stimulus"":""blank"",""time"":4043.1999999997206},{""stimulus"":""https://ziweizhang0304.github.io/Stats_learning_trig/img/Stim/FN_013_g.png"",""time"":4086.2999999998137},{""stimulus"":""blank"",""time"":4398.399999999907}]","[{""key_press"":32,""rt"":2751.2999999998137,""stimulus"":""https://ziweizhang0304.github.io/Stats_learning_trig/img/Stim/FN_014_g.png""}]","363.29999999981374","https://ziweizhang0304.github.io/Stats_learning_trig/img/Stim/FN_018_g.png","post_TD","24","2388","2751.2999999998137","slow","7","3","5de7ccc24b7cf973d7b05bfb","c1d08","","","","",""
"","survey-text","61","1170734","0.0-6.0","23986.899999999907","","","","","","","","","","","","","","","","","","{""Q0"":""Just to respond to the target as fast as possible\n""}","","","",""
"","survey-text","62","1175754","0.0-7.0","5016.5","","","","","","","","","","","","","","","","","","{""[object Object]"":""No""}","","","",""
"","instructions","63","1195442","0.0-8.0","19688.19999999972","","[{""page_index"":0,""viewing_time"":19688}]","","","","","","","","","","","","","","","","","","","",""
"","free-sort","64","1234441","0.0-9.0","38997.700000000186","","","","","","","","","post_drag","","","","fast","","","","","","[{""src"":""https://ziweizhang0304.github.io/Stats_learning_trig/img/Stim/FN_002_g.png"",""x"":475,""y"":0},{""src"":""https://ziweizhang0304.github.io/Stats_learning_trig/img/Stim/FN_026_g.png"",""x"":-225,""y"":50},{""src"":""https://ziweizhang0304.github.io/Stats_learning_trig/img/Stim/FN_008_g.png"",""x"":475,""y"":50}]","[{""src"":""https://ziweizhang0304.github.io/Stats_learning_trig/img/Stim/FN_002_g.png"",""x"":400,""y"":2},{""src"":""https://ziweizhang0304.github.io/Stats_learning_trig/img/Stim/FN_002_g.png"",""x"":47,""y"":29},{""src"":""https://ziweizhang0304.github.io/Stats_learning_trig/img/Stim/FN_002_g.png"",""x"":-66,""y"":20},{""src"":""https://ziweizhang0304.github.io/Stats_learning_trig/img/Stim/FN_002_g.png"",""x"":49,""y"":30},{""src"":""https://ziweizhang0304.github.io/Stats_learning_trig/img/Stim/FN_026_g.png"",""x"":143,""y"":37},{""src"":""https://ziweizhang0304.github.io/Stats_learning_trig/img/Stim/FN_008_g.png"",""x"":228,""y"":22}]","[{""src"":""https://ziweizhang0304.github.io/Stats_learning_trig/img/Stim/FN_002_g.png"",""x"":49,""y"":30},{""src"":""https://ziweizhang0304.github.io/Stats_learning_trig/img/Stim/FN_026_g.png"",""x"":143,""y"":37},{""src"":""https://ziweizhang0304.github.io/Stats_learning_trig/img/Stim/FN_008_g.png"",""x"":228,""y"":22}]",""
"","free-sort","65","1242796","0.0-10.0","8353.600000000093","","","","","","","","","post_drag","","","","slow","","","","","","[{""src"":""https://ziweizhang0304.github.io/Stats_learning_trig/img/Stim/FN_019_g.png"",""x"":475,""y"":0},{""src"":""https://ziweizhang0304.github.io/Stats_learning_trig/img/Stim/FN_018_g.png"",""x"":-225,""y"":50},{""src"":""https://ziweizhang0304.github.io/Stats_learning_trig/img/Stim/FN_003_g.png"",""x"":475,""y"":50}]","[{""src"":""https://ziweizhang0304.github.io/Stats_learning_trig/img/Stim/FN_019_g.png"",""x"":31,""y"":21},{""src"":""https://ziweizhang0304.github.io/Stats_learning_trig/img/Stim/FN_003_g.png"",""x"":116,""y"":26},{""src"":""https://ziweizhang0304.github.io/Stats_learning_trig/img/Stim/FN_018_g.png"",""x"":218,""y"":27}]","[{""src"":""https://ziweizhang0304.github.io/Stats_learning_trig/img/Stim/FN_019_g.png"",""x"":31,""y"":21},{""src"":""https://ziweizhang0304.github.io/Stats_learning_trig/img/Stim/FN_018_g.png"",""x"":218,""y"":27},{""src"":""https://ziweizhang0304.github.io/Stats_learning_trig/img/Stim/FN_003_g.png"",""x"":116,""y"":26}]",""
"","survey-multi-choice","66","1252438","0.0-11.0","9639.80000000028","","","","","","","","","","","","","","","","5de7ccc24b7cf973d7b05bfb","","{""awareness"":""No"",""attention_check"":""Press SPACEBAR to a target""}","","","","[0,1]"
