"success","trial_type","trial_index","time_elapsed","internal_node_id","rt","url","view_history","stimulus","key_press","animation_sequence","response","TD_rt","TD_target","test_part","TD_trial_number","onset","offset","attention_state","TD_target_position","TD_within_triplet_counter","participant","yoke_participant","responses","init_locations","moves","final_locations","question_order"
"true","fullscreen","0","16141","0.0-0.0","","","","","","","","","","","","","","","","","","","","","","",""
"","external-html","1","35528","0.0-1.0","19255.5","https://ziweizhang0304.github.io/Stats_learning_trig/content/consent.html","","","","","","","","","","","","","","","","","","","","",""
"","instructions","2","78552","0.0-2.0","43016.800000190735","","[{""page_index"":0,""viewing_time"":2274.7000000476837},{""page_index"":1,""viewing_time"":33824},{""page_index"":2,""viewing_time"":5188.200000047684},{""page_index"":3,""viewing_time"":1729.2999999523163}]","","","","","","","","","","","","","","","","","","","",""
"","image-keyboard-response","3","81432","0.0-3.0-0.0-0.0","2878.7000000476837","","","https://ziweizhang0304.github.io/Stats_learning_trig/img/Stim/FN_020_g.png","13","","","","","","","","","","","","","","","","","",""
"","animation","4","85854","0.0-3.0-0.0-1.0","","","","","","[{""stimulus"":""https://ziweizhang0304.github.io/Stats_learning_trig/img/Stim/FN_023_g.png"",""time"":349.5},{""stimulus"":""blank"",""time"":650},{""stimulus"":""https://ziweizhang0304.github.io/Stats_learning_trig/img/Stim/FN_020_g.png"",""time"":681.2999999523163},{""stimulus"":""blank"",""time"":992.5},{""stimulus"":""https://ziweizhang0304.github.io/Stats_learning_trig/img/Stim/FN_019_g.png"",""time"":1021.2999999523163},{""stimulus"":""blank"",""time"":1328.4000000953674},{""stimulus"":""https://ziweizhang0304.github.io/Stats_learning_trig/img/Stim/FN_008_g.png"",""time"":1360.9000000953674},{""stimulus"":""blank"",""time"":1676.7000000476837},{""stimulus"":""https://ziweizhang0304.github.io/Stats_learning_trig/img/Stim/FN_005_g.png"",""time"":1701.2999999523163},{""stimulus"":""blank"",""time"":2008.2000000476837},{""stimulus"":""https://ziweizhang0304.github.io/Stats_learning_trig/img/Stim/FN_004_g.png"",""time"":2041},{""stimulus"":""blank"",""time"":2341.2999999523163},{""stimulus"":""https://ziweizhang0304.github.io/Stats_learning_trig/img/Stim/FN_015_g.png"",""time"":2404.7000000476837},{""stimulus"":""blank"",""time"":2708},{""stimulus"":""https://ziweizhang0304.github.io/Stats_learning_trig/img/Stim/FN_017_g.png"",""time"":2721.2999999523163},{""stimulus"":""blank"",""time"":3030.9000000953674},{""stimulus"":""https://ziweizhang0304.github.io/Stats_learning_trig/img/Stim/FN_006_g.png"",""time"":3062.2999999523163},{""stimulus"":""blank"",""time"":3377},{""stimulus"":""https://ziweizhang0304.github.io/Stats_learning_trig/img/Stim/FN_016_g.png"",""time"":3401.600000143051},{""stimulus"":""blank"",""time"":3705.4000000953674},{""stimulus"":""https://ziweizhang0304.github.io/Stats_learning_trig/img/Stim/FN_001_g.png"",""time"":3742.600000143051},{""stimulus"":""blank"",""time"":4043.100000143051},{""stimulus"":""https://ziweizhang0304.github.io/Stats_learning_trig/img/Stim/FN_010_g.png"",""time"":4081.2000000476837},{""stimulus"":""blank"",""time"":4392.700000047684}]","[{""key_press"":32,""rt"":1083.8000001907349,""stimulus"":""https://ziweizhang0304.github.io/Stats_learning_trig/img/Stim/FN_019_g.png""}]","402.5000002384186","https://ziweizhang0304.github.io/Stats_learning_trig/img/Stim/FN_020_g.png","post_prac","","","","","","","","","","","","",""
"","html-keyboard-response","5","89851","0.0-3.0-0.0-2.0","3994.399999856949","","","<p>Your reaction time for this trial was 402.5 ms.</p><p>Remember that you should only press the SPACEBAR when you see the shape presented at the beginning of the trial. </b> </p><p>Press enter to move on.</p>","13","","","","","","","","","","","","","","","","","",""
"","image-keyboard-response","6","93178","0.0-3.0-1.0-0.0","3326.199999809265","","","https://ziweizhang0304.github.io/Stats_learning_trig/img/Stim/FN_024_g.png","13","","","","","","","","","","","","","","","","","",""
"","animation","7","97601","0.0-3.0-1.0-1.0","","","","","","[{""stimulus"":""https://ziweizhang0304.github.io/Stats_learning_trig/img/Stim/FN_019_g.png"",""time"":346.5},{""stimulus"":""blank"",""time"":661.5},{""stimulus"":""https://ziweizhang0304.github.io/Stats_learning_trig/img/Stim/FN_015_g.png"",""time"":681.2999999523163},{""stimulus"":""blank"",""time"":999.9000000953674},{""stimulus"":""https://ziweizhang0304.github.io/Stats_learning_trig/img/Stim/FN_005_g.png"",""time"":1021.2999999523163},{""stimulus"":""blank"",""time"":1331.4000000953674},{""stimulus"":""https://ziweizhang0304.github.io/Stats_learning_trig/img/Stim/FN_022_g.png"",""time"":1361.2999999523163},{""stimulus"":""blank"",""time"":1664},{""stimulus"":""https://ziweizhang0304.github.io/Stats_learning_trig/img/Stim/FN_024_g.png"",""time"":1700.6000001430511},{""stimulus"":""blank"",""time"":2001.7000000476837},{""stimulus"":""https://ziweizhang0304.github.io/Stats_learning_trig/img/Stim/FN_025_g.png"",""time"":2040.6000001430511},{""stimulus"":""blank"",""time"":2349.2000000476837},{""stimulus"":""https://ziweizhang0304.github.io/Stats_learning_trig/img/Stim/FN_001_g.png"",""time"":2381.2000000476837},{""stimulus"":""blank"",""time"":2702.9000000953674},{""stimulus"":""https://ziweizhang0304.github.io/Stats_learning_trig/img/Stim/FN_023_g.png"",""time"":2735.4000000953674},{""stimulus"":""blank"",""time"":3044.2999999523163},{""stimulus"":""https://ziweizhang0304.github.io/Stats_learning_trig/img/Stim/FN_004_g.png"",""time"":3061},{""stimulus"":""blank"",""time"":3366.100000143051},{""stimulus"":""https://ziweizhang0304.github.io/Stats_learning_trig/img/Stim/FN_017_g.png"",""time"":3400.7000000476837},{""stimulus"":""blank"",""time"":3705.9000000953674},{""stimulus"":""https://ziweizhang0304.github.io/Stats_learning_trig/img/Stim/FN_016_g.png"",""time"":3742.600000143051},{""stimulus"":""blank"",""time"":4052.5},{""stimulus"":""https://ziweizhang0304.github.io/Stats_learning_trig/img/Stim/FN_008_g.png"",""time"":4085.2000000476837},{""stimulus"":""blank"",""time"":4406.900000095367}]","[{""key_press"":32,""rt"":2071.7999999523163,""stimulus"":""https://ziweizhang0304.github.io/Stats_learning_trig/img/Stim/FN_025_g.png""}]","371.19999980926514","https://ziweizhang0304.github.io/Stats_learning_trig/img/Stim/FN_024_g.png","post_prac","","","","","","","","","","","","",""
"","html-keyboard-response","8","99306","0.0-3.0-1.0-2.0","1701.6000001430511","","","<p>Your reaction time for this trial was 371.2 ms.</p><p>Remember that you should only press the SPACEBAR when you see the shape presented at the beginning of the trial. </b> </p><p>Press enter to move on.</p>","13","","","","","","","","","","","","","","","","","",""
"","image-keyboard-response","9","100655","0.0-3.0-2.0-0.0","1348.4000000953674","","","https://ziweizhang0304.github.io/Stats_learning_trig/img/Stim/FN_020_g.png","13","","","","","","","","","","","","","","","","","",""
"","animation","10","105076","0.0-3.0-2.0-1.0","","","","","","[{""stimulus"":""https://ziweizhang0304.github.io/Stats_learning_trig/img/Stim/FN_015_g.png"",""time"":354.7999999523163},{""stimulus"":""blank"",""time"":670.6000001430511},{""stimulus"":""https://ziweizhang0304.github.io/Stats_learning_trig/img/Stim/FN_008_g.png"",""time"":681.2000000476837},{""stimulus"":""blank"",""time"":986.7999999523163},{""stimulus"":""https://ziweizhang0304.github.io/Stats_learning_trig/img/Stim/FN_019_g.png"",""time"":1048},{""stimulus"":""blank"",""time"":1349.2999999523163},{""stimulus"":""https://ziweizhang0304.github.io/Stats_learning_trig/img/Stim/FN_005_g.png"",""time"":1360.6000001430511},{""stimulus"":""blank"",""time"":1671.9000000953674},{""stimulus"":""https://ziweizhang0304.github.io/Stats_learning_trig/img/Stim/FN_017_g.png"",""time"":1700.7999999523163},{""stimulus"":""blank"",""time"":2003.4000000953674},{""stimulus"":""https://ziweizhang0304.github.io/Stats_learning_trig/img/Stim/FN_006_g.png"",""time"":2050},{""stimulus"":""blank"",""time"":2357.5},{""stimulus"":""https://ziweizhang0304.github.io/Stats_learning_trig/img/Stim/FN_020_g.png"",""time"":2381.2000000476837},{""stimulus"":""blank"",""time"":2689.5},{""stimulus"":""https://ziweizhang0304.github.io/Stats_learning_trig/img/Stim/FN_010_g.png"",""time"":2721.2999999523163},{""stimulus"":""blank"",""time"":3043},{""stimulus"":""https://ziweizhang0304.github.io/Stats_learning_trig/img/Stim/FN_001_g.png"",""time"":3061.2999999523163},{""stimulus"":""blank"",""time"":3375},{""stimulus"":""https://ziweizhang0304.github.io/Stats_learning_trig/img/Stim/FN_023_g.png"",""time"":3401.2000000476837},{""stimulus"":""blank"",""time"":3707.4000000953674},{""stimulus"":""https://ziweizhang0304.github.io/Stats_learning_trig/img/Stim/FN_004_g.png"",""time"":3767.7999999523163},{""stimulus"":""blank"",""time"":4076.7000000476837},{""stimulus"":""https://ziweizhang0304.github.io/Stats_learning_trig/img/Stim/FN_016_g.png"",""time"":4081.7999999523163},{""stimulus"":""blank"",""time"":4392.600000143051}]","[{""key_press"":32,""rt"":2837.2999999523163,""stimulus"":""https://ziweizhang0304.github.io/Stats_learning_trig/img/Stim/FN_010_g.png""}]","456.09999990463257","https://ziweizhang0304.github.io/Stats_learning_trig/img/Stim/FN_020_g.png","post_prac","","","","","","","","","","","","",""
"","html-keyboard-response","11","106012","0.0-3.0-2.0-2.0","934.1999998092651","","","<p>Your reaction time for this trial was 456.1 ms.</p><p>Remember that you should only press the SPACEBAR when you see the shape presented at the beginning of the trial. </b> </p><p>Press enter to move on.</p>","13","","","","","","","","","","","","","","","","","",""
"","instructions","12","108026","0.0-4.0","2014.2000000476837","","[{""page_index"":0,""viewing_time"":2014.0999999046326}]","","","","","","","","","","","","","","","","","","","",""
"","image-keyboard-response","13","109083","0.0-5.0-0.0-0.0","1056.5999999046326","","","https://ziweizhang0304.github.io/Stats_learning_trig/img/Stim/FN_024_g.png","13","","","","","","","","","","","","","","","","","",""
"","animation","14","113518","0.0-5.0-0.0-1.0","","","","","","[{""stimulus"":""https://ziweizhang0304.github.io/Stats_learning_trig/img/Stim/FN_005_g.png"",""time"":353.5},{""stimulus"":""blank"",""time"":653.7999999523163},{""stimulus"":""https://ziweizhang0304.github.io/Stats_learning_trig/img/Stim/FN_001_g.png"",""time"":681.5},{""stimulus"":""blank"",""time"":991.2000000476837},{""stimulus"":""https://ziweizhang0304.github.io/Stats_learning_trig/img/Stim/FN_019_g.png"",""time"":1020.7999999523163},{""stimulus"":""blank"",""time"":1330},{""stimulus"":""https://ziweizhang0304.github.io/Stats_learning_trig/img/Stim/FN_016_g.png"",""time"":1360.5999999046326},{""stimulus"":""blank"",""time"":1675.5},{""stimulus"":""https://ziweizhang0304.github.io/Stats_learning_trig/img/Stim/FN_022_g.png"",""time"":1707.0999999046326},{""stimulus"":""blank"",""time"":2030.2999999523163},{""stimulus"":""https://ziweizhang0304.github.io/Stats_learning_trig/img/Stim/FN_024_g.png"",""time"":2041.2999999523163},{""stimulus"":""blank"",""time"":2342.0999999046326},{""stimulus"":""https://ziweizhang0304.github.io/Stats_learning_trig/img/Stim/FN_025_g.png"",""time"":2381},{""stimulus"":""blank"",""time"":2691.0999999046326},{""stimulus"":""https://ziweizhang0304.github.io/Stats_learning_trig/img/Stim/FN_023_g.png"",""time"":2720.7000000476837},{""stimulus"":""blank"",""time"":3032},{""stimulus"":""https://ziweizhang0304.github.io/Stats_learning_trig/img/Stim/FN_004_g.png"",""time"":3060.7000000476837},{""stimulus"":""blank"",""time"":3364.2999999523163},{""stimulus"":""https://ziweizhang0304.github.io/Stats_learning_trig/img/Stim/FN_015_g.png"",""time"":3410.0999999046326},{""stimulus"":""blank"",""time"":3733.4000000953674},{""stimulus"":""https://ziweizhang0304.github.io/Stats_learning_trig/img/Stim/FN_017_g.png"",""time"":3740.7999999523163},{""stimulus"":""blank"",""time"":4043.0999999046326},{""stimulus"":""https://ziweizhang0304.github.io/Stats_learning_trig/img/Stim/FN_008_g.png"",""time"":4081.2999999523163},{""stimulus"":""blank"",""time"":4390.900000095367}]","[{""key_press"":32,""rt"":2376.5,""stimulus"":""blank""}]","335.2000000476837","https://ziweizhang0304.github.io/Stats_learning_trig/img/Stim/FN_024_g.png","post_TD","1","2041.2999999523163","2376.5","fast","6","2","60b4f4b34e71c30513ecc1f5","","","","","",""
"","image-keyboard-response","15","116250","0.0-5.0-1.0-0.0","2730.5","","","https://ziweizhang0304.github.io/Stats_learning_trig/img/Stim/FN_006_g.png","13","","","","","","","","","","","","","","","","","",""
"","animation","16","120672","0.0-5.0-1.0-1.0","","","","","","[{""stimulus"":""https://ziweizhang0304.github.io/Stats_learning_trig/img/Stim/FN_008_g.png"",""time"":352.19999980926514},{""stimulus"":""blank"",""time"":654.8999998569489},{""stimulus"":""https://ziweizhang0304.github.io/Stats_learning_trig/img/Stim/FN_016_g.png"",""time"":680.5999999046326},{""stimulus"":""blank"",""time"":990.2999999523163},{""stimulus"":""https://ziweizhang0304.github.io/Stats_learning_trig/img/Stim/FN_023_g.png"",""time"":1021.7999999523163},{""stimulus"":""blank"",""time"":1337.5},{""stimulus"":""https://ziweizhang0304.github.io/Stats_learning_trig/img/Stim/FN_015_g.png"",""time"":1361.2999999523163},{""stimulus"":""blank"",""time"":1676.1999998092651},{""stimulus"":""https://ziweizhang0304.github.io/Stats_learning_trig/img/Stim/FN_006_g.png"",""time"":1700.7999999523163},{""stimulus"":""blank"",""time"":2008},{""stimulus"":""https://ziweizhang0304.github.io/Stats_learning_trig/img/Stim/FN_020_g.png"",""time"":2041.0999999046326},{""stimulus"":""blank"",""time"":2354.899999856949},{""stimulus"":""https://ziweizhang0304.github.io/Stats_learning_trig/img/Stim/FN_010_g.png"",""time"":2380.5999999046326},{""stimulus"":""blank"",""time"":2693},{""stimulus"":""https://ziweizhang0304.github.io/Stats_learning_trig/img/Stim/FN_001_g.png"",""time"":2721.399999856949},{""stimulus"":""blank"",""time"":3025.2999999523163},{""stimulus"":""https://ziweizhang0304.github.io/Stats_learning_trig/img/Stim/FN_019_g.png"",""time"":3060.899999856949},{""stimulus"":""blank"",""time"":3379},{""stimulus"":""https://ziweizhang0304.github.io/Stats_learning_trig/img/Stim/FN_004_g.png"",""time"":3401.699999809265},{""stimulus"":""blank"",""time"":3711.2999999523163},{""stimulus"":""https://ziweizhang0304.github.io/Stats_learning_trig/img/Stim/FN_017_g.png"",""time"":3740.899999856949},{""stimulus"":""blank"",""time"":4042.899999856949},{""stimulus"":""https://ziweizhang0304.github.io/Stats_learning_trig/img/Stim/FN_005_g.png"",""time"":4081.5},{""stimulus"":""blank"",""time"":4396.5}]","[{""key_press"":32,""rt"":2081.7000000476837,""stimulus"":""https://ziweizhang0304.github.io/Stats_learning_trig/img/Stim/FN_020_g.png""}]","380.90000009536743","https://ziweizhang0304.github.io/Stats_learning_trig/img/Stim/FN_006_g.png","post_TD","2","1700.7999999523163","2081.7000000476837","slow","5","1","60b4f4b34e71c30513ecc1f5","","","","","",""
"","image-keyboard-response","17","121535","0.0-5.0-2.0-0.0","861.2999999523163","","","https://ziweizhang0304.github.io/Stats_learning_trig/img/Stim/FN_010_g.png","13","","","","","","","","","","","","","","","","","",""
"","animation","18","125976","0.0-5.0-2.0-1.0","","","","","","[{""stimulus"":""https://ziweizhang0304.github.io/Stats_learning_trig/img/Stim/FN_008_g.png"",""time"":346.30000019073486},{""stimulus"":""blank"",""time"":653.4000000953674},{""stimulus"":""https://ziweizhang0304.github.io/Stats_learning_trig/img/Stim/FN_016_g.png"",""time"":681.7000000476837},{""stimulus"":""blank"",""time"":999.9000000953674},{""stimulus"":""https://ziweizhang0304.github.io/Stats_learning_trig/img/Stim/FN_023_g.png"",""time"":1020.6000001430511},{""stimulus"":""blank"",""time"":1331.8000001907349},{""stimulus"":""https://ziweizhang0304.github.io/Stats_learning_trig/img/Stim/FN_015_g.png"",""time"":1362.5},{""stimulus"":""blank"",""time"":1662.9000000953674},{""stimulus"":""https://ziweizhang0304.github.io/Stats_learning_trig/img/Stim/FN_006_g.png"",""time"":1700.5},{""stimulus"":""blank"",""time"":2002},{""stimulus"":""https://ziweizhang0304.github.io/Stats_learning_trig/img/Stim/FN_020_g.png"",""time"":2055.600000143051},{""stimulus"":""blank"",""time"":2365},{""stimulus"":""https://ziweizhang0304.github.io/Stats_learning_trig/img/Stim/FN_010_g.png"",""time"":2381.2000000476837},{""stimulus"":""blank"",""time"":2703.2000000476837},{""stimulus"":""https://ziweizhang0304.github.io/Stats_learning_trig/img/Stim/FN_001_g.png"",""time"":2720.800000190735},{""stimulus"":""blank"",""time"":3034.600000143051},{""stimulus"":""https://ziweizhang0304.github.io/Stats_learning_trig/img/Stim/FN_019_g.png"",""time"":3065.2000000476837},{""stimulus"":""blank"",""time"":3366},{""stimulus"":""https://ziweizhang0304.github.io/Stats_learning_trig/img/Stim/FN_004_g.png"",""time"":3400.7000000476837},{""stimulus"":""blank"",""time"":3705},{""stimulus"":""https://ziweizhang0304.github.io/Stats_learning_trig/img/Stim/FN_017_g.png"",""time"":3740.600000143051},{""stimulus"":""blank"",""time"":4052.5},{""stimulus"":""https://ziweizhang0304.github.io/Stats_learning_trig/img/Stim/FN_005_g.png"",""time"":4081.7000000476837},{""stimulus"":""blank"",""time"":4383.800000190735}]","[{""key_press"":32,""rt"":2704,""stimulus"":""blank""}]","322.7999999523163","https://ziweizhang0304.github.io/Stats_learning_trig/img/Stim/FN_010_g.png","post_TD","3","2381.2000000476837","2704","slow","7","3","60b4f4b34e71c30513ecc1f5","","","","","",""
"","image-keyboard-response","19","126850","0.0-5.0-3.0-0.0","872.7000000476837","","","https://ziweizhang0304.github.io/Stats_learning_trig/img/Stim/FN_010_g.png","13","","","","","","","","","","","","","","","","","",""
"","animation","20","131277","0.0-5.0-3.0-1.0","","","","","","[{""stimulus"":""https://ziweizhang0304.github.io/Stats_learning_trig/img/Stim/FN_015_g.png"",""time"":342.5},{""stimulus"":""blank"",""time"":653.2000000476837},{""stimulus"":""https://ziweizhang0304.github.io/Stats_learning_trig/img/Stim/FN_008_g.png"",""time"":681.0999999046326},{""stimulus"":""blank"",""time"":996.3999998569489},{""stimulus"":""https://ziweizhang0304.github.io/Stats_learning_trig/img/Stim/FN_019_g.png"",""time"":1021.0999999046326},{""stimulus"":""blank"",""time"":1328.2999999523163},{""stimulus"":""https://ziweizhang0304.github.io/Stats_learning_trig/img/Stim/FN_005_g.png"",""time"":1361},{""stimulus"":""blank"",""time"":1682},{""stimulus"":""https://ziweizhang0304.github.io/Stats_learning_trig/img/Stim/FN_017_g.png"",""time"":1702.7999999523163},{""stimulus"":""blank"",""time"":2014.3999998569489},{""stimulus"":""https://ziweizhang0304.github.io/Stats_learning_trig/img/Stim/FN_006_g.png"",""time"":2041.0999999046326},{""stimulus"":""blank"",""time"":2345.7000000476837},{""stimulus"":""https://ziweizhang0304.github.io/Stats_learning_trig/img/Stim/FN_020_g.png"",""time"":2393.0999999046326},{""stimulus"":""blank"",""time"":2708.399999856949},{""stimulus"":""https://ziweizhang0304.github.io/Stats_learning_trig/img/Stim/FN_010_g.png"",""time"":2721.5},{""stimulus"":""blank"",""time"":3021.7000000476837},{""stimulus"":""https://ziweizhang0304.github.io/Stats_learning_trig/img/Stim/FN_001_g.png"",""time"":3061.0999999046326},{""stimulus"":""blank"",""time"":3362.7000000476837},{""stimulus"":""https://ziweizhang0304.github.io/Stats_learning_trig/img/Stim/FN_023_g.png"",""time"":3400.7999999523163},{""stimulus"":""blank"",""time"":3701.7000000476837},{""stimulus"":""https://ziweizhang0304.github.io/Stats_learning_trig/img/Stim/FN_004_g.png"",""time"":3748.5},{""stimulus"":""blank"",""time"":4048.7999999523163},{""stimulus"":""https://ziweizhang0304.github.io/Stats_learning_trig/img/Stim/FN_016_g.png"",""time"":4080.5999999046326},{""stimulus"":""blank"",""time"":4384.5}]","[{""key_press"":32,""rt"":3019.100000143051,""stimulus"":""https://ziweizhang0304.github.io/Stats_learning_trig/img/Stim/FN_010_g.png""}]","297.60000014305115","https://ziweizhang0304.github.io/Stats_learning_trig/img/Stim/FN_010_g.png","post_TD","4","2721.5","3019.100000143051","slow","8","3","60b4f4b34e71c30513ecc1f5","","","","","",""
"","image-keyboard-response","21","132138","0.0-5.0-4.0-0.0","859.6000001430511","","","https://ziweizhang0304.github.io/Stats_learning_trig/img/Stim/FN_025_g.png","13","","","","","","","","","","","","","","","","","",""
"","animation","22","136559","0.0-5.0-4.0-1.0","","","","","","[{""stimulus"":""https://ziweizhang0304.github.io/Stats_learning_trig/img/Stim/FN_015_g.png"",""time"":345.09999990463257},{""stimulus"":""blank"",""time"":661.2999999523163},{""stimulus"":""https://ziweizhang0304.github.io/Stats_learning_trig/img/Stim/FN_005_g.png"",""time"":681.7999999523163},{""stimulus"":""blank"",""time"":992.3999998569489},{""stimulus"":""https://ziweizhang0304.github.io/Stats_learning_trig/img/Stim/FN_016_g.png"",""time"":1021},{""stimulus"":""blank"",""time"":1330.5999999046326},{""stimulus"":""https://ziweizhang0304.github.io/Stats_learning_trig/img/Stim/FN_017_g.png"",""time"":1360.8999998569489},{""stimulus"":""blank"",""time"":1663},{""stimulus"":""https://ziweizhang0304.github.io/Stats_learning_trig/img/Stim/FN_001_g.png"",""time"":1701.7999999523163},{""stimulus"":""blank"",""time"":2016.7999999523163},{""stimulus"":""https://ziweizhang0304.github.io/Stats_learning_trig/img/Stim/FN_008_g.png"",""time"":2041.0999999046326},{""stimulus"":""blank"",""time"":2348.199999809265},{""stimulus"":""https://ziweizhang0304.github.io/Stats_learning_trig/img/Stim/FN_022_g.png"",""time"":2401.7999999523163},{""stimulus"":""blank"",""time"":2711.0999999046326},{""stimulus"":""https://ziweizhang0304.github.io/Stats_learning_trig/img/Stim/FN_024_g.png"",""time"":2720.5999999046326},{""stimulus"":""blank"",""time"":3033.5999999046326},{""stimulus"":""https://ziweizhang0304.github.io/Stats_learning_trig/img/Stim/FN_025_g.png"",""time"":3061.199999809265},{""stimulus"":""blank"",""time"":3365.7999999523163},{""stimulus"":""https://ziweizhang0304.github.io/Stats_learning_trig/img/Stim/FN_023_g.png"",""time"":3400.5},{""stimulus"":""blank"",""time"":3719.399999856949},{""stimulus"":""https://ziweizhang0304.github.io/Stats_learning_trig/img/Stim/FN_019_g.png"",""time"":3740.899999856949},{""stimulus"":""blank"",""time"":4041.7999999523163},{""stimulus"":""https://ziweizhang0304.github.io/Stats_learning_trig/img/Stim/FN_004_g.png"",""time"":4094.5999999046326},{""stimulus"":""blank"",""time"":4420}]","[{""key_press"":32,""rt"":3442.2000000476837,""stimulus"":""https://ziweizhang0304.github.io/Stats_learning_trig/img/Stim/FN_023_g.png""}]","381.0000002384186","https://ziweizhang0304.github.io/Stats_learning_trig/img/Stim/FN_025_g.png","post_TD","5","3061.199999809265","3442.2000000476837","fast","9","3","60b4f4b34e71c30513ecc1f5","","","","","",""
"","image-keyboard-response","23","137239","0.0-5.0-5.0-0.0","678.5","","","https://ziweizhang0304.github.io/Stats_learning_trig/img/Stim/FN_022_g.png","13","","","","","","","","","","","","","","","","","",""
"","animation","24","141665","0.0-5.0-5.0-1.0","","","","","","[{""stimulus"":""https://ziweizhang0304.github.io/Stats_learning_trig/img/Stim/FN_019_g.png"",""time"":341.19999980926514},{""stimulus"":""blank"",""time"":642.2999999523163},{""stimulus"":""https://ziweizhang0304.github.io/Stats_learning_trig/img/Stim/FN_015_g.png"",""time"":694.5999999046326},{""stimulus"":""blank"",""time"":998.0999999046326},{""stimulus"":""https://ziweizhang0304.github.io/Stats_learning_trig/img/Stim/FN_005_g.png"",""time"":1020.5999999046326},{""stimulus"":""blank"",""time"":1328.7999999523163},{""stimulus"":""https://ziweizhang0304.github.io/Stats_learning_trig/img/Stim/FN_022_g.png"",""time"":1361.8999998569489},{""stimulus"":""blank"",""time"":1665.7999999523163},{""stimulus"":""https://ziweizhang0304.github.io/Stats_learning_trig/img/Stim/FN_024_g.png"",""time"":1713.8999998569489},{""stimulus"":""blank"",""time"":2020.5999999046326},{""stimulus"":""https://ziweizhang0304.github.io/Stats_learning_trig/img/Stim/FN_025_g.png"",""time"":2040.5999999046326},{""stimulus"":""blank"",""time"":2342},{""stimulus"":""https://ziweizhang0304.github.io/Stats_learning_trig/img/Stim/FN_001_g.png"",""time"":2396.399999856949},{""stimulus"":""blank"",""time"":2697.7999999523163},{""stimulus"":""https://ziweizhang0304.github.io/Stats_learning_trig/img/Stim/FN_023_g.png"",""time"":2721.2999999523163},{""stimulus"":""blank"",""time"":3023.0999999046326},{""stimulus"":""https://ziweizhang0304.github.io/Stats_learning_trig/img/Stim/FN_004_g.png"",""time"":3080.899999856949},{""stimulus"":""blank"",""time"":3382.5},{""stimulus"":""https://ziweizhang0304.github.io/Stats_learning_trig/img/Stim/FN_017_g.png"",""time"":3402.199999809265},{""stimulus"":""blank"",""time"":3724.5},{""stimulus"":""https://ziweizhang0304.github.io/Stats_learning_trig/img/Stim/FN_016_g.png"",""time"":3740.699999809265},{""stimulus"":""blank"",""time"":4044.699999809265},{""stimulus"":""https://ziweizhang0304.github.io/Stats_learning_trig/img/Stim/FN_008_g.png"",""time"":4082.199999809265},{""stimulus"":""blank"",""time"":4397.899999856949}]","[{""key_press"":32,""rt"":1736.7999999523163,""stimulus"":""https://ziweizhang0304.github.io/Stats_learning_trig/img/Stim/FN_024_g.png""}]","374.90000009536743","https://ziweizhang0304.github.io/Stats_learning_trig/img/Stim/FN_022_g.png","post_TD","6","1361.8999998569489","1736.7999999523163","fast","4","1","60b4f4b34e71c30513ecc1f5","","","","","",""
"","image-keyboard-response","25","142416","0.0-5.0-6.0-0.0","749","","","https://ziweizhang0304.github.io/Stats_learning_trig/img/Stim/FN_024_g.png","13","","","","","","","","","","","","","","","","","",""
"","animation","26","146838","0.0-5.0-6.0-1.0","","","","","","[{""stimulus"":""https://ziweizhang0304.github.io/Stats_learning_trig/img/Stim/FN_008_g.png"",""time"":351.39999985694885},{""stimulus"":""blank"",""time"":652},{""stimulus"":""https://ziweizhang0304.github.io/Stats_learning_trig/img/Stim/FN_019_g.png"",""time"":683.0999999046326},{""stimulus"":""blank"",""time"":984.5999999046326},{""stimulus"":""https://ziweizhang0304.github.io/Stats_learning_trig/img/Stim/FN_005_g.png"",""time"":1021.3999998569489},{""stimulus"":""blank"",""time"":1336.3999998569489},{""stimulus"":""https://ziweizhang0304.github.io/Stats_learning_trig/img/Stim/FN_001_g.png"",""time"":1361.5},{""stimulus"":""blank"",""time"":1669.2000000476837},{""stimulus"":""https://ziweizhang0304.github.io/Stats_learning_trig/img/Stim/FN_023_g.png"",""time"":1701.5999999046326},{""stimulus"":""blank"",""time"":2018.7000000476837},{""stimulus"":""https://ziweizhang0304.github.io/Stats_learning_trig/img/Stim/FN_022_g.png"",""time"":2040.5},{""stimulus"":""blank"",""time"":2354.5999999046326},{""stimulus"":""https://ziweizhang0304.github.io/Stats_learning_trig/img/Stim/FN_024_g.png"",""time"":2381.7999999523163},{""stimulus"":""blank"",""time"":2685.2000000476837},{""stimulus"":""https://ziweizhang0304.github.io/Stats_learning_trig/img/Stim/FN_025_g.png"",""time"":2740.2999999523163},{""stimulus"":""blank"",""time"":3049},{""stimulus"":""https://ziweizhang0304.github.io/Stats_learning_trig/img/Stim/FN_004_g.png"",""time"":3061.5},{""stimulus"":""blank"",""time"":3372.2999999523163},{""stimulus"":""https://ziweizhang0304.github.io/Stats_learning_trig/img/Stim/FN_015_g.png"",""time"":3401},{""stimulus"":""blank"",""time"":3704.0999999046326},{""stimulus"":""https://ziweizhang0304.github.io/Stats_learning_trig/img/Stim/FN_017_g.png"",""time"":3740.7000000476837},{""stimulus"":""blank"",""time"":4058},{""stimulus"":""https://ziweizhang0304.github.io/Stats_learning_trig/img/Stim/FN_016_g.png"",""time"":4081.2000000476837},{""stimulus"":""blank"",""time"":4390.399999856949}]","[{""key_press"":32,""rt"":2684.9000000953674,""stimulus"":""https://ziweizhang0304.github.io/Stats_learning_trig/img/Stim/FN_024_g.png""}]","303.10000014305115","https://ziweizhang0304.github.io/Stats_learning_trig/img/Stim/FN_024_g.png","post_TD","7","2381.7999999523163","2684.9000000953674","fast","7","2","60b4f4b34e71c30513ecc1f5","","","","","",""
"","image-keyboard-response","27","147511","0.0-5.0-7.0-0.0","671.0999999046326","","","https://ziweizhang0304.github.io/Stats_learning_trig/img/Stim/FN_020_g.png","13","","","","","","","","","","","","","","","","","",""
"","animation","28","151932","0.0-5.0-7.0-1.0","","","","","","[{""stimulus"":""https://ziweizhang0304.github.io/Stats_learning_trig/img/Stim/FN_004_g.png"",""time"":343.09999990463257},{""stimulus"":""blank"",""time"":665.0999999046326},{""stimulus"":""https://ziweizhang0304.github.io/Stats_learning_trig/img/Stim/FN_008_g.png"",""time"":681.5},{""stimulus"":""blank"",""time"":981.5999999046326},{""stimulus"":""https://ziweizhang0304.github.io/Stats_learning_trig/img/Stim/FN_023_g.png"",""time"":1033.0999999046326},{""stimulus"":""blank"",""time"":1345.1999998092651},{""stimulus"":""https://ziweizhang0304.github.io/Stats_learning_trig/img/Stim/FN_006_g.png"",""time"":1361.7999999523163},{""stimulus"":""blank"",""time"":1690.2999999523163},{""stimulus"":""https://ziweizhang0304.github.io/Stats_learning_trig/img/Stim/FN_020_g.png"",""time"":1700.8999998569489},{""stimulus"":""blank"",""time"":2015.7999999523163},{""stimulus"":""https://ziweizhang0304.github.io/Stats_learning_trig/img/Stim/FN_010_g.png"",""time"":2042.2999999523163},{""stimulus"":""blank"",""time"":2347.5999999046326},{""stimulus"":""https://ziweizhang0304.github.io/Stats_learning_trig/img/Stim/FN_001_g.png"",""time"":2385.399999856949},{""stimulus"":""blank"",""time"":2685.7999999523163},{""stimulus"":""https://ziweizhang0304.github.io/Stats_learning_trig/img/Stim/FN_019_g.png"",""time"":2721.399999856949},{""stimulus"":""blank"",""time"":3033},{""stimulus"":""https://ziweizhang0304.github.io/Stats_learning_trig/img/Stim/FN_015_g.png"",""time"":3060.7999999523163},{""stimulus"":""blank"",""time"":3371.199999809265},{""stimulus"":""https://ziweizhang0304.github.io/Stats_learning_trig/img/Stim/FN_017_g.png"",""time"":3400.7999999523163},{""stimulus"":""blank"",""time"":3703.0999999046326},{""stimulus"":""https://ziweizhang0304.github.io/Stats_learning_trig/img/Stim/FN_005_g.png"",""time"":3740.5},{""stimulus"":""blank"",""time"":4051},{""stimulus"":""https://ziweizhang0304.github.io/Stats_learning_trig/img/Stim/FN_016_g.png"",""time"":4081.899999856949},{""stimulus"":""blank"",""time"":4388.699999809265}]","[{""key_press"":32,""rt"":2073.2000000476837,""stimulus"":""https://ziweizhang0304.github.io/Stats_learning_trig/img/Stim/FN_010_g.png""}]","372.30000019073486","https://ziweizhang0304.github.io/Stats_learning_trig/img/Stim/FN_020_g.png","post_TD","8","1700.8999998569489","2073.2000000476837","slow","5","2","60b4f4b34e71c30513ecc1f5","","","","","",""
"","image-keyboard-response","29","152347","0.0-5.0-8.0-0.0","414.2000000476837","","","https://ziweizhang0304.github.io/Stats_learning_trig/img/Stim/FN_025_g.png","13","","","","","","","","","","","","","","","","","",""
"","animation","30","156768","0.0-5.0-8.0-1.0","","","","","","[{""stimulus"":""https://ziweizhang0304.github.io/Stats_learning_trig/img/Stim/FN_005_g.png"",""time"":354.59999990463257},{""stimulus"":""blank"",""time"":654.9000000953674},{""stimulus"":""https://ziweizhang0304.github.io/Stats_learning_trig/img/Stim/FN_001_g.png"",""time"":680.7000000476837},{""stimulus"":""blank"",""time"":987.0999999046326},{""stimulus"":""https://ziweizhang0304.github.io/Stats_learning_trig/img/Stim/FN_019_g.png"",""time"":1021.0999999046326},{""stimulus"":""blank"",""time"":1340.9000000953674},{""stimulus"":""https://ziweizhang0304.github.io/Stats_learning_trig/img/Stim/FN_016_g.png"",""time"":1360.5},{""stimulus"":""blank"",""time"":1672.7000000476837},{""stimulus"":""https://ziweizhang0304.github.io/Stats_learning_trig/img/Stim/FN_022_g.png"",""time"":1700.7000000476837},{""stimulus"":""blank"",""time"":2004.7000000476837},{""stimulus"":""https://ziweizhang0304.github.io/Stats_learning_trig/img/Stim/FN_024_g.png"",""time"":2051.5},{""stimulus"":""blank"",""time"":2358.2000000476837},{""stimulus"":""https://ziweizhang0304.github.io/Stats_learning_trig/img/Stim/FN_025_g.png"",""time"":2381},{""stimulus"":""blank"",""time"":2687.0999999046326},{""stimulus"":""https://ziweizhang0304.github.io/Stats_learning_trig/img/Stim/FN_023_g.png"",""time"":2720.7999999523163},{""stimulus"":""blank"",""time"":3043.4000000953674},{""stimulus"":""https://ziweizhang0304.github.io/Stats_learning_trig/img/Stim/FN_004_g.png"",""time"":3061.4000000953674},{""stimulus"":""blank"",""time"":3375.2999999523163},{""stimulus"":""https://ziweizhang0304.github.io/Stats_learning_trig/img/Stim/FN_015_g.png"",""time"":3401.0999999046326},{""stimulus"":""blank"",""time"":3706.5999999046326},{""stimulus"":""https://ziweizhang0304.github.io/Stats_learning_trig/img/Stim/FN_017_g.png"",""time"":3740.9000000953674},{""stimulus"":""blank"",""time"":4045.2999999523163},{""stimulus"":""https://ziweizhang0304.github.io/Stats_learning_trig/img/Stim/FN_008_g.png"",""time"":4081.0999999046326},{""stimulus"":""blank"",""time"":4393.599999904633}]","[{""key_press"":32,""rt"":2593.100000143051,""stimulus"":""https://ziweizhang0304.github.io/Stats_learning_trig/img/Stim/FN_025_g.png""}]","212.10000014305115","https://ziweizhang0304.github.io/Stats_learning_trig/img/Stim/FN_025_g.png","post_TD","9","2381","2593.100000143051","fast","7","3","60b4f4b34e71c30513ecc1f5","","","","","",""
"","image-keyboard-response","31","157134","0.0-5.0-9.0-0.0","363.7999999523163","","","https://ziweizhang0304.github.io/Stats_learning_trig/img/Stim/FN_006_g.png","13","","","","","","","","","","","","","","","","","",""
"","animation","32","161556","0.0-5.0-9.0-1.0","","","","","","[{""stimulus"":""https://ziweizhang0304.github.io/Stats_learning_trig/img/Stim/FN_017_g.png"",""time"":362.09999990463257},{""stimulus"":""blank"",""time"":675.5999999046326},{""stimulus"":""https://ziweizhang0304.github.io/Stats_learning_trig/img/Stim/FN_001_g.png"",""time"":681.5},{""stimulus"":""blank"",""time"":992.0999999046326},{""stimulus"":""https://ziweizhang0304.github.io/Stats_learning_trig/img/Stim/FN_004_g.png"",""time"":1020.8999998569489},{""stimulus"":""blank"",""time"":1323.7999999523163},{""stimulus"":""https://ziweizhang0304.github.io/Stats_learning_trig/img/Stim/FN_015_g.png"",""time"":1369.8999998569489},{""stimulus"":""blank"",""time"":1677.6999998092651},{""stimulus"":""https://ziweizhang0304.github.io/Stats_learning_trig/img/Stim/FN_005_g.png"",""time"":1701.3999998569489},{""stimulus"":""blank"",""time"":2010.0999999046326},{""stimulus"":""https://ziweizhang0304.github.io/Stats_learning_trig/img/Stim/FN_016_g.png"",""time"":2041},{""stimulus"":""blank"",""time"":2342},{""stimulus"":""https://ziweizhang0304.github.io/Stats_learning_trig/img/Stim/FN_006_g.png"",""time"":2380.699999809265},{""stimulus"":""blank"",""time"":2695.399999856949},{""stimulus"":""https://ziweizhang0304.github.io/Stats_learning_trig/img/Stim/FN_020_g.png"",""time"":2721.2999999523163},{""stimulus"":""blank"",""time"":3026.899999856949},{""stimulus"":""https://ziweizhang0304.github.io/Stats_learning_trig/img/Stim/FN_010_g.png"",""time"":3088},{""stimulus"":""blank"",""time"":3395.5999999046326},{""stimulus"":""https://ziweizhang0304.github.io/Stats_learning_trig/img/Stim/FN_023_g.png"",""time"":3401.5999999046326},{""stimulus"":""blank"",""time"":3716},{""stimulus"":""https://ziweizhang0304.github.io/Stats_learning_trig/img/Stim/FN_019_g.png"",""time"":3741.5},{""stimulus"":""blank"",""time"":4043.5},{""stimulus"":""https://ziweizhang0304.github.io/Stats_learning_trig/img/Stim/FN_008_g.png"",""time"":4080.699999809265},{""stimulus"":""blank"",""time"":4396.799999952316}]","[{""key_press"":32,""rt"":2697.0999999046326,""stimulus"":""blank""}]","316.40000009536743","https://ziweizhang0304.github.io/Stats_learning_trig/img/Stim/FN_006_g.png","post_TD","10","2380.699999809265","2697.0999999046326","slow","7","1","60b4f4b34e71c30513ecc1f5","","","","","",""
"","image-keyboard-response","33","162137","0.0-5.0-10.0-0.0","579.6000001430511","","","https://ziweizhang0304.github.io/Stats_learning_trig/img/Stim/FN_010_g.png","13","","","","","","","","","","","","","","","","","",""
"","animation","34","166557","0.0-5.0-10.0-1.0","","","","","","[{""stimulus"":""https://ziweizhang0304.github.io/Stats_learning_trig/img/Stim/FN_017_g.png"",""time"":346.09999990463257},{""stimulus"":""blank"",""time"":665.7000000476837},{""stimulus"":""https://ziweizhang0304.github.io/Stats_learning_trig/img/Stim/FN_001_g.png"",""time"":681.5999999046326},{""stimulus"":""blank"",""time"":982.0999999046326},{""stimulus"":""https://ziweizhang0304.github.io/Stats_learning_trig/img/Stim/FN_004_g.png"",""time"":1020.7000000476837},{""stimulus"":""blank"",""time"":1332},{""stimulus"":""https://ziweizhang0304.github.io/Stats_learning_trig/img/Stim/FN_015_g.png"",""time"":1360.5},{""stimulus"":""blank"",""time"":1666.7999999523163},{""stimulus"":""https://ziweizhang0304.github.io/Stats_learning_trig/img/Stim/FN_005_g.png"",""time"":1701.2999999523163},{""stimulus"":""blank"",""time"":2014.3999998569489},{""stimulus"":""https://ziweizhang0304.github.io/Stats_learning_trig/img/Stim/FN_016_g.png"",""time"":2041.0999999046326},{""stimulus"":""blank"",""time"":2346.399999856949},{""stimulus"":""https://ziweizhang0304.github.io/Stats_learning_trig/img/Stim/FN_006_g.png"",""time"":2381.7000000476837},{""stimulus"":""blank"",""time"":2684.5},{""stimulus"":""https://ziweizhang0304.github.io/Stats_learning_trig/img/Stim/FN_020_g.png"",""time"":2721},{""stimulus"":""blank"",""time"":3031.5999999046326},{""stimulus"":""https://ziweizhang0304.github.io/Stats_learning_trig/img/Stim/FN_010_g.png"",""time"":3062.7999999523163},{""stimulus"":""blank"",""time"":3370.0999999046326},{""stimulus"":""https://ziweizhang0304.github.io/Stats_learning_trig/img/Stim/FN_023_g.png"",""time"":3400.7999999523163},{""stimulus"":""blank"",""time"":3702.899999856949},{""stimulus"":""https://ziweizhang0304.github.io/Stats_learning_trig/img/Stim/FN_019_g.png"",""time"":3740.5},{""stimulus"":""blank"",""time"":4047.2999999523163},{""stimulus"":""https://ziweizhang0304.github.io/Stats_learning_trig/img/Stim/FN_008_g.png"",""time"":4090.7999999523163},{""stimulus"":""blank"",""time"":4392.5}]","[{""key_press"":32,""rt"":3466.0999999046326,""stimulus"":""https://ziweizhang0304.github.io/Stats_learning_trig/img/Stim/FN_023_g.png""}]","403.2999999523163","https://ziweizhang0304.github.io/Stats_learning_trig/img/Stim/FN_010_g.png","post_TD","11","3062.7999999523163","3466.0999999046326","slow","9","3","60b4f4b34e71c30513ecc1f5","","","","","",""
"","image-keyboard-response","35","167279","0.0-5.0-11.0-0.0","720.7999999523163","","","https://ziweizhang0304.github.io/Stats_learning_trig/img/Stim/FN_024_g.png","13","","","","","","","","","","","","","","","","","",""
"","animation","36","171702","0.0-5.0-11.0-1.0","","","","","","[{""stimulus"":""https://ziweizhang0304.github.io/Stats_learning_trig/img/Stim/FN_015_g.png"",""time"":341.40000009536743},{""stimulus"":""blank"",""time"":643},{""stimulus"":""https://ziweizhang0304.github.io/Stats_learning_trig/img/Stim/FN_005_g.png"",""time"":700.3000001907349},{""stimulus"":""blank"",""time"":1003},{""stimulus"":""https://ziweizhang0304.github.io/Stats_learning_trig/img/Stim/FN_016_g.png"",""time"":1022},{""stimulus"":""blank"",""time"":1331.4000000953674},{""stimulus"":""https://ziweizhang0304.github.io/Stats_learning_trig/img/Stim/FN_017_g.png"",""time"":1362.3000001907349},{""stimulus"":""blank"",""time"":1676.2000000476837},{""stimulus"":""https://ziweizhang0304.github.io/Stats_learning_trig/img/Stim/FN_001_g.png"",""time"":1700.9000000953674},{""stimulus"":""blank"",""time"":2010.7000000476837},{""stimulus"":""https://ziweizhang0304.github.io/Stats_learning_trig/img/Stim/FN_008_g.png"",""time"":2041.5},{""stimulus"":""blank"",""time"":2349.100000143051},{""stimulus"":""https://ziweizhang0304.github.io/Stats_learning_trig/img/Stim/FN_022_g.png"",""time"":2381.2000000476837},{""stimulus"":""blank"",""time"":2696.5},{""stimulus"":""https://ziweizhang0304.github.io/Stats_learning_trig/img/Stim/FN_024_g.png"",""time"":2721.7000000476837},{""stimulus"":""blank"",""time"":3034.2000000476837},{""stimulus"":""https://ziweizhang0304.github.io/Stats_learning_trig/img/Stim/FN_025_g.png"",""time"":3061.100000143051},{""stimulus"":""blank"",""time"":3366.300000190735},{""stimulus"":""https://ziweizhang0304.github.io/Stats_learning_trig/img/Stim/FN_023_g.png"",""time"":3400.9000000953674},{""stimulus"":""blank"",""time"":3716.600000143051},{""stimulus"":""https://ziweizhang0304.github.io/Stats_learning_trig/img/Stim/FN_019_g.png"",""time"":3747.600000143051},{""stimulus"":""blank"",""time"":4052.2000000476837},{""stimulus"":""https://ziweizhang0304.github.io/Stats_learning_trig/img/Stim/FN_004_g.png"",""time"":4084.9000000953674},{""stimulus"":""blank"",""time"":4399.400000095367}]","[{""key_press"":32,""rt"":3051.9000000953674,""stimulus"":""blank""}]","330.2000000476837","https://ziweizhang0304.github.io/Stats_learning_trig/img/Stim/FN_024_g.png","post_TD","12","2721.7000000476837","3051.9000000953674","fast","8","2","60b4f4b34e71c30513ecc1f5","","","","","",""
"","image-keyboard-response","37","172283","0.0-5.0-12.0-0.0","576.7999999523163","","","https://ziweizhang0304.github.io/Stats_learning_trig/img/Stim/FN_022_g.png","13","","","","","","","","","","","","","","","","","",""
"","animation","38","176718","0.0-5.0-12.0-1.0","","","","","","[{""stimulus"":""https://ziweizhang0304.github.io/Stats_learning_trig/img/Stim/FN_015_g.png"",""time"":350.10000014305115},{""stimulus"":""blank"",""time"":666},{""stimulus"":""https://ziweizhang0304.github.io/Stats_learning_trig/img/Stim/FN_005_g.png"",""time"":680.6000001430511},{""stimulus"":""blank"",""time"":982},{""stimulus"":""https://ziweizhang0304.github.io/Stats_learning_trig/img/Stim/FN_016_g.png"",""time"":1029.9000000953674},{""stimulus"":""blank"",""time"":1336.2000000476837},{""stimulus"":""https://ziweizhang0304.github.io/Stats_learning_trig/img/Stim/FN_017_g.png"",""time"":1360.7000000476837},{""stimulus"":""blank"",""time"":1668.1000001430511},{""stimulus"":""https://ziweizhang0304.github.io/Stats_learning_trig/img/Stim/FN_001_g.png"",""time"":1701.5},{""stimulus"":""blank"",""time"":2008.7000000476837},{""stimulus"":""https://ziweizhang0304.github.io/Stats_learning_trig/img/Stim/FN_008_g.png"",""time"":2041.5},{""stimulus"":""blank"",""time"":2351.4000000953674},{""stimulus"":""https://ziweizhang0304.github.io/Stats_learning_trig/img/Stim/FN_022_g.png"",""time"":2380.5},{""stimulus"":""blank"",""time"":2681.7000000476837},{""stimulus"":""https://ziweizhang0304.github.io/Stats_learning_trig/img/Stim/FN_024_g.png"",""time"":2732.600000143051},{""stimulus"":""blank"",""time"":3041.600000143051},{""stimulus"":""https://ziweizhang0304.github.io/Stats_learning_trig/img/Stim/FN_025_g.png"",""time"":3060.9000000953674},{""stimulus"":""blank"",""time"":3363.7000000476837},{""stimulus"":""https://ziweizhang0304.github.io/Stats_learning_trig/img/Stim/FN_023_g.png"",""time"":3401.7000000476837},{""stimulus"":""blank"",""time"":3717.2999999523163},{""stimulus"":""https://ziweizhang0304.github.io/Stats_learning_trig/img/Stim/FN_019_g.png"",""time"":3752.2999999523163},{""stimulus"":""blank"",""time"":4055.5},{""stimulus"":""https://ziweizhang0304.github.io/Stats_learning_trig/img/Stim/FN_004_g.png"",""time"":4081.2000000476837},{""stimulus"":""blank"",""time"":4387.400000095367}]","[{""key_press"":32,""rt"":2718.2999999523163,""stimulus"":""blank""}]","337.7999999523163","https://ziweizhang0304.github.io/Stats_learning_trig/img/Stim/FN_022_g.png","post_TD","13","2380.5","2718.2999999523163","fast","7","1","60b4f4b34e71c30513ecc1f5","","","","","",""
"","image-keyboard-response","39","177373","0.0-5.0-13.0-0.0","653.7000000476837","","","https://ziweizhang0304.github.io/Stats_learning_trig/img/Stim/FN_024_g.png","13","","","","","","","","","","","","","","","","","",""
"","animation","40","181795","0.0-5.0-13.0-1.0","","","","","","[{""stimulus"":""https://ziweizhang0304.github.io/Stats_learning_trig/img/Stim/FN_019_g.png"",""time"":354.7000000476837},{""stimulus"":""blank"",""time"":670.2000000476837},{""stimulus"":""https://ziweizhang0304.github.io/Stats_learning_trig/img/Stim/FN_015_g.png"",""time"":680.7000000476837},{""stimulus"":""blank"",""time"":991.0999999046326},{""stimulus"":""https://ziweizhang0304.github.io/Stats_learning_trig/img/Stim/FN_005_g.png"",""time"":1021.5},{""stimulus"":""blank"",""time"":1333.5},{""stimulus"":""https://ziweizhang0304.github.io/Stats_learning_trig/img/Stim/FN_022_g.png"",""time"":1361.0999999046326},{""stimulus"":""blank"",""time"":1671.3999998569489},{""stimulus"":""https://ziweizhang0304.github.io/Stats_learning_trig/img/Stim/FN_024_g.png"",""time"":1701.3999998569489},{""stimulus"":""blank"",""time"":2002.7000000476837},{""stimulus"":""https://ziweizhang0304.github.io/Stats_learning_trig/img/Stim/FN_025_g.png"",""time"":2048.5},{""stimulus"":""blank"",""time"":2357.5999999046326},{""stimulus"":""https://ziweizhang0304.github.io/Stats_learning_trig/img/Stim/FN_001_g.png"",""time"":2381.2000000476837},{""stimulus"":""blank"",""time"":2688.7999999523163},{""stimulus"":""https://ziweizhang0304.github.io/Stats_learning_trig/img/Stim/FN_023_g.png"",""time"":2733.5},{""stimulus"":""blank"",""time"":3036.2999999523163},{""stimulus"":""https://ziweizhang0304.github.io/Stats_learning_trig/img/Stim/FN_004_g.png"",""time"":3060.899999856949},{""stimulus"":""blank"",""time"":3374.7999999523163},{""stimulus"":""https://ziweizhang0304.github.io/Stats_learning_trig/img/Stim/FN_017_g.png"",""time"":3401.2999999523163},{""stimulus"":""blank"",""time"":3707},{""stimulus"":""https://ziweizhang0304.github.io/Stats_learning_trig/img/Stim/FN_016_g.png"",""time"":3768.399999856949},{""stimulus"":""blank"",""time"":4077.5},{""stimulus"":""https://ziweizhang0304.github.io/Stats_learning_trig/img/Stim/FN_008_g.png"",""time"":4081.399999856949},{""stimulus"":""blank"",""time"":4393.799999952316}]","[{""key_press"":32,""rt"":2059.2999999523163,""stimulus"":""https://ziweizhang0304.github.io/Stats_learning_trig/img/Stim/FN_025_g.png""}]","357.90000009536743","https://ziweizhang0304.github.io/Stats_learning_trig/img/Stim/FN_024_g.png","post_TD","14","1701.3999998569489","2059.2999999523163","fast","5","2","60b4f4b34e71c30513ecc1f5","","","","","",""
"","image-keyboard-response","41","182643","0.0-5.0-14.0-0.0","846.5999999046326","","","https://ziweizhang0304.github.io/Stats_learning_trig/img/Stim/FN_010_g.png","13","","","","","","","","","","","","","","","","","",""
"","animation","42","187064","0.0-5.0-14.0-1.0","","","","","","[{""stimulus"":""https://ziweizhang0304.github.io/Stats_learning_trig/img/Stim/FN_004_g.png"",""time"":343},{""stimulus"":""blank"",""time"":658.5},{""stimulus"":""https://ziweizhang0304.github.io/Stats_learning_trig/img/Stim/FN_008_g.png"",""time"":681.4000000953674},{""stimulus"":""blank"",""time"":990.6000001430511},{""stimulus"":""https://ziweizhang0304.github.io/Stats_learning_trig/img/Stim/FN_023_g.png"",""time"":1020.5},{""stimulus"":""blank"",""time"":1327.6000001430511},{""stimulus"":""https://ziweizhang0304.github.io/Stats_learning_trig/img/Stim/FN_006_g.png"",""time"":1361.2000000476837},{""stimulus"":""blank"",""time"":1675.2000000476837},{""stimulus"":""https://ziweizhang0304.github.io/Stats_learning_trig/img/Stim/FN_020_g.png"",""time"":1702.5},{""stimulus"":""blank"",""time"":2013.5},{""stimulus"":""https://ziweizhang0304.github.io/Stats_learning_trig/img/Stim/FN_010_g.png"",""time"":2044.9000000953674},{""stimulus"":""blank"",""time"":2345.7999999523163},{""stimulus"":""https://ziweizhang0304.github.io/Stats_learning_trig/img/Stim/FN_001_g.png"",""time"":2403.100000143051},{""stimulus"":""blank"",""time"":2715.2000000476837},{""stimulus"":""https://ziweizhang0304.github.io/Stats_learning_trig/img/Stim/FN_019_g.png"",""time"":2722},{""stimulus"":""blank"",""time"":3031.7000000476837},{""stimulus"":""https://ziweizhang0304.github.io/Stats_learning_trig/img/Stim/FN_015_g.png"",""time"":3060.7000000476837},{""stimulus"":""blank"",""time"":3363.600000143051},{""stimulus"":""https://ziweizhang0304.github.io/Stats_learning_trig/img/Stim/FN_017_g.png"",""time"":3420.100000143051},{""stimulus"":""blank"",""time"":3733.9000000953674},{""stimulus"":""https://ziweizhang0304.github.io/Stats_learning_trig/img/Stim/FN_005_g.png"",""time"":3741.7000000476837},{""stimulus"":""blank"",""time"":4049.9000000953674},{""stimulus"":""https://ziweizhang0304.github.io/Stats_learning_trig/img/Stim/FN_016_g.png"",""time"":4080.600000143051},{""stimulus"":""blank"",""time"":4381.5}]","[{""key_press"":32,""rt"":2426.7999999523163,""stimulus"":""https://ziweizhang0304.github.io/Stats_learning_trig/img/Stim/FN_001_g.png""}]","381.89999985694885","https://ziweizhang0304.github.io/Stats_learning_trig/img/Stim/FN_010_g.png","post_TD","15","2044.9000000953674","2426.7999999523163","slow","6","3","60b4f4b34e71c30513ecc1f5","","","","","",""
"","image-keyboard-response","43","187624","0.0-5.0-15.0-0.0","558.7000000476837","","","https://ziweizhang0304.github.io/Stats_learning_trig/img/Stim/FN_022_g.png","13","","","","","","","","","","","","","","","","","",""
"","animation","44","192048","0.0-5.0-15.0-1.0","","","","","","[{""stimulus"":""https://ziweizhang0304.github.io/Stats_learning_trig/img/Stim/FN_005_g.png"",""time"":354.7000000476837},{""stimulus"":""blank"",""time"":655},{""stimulus"":""https://ziweizhang0304.github.io/Stats_learning_trig/img/Stim/FN_001_g.png"",""time"":682.5},{""stimulus"":""blank"",""time"":987.2999999523163},{""stimulus"":""https://ziweizhang0304.github.io/Stats_learning_trig/img/Stim/FN_019_g.png"",""time"":1025.7999999523163},{""stimulus"":""blank"",""time"":1326},{""stimulus"":""https://ziweizhang0304.github.io/Stats_learning_trig/img/Stim/FN_016_g.png"",""time"":1361.5},{""stimulus"":""blank"",""time"":1673.7000000476837},{""stimulus"":""https://ziweizhang0304.github.io/Stats_learning_trig/img/Stim/FN_022_g.png"",""time"":1705.6000001430511},{""stimulus"":""blank"",""time"":2006.6000001430511},{""stimulus"":""https://ziweizhang0304.github.io/Stats_learning_trig/img/Stim/FN_024_g.png"",""time"":2041.4000000953674},{""stimulus"":""blank"",""time"":2345},{""stimulus"":""https://ziweizhang0304.github.io/Stats_learning_trig/img/Stim/FN_025_g.png"",""time"":2381},{""stimulus"":""blank"",""time"":2692},{""stimulus"":""https://ziweizhang0304.github.io/Stats_learning_trig/img/Stim/FN_023_g.png"",""time"":2722.5},{""stimulus"":""blank"",""time"":3030.600000143051},{""stimulus"":""https://ziweizhang0304.github.io/Stats_learning_trig/img/Stim/FN_004_g.png"",""time"":3061},{""stimulus"":""blank"",""time"":3362.2999999523163},{""stimulus"":""https://ziweizhang0304.github.io/Stats_learning_trig/img/Stim/FN_015_g.png"",""time"":3407.600000143051},{""stimulus"":""blank"",""time"":3709.5},{""stimulus"":""https://ziweizhang0304.github.io/Stats_learning_trig/img/Stim/FN_017_g.png"",""time"":3744},{""stimulus"":""blank"",""time"":4047.2999999523163},{""stimulus"":""https://ziweizhang0304.github.io/Stats_learning_trig/img/Stim/FN_008_g.png"",""time"":4094.5},{""stimulus"":""blank"",""time"":4395}]","[{""key_press"":32,""rt"":2103.7999999523163,""stimulus"":""https://ziweizhang0304.github.io/Stats_learning_trig/img/Stim/FN_024_g.png""}]","398.19999980926514","https://ziweizhang0304.github.io/Stats_learning_trig/img/Stim/FN_022_g.png","post_TD","16","1705.6000001430511","2103.7999999523163","fast","5","1","60b4f4b34e71c30513ecc1f5","","","","","",""
"","image-keyboard-response","45","192741","0.0-5.0-16.0-0.0","691.8999998569489","","","https://ziweizhang0304.github.io/Stats_learning_trig/img/Stim/FN_025_g.png","13","","","","","","","","","","","","","","","","","",""
"","animation","46","197163","0.0-5.0-16.0-1.0","","","","","","[{""stimulus"":""https://ziweizhang0304.github.io/Stats_learning_trig/img/Stim/FN_019_g.png"",""time"":341.2000000476837},{""stimulus"":""blank"",""time"":642},{""stimulus"":""https://ziweizhang0304.github.io/Stats_learning_trig/img/Stim/FN_015_g.png"",""time"":682.0999999046326},{""stimulus"":""blank"",""time"":992.7999999523163},{""stimulus"":""https://ziweizhang0304.github.io/Stats_learning_trig/img/Stim/FN_005_g.png"",""time"":1023},{""stimulus"":""blank"",""time"":1324},{""stimulus"":""https://ziweizhang0304.github.io/Stats_learning_trig/img/Stim/FN_022_g.png"",""time"":1382.2000000476837},{""stimulus"":""blank"",""time"":1683},{""stimulus"":""https://ziweizhang0304.github.io/Stats_learning_trig/img/Stim/FN_024_g.png"",""time"":1701.5},{""stimulus"":""blank"",""time"":2014.0999999046326},{""stimulus"":""https://ziweizhang0304.github.io/Stats_learning_trig/img/Stim/FN_025_g.png"",""time"":2042.2000000476837},{""stimulus"":""blank"",""time"":2342.7999999523163},{""stimulus"":""https://ziweizhang0304.github.io/Stats_learning_trig/img/Stim/FN_001_g.png"",""time"":2401.5999999046326},{""stimulus"":""blank"",""time"":2723.7000000476837},{""stimulus"":""https://ziweizhang0304.github.io/Stats_learning_trig/img/Stim/FN_023_g.png"",""time"":2724},{""stimulus"":""blank"",""time"":3040},{""stimulus"":""https://ziweizhang0304.github.io/Stats_learning_trig/img/Stim/FN_004_g.png"",""time"":3061.0999999046326},{""stimulus"":""blank"",""time"":3371.2999999523163},{""stimulus"":""https://ziweizhang0304.github.io/Stats_learning_trig/img/Stim/FN_017_g.png"",""time"":3401.0999999046326},{""stimulus"":""blank"",""time"":3703},{""stimulus"":""https://ziweizhang0304.github.io/Stats_learning_trig/img/Stim/FN_016_g.png"",""time"":3749.5},{""stimulus"":""blank"",""time"":4057.399999856949},{""stimulus"":""https://ziweizhang0304.github.io/Stats_learning_trig/img/Stim/FN_008_g.png"",""time"":4080.399999856949},{""stimulus"":""blank"",""time"":4389.200000047684}]","[{""key_press"":32,""rt"":2329.9000000953674,""stimulus"":""https://ziweizhang0304.github.io/Stats_learning_trig/img/Stim/FN_025_g.png""}]","287.7000000476837","https://ziweizhang0304.github.io/Stats_learning_trig/img/Stim/FN_025_g.png","post_TD","17","2042.2000000476837","2329.9000000953674","fast","6","3","60b4f4b34e71c30513ecc1f5","","","","","",""
"","image-keyboard-response","47","199062","0.0-5.0-17.0-0.0","1898.2999999523163","","","https://ziweizhang0304.github.io/Stats_learning_trig/img/Stim/FN_025_g.png","13","","","","","","","","","","","","","","","","","",""
"","animation","48","203483","0.0-5.0-17.0-1.0","","","","","","[{""stimulus"":""https://ziweizhang0304.github.io/Stats_learning_trig/img/Stim/FN_008_g.png"",""time"":342.90000009536743},{""stimulus"":""blank"",""time"":643.2000000476837},{""stimulus"":""https://ziweizhang0304.github.io/Stats_learning_trig/img/Stim/FN_019_g.png"",""time"":680.7999999523163},{""stimulus"":""blank"",""time"":991.4000000953674},{""stimulus"":""https://ziweizhang0304.github.io/Stats_learning_trig/img/Stim/FN_005_g.png"",""time"":1020.5},{""stimulus"":""blank"",""time"":1329.1000001430511},{""stimulus"":""https://ziweizhang0304.github.io/Stats_learning_trig/img/Stim/FN_001_g.png"",""time"":1368},{""stimulus"":""blank"",""time"":1676},{""stimulus"":""https://ziweizhang0304.github.io/Stats_learning_trig/img/Stim/FN_023_g.png"",""time"":1700.7000000476837},{""stimulus"":""blank"",""time"":2014.2000000476837},{""stimulus"":""https://ziweizhang0304.github.io/Stats_learning_trig/img/Stim/FN_022_g.png"",""time"":2042},{""stimulus"":""blank"",""time"":2345.7000000476837},{""stimulus"":""https://ziweizhang0304.github.io/Stats_learning_trig/img/Stim/FN_024_g.png"",""time"":2381.7000000476837},{""stimulus"":""blank"",""time"":2693.100000143051},{""stimulus"":""https://ziweizhang0304.github.io/Stats_learning_trig/img/Stim/FN_025_g.png"",""time"":2721.100000143051},{""stimulus"":""blank"",""time"":3032.100000143051},{""stimulus"":""https://ziweizhang0304.github.io/Stats_learning_trig/img/Stim/FN_004_g.png"",""time"":3062.5},{""stimulus"":""blank"",""time"":3363.5},{""stimulus"":""https://ziweizhang0304.github.io/Stats_learning_trig/img/Stim/FN_015_g.png"",""time"":3402.100000143051},{""stimulus"":""blank"",""time"":3717.2000000476837},{""stimulus"":""https://ziweizhang0304.github.io/Stats_learning_trig/img/Stim/FN_017_g.png"",""time"":3742},{""stimulus"":""blank"",""time"":4048.9000000953674},{""stimulus"":""https://ziweizhang0304.github.io/Stats_learning_trig/img/Stim/FN_016_g.png"",""time"":4081.600000143051},{""stimulus"":""blank"",""time"":4396.400000095367}]","[{""key_press"":32,""rt"":2697.7999999523163,""stimulus"":""blank""}]","NaN","https://ziweizhang0304.github.io/Stats_learning_trig/img/Stim/FN_025_g.png","post_TD","18","2721.100000143051","","fast","8","3","60b4f4b34e71c30513ecc1f5","","","","","",""
"","image-keyboard-response","49","207347","0.0-5.0-18.0-0.0","3862.7000000476837","","","https://ziweizhang0304.github.io/Stats_learning_trig/img/Stim/FN_020_g.png","13","","","","","","","","","","","","","","","","","",""
"","animation","50","211768","0.0-5.0-18.0-1.0","","","","","","[{""stimulus"":""https://ziweizhang0304.github.io/Stats_learning_trig/img/Stim/FN_017_g.png"",""time"":344.90000009536743},{""stimulus"":""blank"",""time"":655},{""stimulus"":""https://ziweizhang0304.github.io/Stats_learning_trig/img/Stim/FN_001_g.png"",""time"":688},{""stimulus"":""blank"",""time"":992.2000000476837},{""stimulus"":""https://ziweizhang0304.github.io/Stats_learning_trig/img/Stim/FN_004_g.png"",""time"":1021},{""stimulus"":""blank"",""time"":1324.3000001907349},{""stimulus"":""https://ziweizhang0304.github.io/Stats_learning_trig/img/Stim/FN_015_g.png"",""time"":1370.6000001430511},{""stimulus"":""blank"",""time"":1678},{""stimulus"":""https://ziweizhang0304.github.io/Stats_learning_trig/img/Stim/FN_005_g.png"",""time"":1701.6000001430511},{""stimulus"":""blank"",""time"":2010.2000000476837},{""stimulus"":""https://ziweizhang0304.github.io/Stats_learning_trig/img/Stim/FN_016_g.png"",""time"":2041.3000001907349},{""stimulus"":""blank"",""time"":2348},{""stimulus"":""https://ziweizhang0304.github.io/Stats_learning_trig/img/Stim/FN_006_g.png"",""time"":2381.600000143051},{""stimulus"":""blank"",""time"":2695.100000143051},{""stimulus"":""https://ziweizhang0304.github.io/Stats_learning_trig/img/Stim/FN_020_g.png"",""time"":2722.100000143051},{""stimulus"":""blank"",""time"":3027.300000190735},{""stimulus"":""https://ziweizhang0304.github.io/Stats_learning_trig/img/Stim/FN_010_g.png"",""time"":3073.5},{""stimulus"":""blank"",""time"":3381.100000143051},{""stimulus"":""https://ziweizhang0304.github.io/Stats_learning_trig/img/Stim/FN_023_g.png"",""time"":3401.2000000476837},{""stimulus"":""blank"",""time"":3712.5},{""stimulus"":""https://ziweizhang0304.github.io/Stats_learning_trig/img/Stim/FN_019_g.png"",""time"":3742.100000143051},{""stimulus"":""blank"",""time"":4051},{""stimulus"":""https://ziweizhang0304.github.io/Stats_learning_trig/img/Stim/FN_008_g.png"",""time"":4082.4000000953674},{""stimulus"":""blank"",""time"":4382.700000047684}]","[{""key_press"":32,""rt"":3123.7000000476837,""stimulus"":""https://ziweizhang0304.github.io/Stats_learning_trig/img/Stim/FN_010_g.png""}]","401.59999990463257","https://ziweizhang0304.github.io/Stats_learning_trig/img/Stim/FN_020_g.png","post_TD","19","2722.100000143051","3123.7000000476837","slow","8","2","60b4f4b34e71c30513ecc1f5","","","","","",""
"","image-keyboard-response","51","212641","0.0-5.0-19.0-0.0","871.5999999046326","","","https://ziweizhang0304.github.io/Stats_learning_trig/img/Stim/FN_020_g.png","13","","","","","","","","","","","","","","","","","",""
"","animation","52","217063","0.0-5.0-19.0-1.0","","","","","","[{""stimulus"":""https://ziweizhang0304.github.io/Stats_learning_trig/img/Stim/FN_008_g.png"",""time"":359.40000009536743},{""stimulus"":""blank"",""time"":669.2000000476837},{""stimulus"":""https://ziweizhang0304.github.io/Stats_learning_trig/img/Stim/FN_016_g.png"",""time"":682.2999999523163},{""stimulus"":""blank"",""time"":991.5},{""stimulus"":""https://ziweizhang0304.github.io/Stats_learning_trig/img/Stim/FN_023_g.png"",""time"":1021.4000000953674},{""stimulus"":""blank"",""time"":1323},{""stimulus"":""https://ziweizhang0304.github.io/Stats_learning_trig/img/Stim/FN_015_g.png"",""time"":1368.5},{""stimulus"":""blank"",""time"":1676.9000000953674},{""stimulus"":""https://ziweizhang0304.github.io/Stats_learning_trig/img/Stim/FN_006_g.png"",""time"":1701.7000000476837},{""stimulus"":""blank"",""time"":2008.9000000953674},{""stimulus"":""https://ziweizhang0304.github.io/Stats_learning_trig/img/Stim/FN_020_g.png"",""time"":2068},{""stimulus"":""blank"",""time"":2378},{""stimulus"":""https://ziweizhang0304.github.io/Stats_learning_trig/img/Stim/FN_010_g.png"",""time"":2382.7000000476837},{""stimulus"":""blank"",""time"":2694.2999999523163},{""stimulus"":""https://ziweizhang0304.github.io/Stats_learning_trig/img/Stim/FN_001_g.png"",""time"":2720.5999999046326},{""stimulus"":""blank"",""time"":3026.7000000476837},{""stimulus"":""https://ziweizhang0304.github.io/Stats_learning_trig/img/Stim/FN_019_g.png"",""time"":3061.2999999523163},{""stimulus"":""blank"",""time"":3365.4000000953674},{""stimulus"":""https://ziweizhang0304.github.io/Stats_learning_trig/img/Stim/FN_004_g.png"",""time"":3401.5},{""stimulus"":""blank"",""time"":3713.4000000953674},{""stimulus"":""https://ziweizhang0304.github.io/Stats_learning_trig/img/Stim/FN_017_g.png"",""time"":3743.5999999046326},{""stimulus"":""blank"",""time"":4045.5},{""stimulus"":""https://ziweizhang0304.github.io/Stats_learning_trig/img/Stim/FN_005_g.png"",""time"":4104.900000095367},{""stimulus"":""blank"",""time"":4409.400000095367}]","[{""key_press"":32,""rt"":2593.5999999046326,""stimulus"":""https://ziweizhang0304.github.io/Stats_learning_trig/img/Stim/FN_010_g.png""}]","525.5999999046326","https://ziweizhang0304.github.io/Stats_learning_trig/img/Stim/FN_020_g.png","post_TD","20","2068","2593.5999999046326","slow","6","2","60b4f4b34e71c30513ecc1f5","","","","","",""
"","image-keyboard-response","53","218274","0.0-5.0-20.0-0.0","1203.5","","","https://ziweizhang0304.github.io/Stats_learning_trig/img/Stim/FN_006_g.png","13","","","","","","","","","","","","","","","","","",""
"","animation","54","222696","0.0-5.0-20.0-1.0","","","","","","[{""stimulus"":""https://ziweizhang0304.github.io/Stats_learning_trig/img/Stim/FN_015_g.png"",""time"":344.2000000476837},{""stimulus"":""blank"",""time"":644.7999999523163},{""stimulus"":""https://ziweizhang0304.github.io/Stats_learning_trig/img/Stim/FN_008_g.png"",""time"":683.6000001430511},{""stimulus"":""blank"",""time"":985.5},{""stimulus"":""https://ziweizhang0304.github.io/Stats_learning_trig/img/Stim/FN_019_g.png"",""time"":1023.7000000476837},{""stimulus"":""blank"",""time"":1337.9000000953674},{""stimulus"":""https://ziweizhang0304.github.io/Stats_learning_trig/img/Stim/FN_005_g.png"",""time"":1363.5},{""stimulus"":""blank"",""time"":1664.6000001430511},{""stimulus"":""https://ziweizhang0304.github.io/Stats_learning_trig/img/Stim/FN_017_g.png"",""time"":1701},{""stimulus"":""blank"",""time"":2001.7999999523163},{""stimulus"":""https://ziweizhang0304.github.io/Stats_learning_trig/img/Stim/FN_006_g.png"",""time"":2041.6000001430511},{""stimulus"":""blank"",""time"":2343.600000143051},{""stimulus"":""https://ziweizhang0304.github.io/Stats_learning_trig/img/Stim/FN_020_g.png"",""time"":2391.4000000953674},{""stimulus"":""blank"",""time"":2706.4000000953674},{""stimulus"":""https://ziweizhang0304.github.io/Stats_learning_trig/img/Stim/FN_010_g.png"",""time"":2721},{""stimulus"":""blank"",""time"":3024.7999999523163},{""stimulus"":""https://ziweizhang0304.github.io/Stats_learning_trig/img/Stim/FN_001_g.png"",""time"":3074.100000143051},{""stimulus"":""blank"",""time"":3375.2000000476837},{""stimulus"":""https://ziweizhang0304.github.io/Stats_learning_trig/img/Stim/FN_023_g.png"",""time"":3407.9000000953674},{""stimulus"":""blank"",""time"":3722.2999999523163},{""stimulus"":""https://ziweizhang0304.github.io/Stats_learning_trig/img/Stim/FN_004_g.png"",""time"":3741.2000000476837},{""stimulus"":""blank"",""time"":4045.4000000953674},{""stimulus"":""https://ziweizhang0304.github.io/Stats_learning_trig/img/Stim/FN_016_g.png"",""time"":4080.7999999523163},{""stimulus"":""blank"",""time"":4393.5}]","[{""key_press"":32,""rt"":2642.0999999046326,""stimulus"":""https://ziweizhang0304.github.io/Stats_learning_trig/img/Stim/FN_020_g.png""}]","600.4999997615814","https://ziweizhang0304.github.io/Stats_learning_trig/img/Stim/FN_006_g.png","post_TD","21","2041.6000001430511","2642.0999999046326","slow","6","1","60b4f4b34e71c30513ecc1f5","","","","","",""
"","image-keyboard-response","55","223526","0.0-5.0-21.0-0.0","828.6000001430511","","","https://ziweizhang0304.github.io/Stats_learning_trig/img/Stim/FN_022_g.png","13","","","","","","","","","","","","","","","","","",""
"","animation","56","227972","0.0-5.0-21.0-1.0","","","","","","[{""stimulus"":""https://ziweizhang0304.github.io/Stats_learning_trig/img/Stim/FN_008_g.png"",""time"":345.10000014305115},{""stimulus"":""blank"",""time"":660.7999999523163},{""stimulus"":""https://ziweizhang0304.github.io/Stats_learning_trig/img/Stim/FN_019_g.png"",""time"":681.5},{""stimulus"":""blank"",""time"":998.9000000953674},{""stimulus"":""https://ziweizhang0304.github.io/Stats_learning_trig/img/Stim/FN_005_g.png"",""time"":1020.6000001430511},{""stimulus"":""blank"",""time"":1331.2000000476837},{""stimulus"":""https://ziweizhang0304.github.io/Stats_learning_trig/img/Stim/FN_001_g.png"",""time"":1361},{""stimulus"":""blank"",""time"":1662.6000001430511},{""stimulus"":""https://ziweizhang0304.github.io/Stats_learning_trig/img/Stim/FN_023_g.png"",""time"":1709.7000000476837},{""stimulus"":""blank"",""time"":2009.9000000953674},{""stimulus"":""https://ziweizhang0304.github.io/Stats_learning_trig/img/Stim/FN_022_g.png"",""time"":2048.9000000953674},{""stimulus"":""blank"",""time"":2364.5},{""stimulus"":""https://ziweizhang0304.github.io/Stats_learning_trig/img/Stim/FN_024_g.png"",""time"":2381.600000143051},{""stimulus"":""blank"",""time"":2703.100000143051},{""stimulus"":""https://ziweizhang0304.github.io/Stats_learning_trig/img/Stim/FN_025_g.png"",""time"":2720.7999999523163},{""stimulus"":""blank"",""time"":3034.9000000953674},{""stimulus"":""https://ziweizhang0304.github.io/Stats_learning_trig/img/Stim/FN_004_g.png"",""time"":3061.2999999523163},{""stimulus"":""blank"",""time"":3366.7000000476837},{""stimulus"":""https://ziweizhang0304.github.io/Stats_learning_trig/img/Stim/FN_015_g.png"",""time"":3413.9000000953674},{""stimulus"":""blank"",""time"":3720.9000000953674},{""stimulus"":""https://ziweizhang0304.github.io/Stats_learning_trig/img/Stim/FN_017_g.png"",""time"":3740.5},{""stimulus"":""blank"",""time"":4053},{""stimulus"":""https://ziweizhang0304.github.io/Stats_learning_trig/img/Stim/FN_016_g.png"",""time"":4080.600000143051},{""stimulus"":""blank"",""time"":4384.100000143051}]","[{""key_press"":32,""rt"":2458,""stimulus"":""https://ziweizhang0304.github.io/Stats_learning_trig/img/Stim/FN_024_g.png""}]","409.09999990463257","https://ziweizhang0304.github.io/Stats_learning_trig/img/Stim/FN_022_g.png","post_TD","22","2048.9000000953674","2458","fast","6","1","60b4f4b34e71c30513ecc1f5","","","","","",""
"","image-keyboard-response","57","233990","0.0-5.0-22.0-0.0","6016.200000047684","","","https://ziweizhang0304.github.io/Stats_learning_trig/img/Stim/FN_020_g.png","13","","","","","","","","","","","","","","","","","",""
"","animation","58","238412","0.0-5.0-22.0-1.0","","","","","","[{""stimulus"":""https://ziweizhang0304.github.io/Stats_learning_trig/img/Stim/FN_015_g.png"",""time"":360.60000014305115},{""stimulus"":""blank"",""time"":661},{""stimulus"":""https://ziweizhang0304.github.io/Stats_learning_trig/img/Stim/FN_008_g.png"",""time"":680.6000001430511},{""stimulus"":""blank"",""time"":993.2000000476837},{""stimulus"":""https://ziweizhang0304.github.io/Stats_learning_trig/img/Stim/FN_019_g.png"",""time"":1020.6000001430511},{""stimulus"":""blank"",""time"":1325.2999999523163},{""stimulus"":""https://ziweizhang0304.github.io/Stats_learning_trig/img/Stim/FN_005_g.png"",""time"":1361.2000000476837},{""stimulus"":""blank"",""time"":1663.9000000953674},{""stimulus"":""https://ziweizhang0304.github.io/Stats_learning_trig/img/Stim/FN_017_g.png"",""time"":1701.2000000476837},{""stimulus"":""blank"",""time"":2012},{""stimulus"":""https://ziweizhang0304.github.io/Stats_learning_trig/img/Stim/FN_006_g.png"",""time"":2041.5},{""stimulus"":""blank"",""time"":2343.7000000476837},{""stimulus"":""https://ziweizhang0304.github.io/Stats_learning_trig/img/Stim/FN_020_g.png"",""time"":2380.7000000476837},{""stimulus"":""blank"",""time"":2681.4000000953674},{""stimulus"":""https://ziweizhang0304.github.io/Stats_learning_trig/img/Stim/FN_010_g.png"",""time"":2720.9000000953674},{""stimulus"":""blank"",""time"":3028.7000000476837},{""stimulus"":""https://ziweizhang0304.github.io/Stats_learning_trig/img/Stim/FN_001_g.png"",""time"":3060.5},{""stimulus"":""blank"",""time"":3366.4000000953674},{""stimulus"":""https://ziweizhang0304.github.io/Stats_learning_trig/img/Stim/FN_023_g.png"",""time"":3424},{""stimulus"":""blank"",""time"":3727.4000000953674},{""stimulus"":""https://ziweizhang0304.github.io/Stats_learning_trig/img/Stim/FN_004_g.png"",""time"":3740.9000000953674},{""stimulus"":""blank"",""time"":4045.100000143051},{""stimulus"":""https://ziweizhang0304.github.io/Stats_learning_trig/img/Stim/FN_016_g.png"",""time"":4080.7000000476837},{""stimulus"":""blank"",""time"":4383.5}]","[{""key_press"":32,""rt"":2700.899999856949,""stimulus"":""blank""}]","320.19999980926514","https://ziweizhang0304.github.io/Stats_learning_trig/img/Stim/FN_020_g.png","post_TD","23","2380.7000000476837","2700.899999856949","slow","7","2","60b4f4b34e71c30513ecc1f5","","","","","",""
"","image-keyboard-response","59","239143","0.0-5.0-23.0-0.0","728.3000001907349","","","https://ziweizhang0304.github.io/Stats_learning_trig/img/Stim/FN_006_g.png","13","","","","","","","","","","","","","","","","","",""
"","animation","60","243563","0.0-5.0-23.0-1.0","","","","","","[{""stimulus"":""https://ziweizhang0304.github.io/Stats_learning_trig/img/Stim/FN_004_g.png"",""time"":349},{""stimulus"":""blank"",""time"":649.5999999046326},{""stimulus"":""https://ziweizhang0304.github.io/Stats_learning_trig/img/Stim/FN_008_g.png"",""time"":702.3999998569489},{""stimulus"":""blank"",""time"":1018},{""stimulus"":""https://ziweizhang0304.github.io/Stats_learning_trig/img/Stim/FN_023_g.png"",""time"":1022.2999999523163},{""stimulus"":""blank"",""time"":1323.5},{""stimulus"":""https://ziweizhang0304.github.io/Stats_learning_trig/img/Stim/FN_006_g.png"",""time"":1365.6999998092651},{""stimulus"":""blank"",""time"":1681.0999999046326},{""stimulus"":""https://ziweizhang0304.github.io/Stats_learning_trig/img/Stim/FN_020_g.png"",""time"":1700.7999999523163},{""stimulus"":""blank"",""time"":2019.8999998569489},{""stimulus"":""https://ziweizhang0304.github.io/Stats_learning_trig/img/Stim/FN_010_g.png"",""time"":2040.7999999523163},{""stimulus"":""blank"",""time"":2342.399999856949},{""stimulus"":""https://ziweizhang0304.github.io/Stats_learning_trig/img/Stim/FN_001_g.png"",""time"":2382.2999999523163},{""stimulus"":""blank"",""time"":2696.5999999046326},{""stimulus"":""https://ziweizhang0304.github.io/Stats_learning_trig/img/Stim/FN_019_g.png"",""time"":2721.2999999523163},{""stimulus"":""blank"",""time"":3022},{""stimulus"":""https://ziweizhang0304.github.io/Stats_learning_trig/img/Stim/FN_015_g.png"",""time"":3076},{""stimulus"":""blank"",""time"":3387.699999809265},{""stimulus"":""https://ziweizhang0304.github.io/Stats_learning_trig/img/Stim/FN_017_g.png"",""time"":3400.399999856949},{""stimulus"":""blank"",""time"":3720.899999856949},{""stimulus"":""https://ziweizhang0304.github.io/Stats_learning_trig/img/Stim/FN_005_g.png"",""time"":3741.5},{""stimulus"":""blank"",""time"":4041.7999999523163},{""stimulus"":""https://ziweizhang0304.github.io/Stats_learning_trig/img/Stim/FN_016_g.png"",""time"":4093.5},{""stimulus"":""blank"",""time"":4405.899999856949}]","[{""key_press"":32,""rt"":1783.3000001907349,""stimulus"":""https://ziweizhang0304.github.io/Stats_learning_trig/img/Stim/FN_020_g.png""}]","417.6000003814697","https://ziweizhang0304.github.io/Stats_learning_trig/img/Stim/FN_006_g.png","post_TD","24","1365.6999998092651","1783.3000001907349","slow","4","1","60b4f4b34e71c30513ecc1f5","fc5f6","","","","",""
"","survey-text","61","277570","0.0-6.0","34000.89999985695","","","","","","","","","","","","","","","","","","{""Q0"":""I noticed the shapes appeared, typically, after about 5 shapes, so I started to time it around 4 shapes.""}","","","",""
"","survey-text","62","282742","0.0-7.0","5150.800000190735","","","","","","","","","","","","","","","","","","{""[object Object]"":""No""}","","","",""
"","instructions","63","288426","0.0-8.0","5683.5","","[{""page_index"":0,""viewing_time"":5683.299999952316}]","","","","","","","","","","","","","","","","","","","",""
"","free-sort","64","311693","0.0-9.0","23266.099999904633","","","","","","","","","post_drag","","","","fast","","","","","","[{""src"":""https://ziweizhang0304.github.io/Stats_learning_trig/img/Stim/FN_022_g.png"",""x"":475,""y"":0},{""src"":""https://ziweizhang0304.github.io/Stats_learning_trig/img/Stim/FN_025_g.png"",""x"":-225,""y"":50},{""src"":""https://ziweizhang0304.github.io/Stats_learning_trig/img/Stim/FN_024_g.png"",""x"":475,""y"":50}]","[{""src"":""https://ziweizhang0304.github.io/Stats_learning_trig/img/Stim/FN_024_g.png"",""x"":32,""y"":23},{""src"":""https://ziweizhang0304.github.io/Stats_learning_trig/img/Stim/FN_025_g.png"",""x"":113,""y"":22},{""src"":""https://ziweizhang0304.github.io/Stats_learning_trig/img/Stim/FN_022_g.png"",""x"":223,""y"":22}]","[{""src"":""https://ziweizhang0304.github.io/Stats_learning_trig/img/Stim/FN_022_g.png"",""x"":223,""y"":22},{""src"":""https://ziweizhang0304.github.io/Stats_learning_trig/img/Stim/FN_025_g.png"",""x"":113,""y"":22},{""src"":""https://ziweizhang0304.github.io/Stats_learning_trig/img/Stim/FN_024_g.png"",""x"":32,""y"":23}]",""
"","free-sort","65","321061","0.0-10.0","9366.299999952316","","","","","","","","","post_drag","","","","slow","","","","","","[{""src"":""https://ziweizhang0304.github.io/Stats_learning_trig/img/Stim/FN_020_g.png"",""x"":475,""y"":0},{""src"":""https://ziweizhang0304.github.io/Stats_learning_trig/img/Stim/FN_010_g.png"",""x"":-225,""y"":50},{""src"":""https://ziweizhang0304.github.io/Stats_learning_trig/img/Stim/FN_006_g.png"",""x"":475,""y"":50}]","[{""src"":""https://ziweizhang0304.github.io/Stats_learning_trig/img/Stim/FN_020_g.png"",""x"":37,""y"":16},{""src"":""https://ziweizhang0304.github.io/Stats_learning_trig/img/Stim/FN_006_g.png"",""x"":118,""y"":16},{""src"":""https://ziweizhang0304.github.io/Stats_learning_trig/img/Stim/FN_010_g.png"",""x"":207,""y"":16}]","[{""src"":""https://ziweizhang0304.github.io/Stats_learning_trig/img/Stim/FN_020_g.png"",""x"":37,""y"":16},{""src"":""https://ziweizhang0304.github.io/Stats_learning_trig/img/Stim/FN_010_g.png"",""x"":207,""y"":16},{""src"":""https://ziweizhang0304.github.io/Stats_learning_trig/img/Stim/FN_006_g.png"",""x"":118,""y"":16}]",""
"","survey-multi-choice","66","329782","0.0-11.0","8715.800000190735","","","","","","","","","","","","","","","","60b4f4b34e71c30513ecc1f5","","{""awareness"":""Not sure"",""attention_check"":""Press SPACEBAR to a target""}","","","","[0,1]"
