"success","trial_type","trial_index","time_elapsed","internal_node_id","rt","url","view_history","stimulus","key_press","animation_sequence","response","TD_rt","TD_target","test_part","TD_trial_number","onset","offset","attention_state","TD_target_position","TD_within_triplet_counter","participant","yoke_participant","responses","init_locations","moves","final_locations","question_order"
"true","fullscreen","0","3393","0.0-0.0","","","","","","","","","","","","","","","","","","","","","","",""
"","external-html","1","11338","0.0-1.0","7708.800000011921","https://ziweizhang0304.github.io/Stats_learning_trig/content/consent.html","","","","","","","","","","","","","","","","","","","","",""
"","instructions","2","46609","0.0-2.0","35275.69999998808","","[{""page_index"":0,""viewing_time"":3570.699999988079},{""page_index"":1,""viewing_time"":17374.90000000596},{""page_index"":2,""viewing_time"":11896.300000011921},{""page_index"":3,""viewing_time"":2432.5}]","","","","","","","","","","","","","","","","","","","",""
"","image-keyboard-response","3","52174","0.0-3.0-0.0-0.0","5563.4000000059605","","","https://ziweizhang0304.github.io/Stats_learning_trig/img/Stim/FN_006_g.png","13","","","","","","","","","","","","","","","","","",""
"","animation","4","56597","0.0-3.0-0.0-1.0","","","","","","[{""stimulus"":""https://ziweizhang0304.github.io/Stats_learning_trig/img/Stim/FN_018_g.png"",""time"":345.09999999403954},{""stimulus"":""blank"",""time"":653.3000000119209},{""stimulus"":""https://ziweizhang0304.github.io/Stats_learning_trig/img/Stim/FN_016_g.png"",""time"":682.1999999880791},{""stimulus"":""blank"",""time"":985.3000000119209},{""stimulus"":""https://ziweizhang0304.github.io/Stats_learning_trig/img/Stim/FN_023_g.png"",""time"":1022.0999999940395},{""stimulus"":""blank"",""time"":1324.199999988079},{""stimulus"":""https://ziweizhang0304.github.io/Stats_learning_trig/img/Stim/FN_012_g.png"",""time"":1362.0999999940395},{""stimulus"":""blank"",""time"":1671.5999999940395},{""stimulus"":""https://ziweizhang0304.github.io/Stats_learning_trig/img/Stim/FN_008_g.png"",""time"":1701.5},{""stimulus"":""blank"",""time"":2003.300000011921},{""stimulus"":""https://ziweizhang0304.github.io/Stats_learning_trig/img/Stim/FN_006_g.png"",""time"":2041.0999999940395},{""stimulus"":""blank"",""time"":2341.5999999940395},{""stimulus"":""https://ziweizhang0304.github.io/Stats_learning_trig/img/Stim/FN_015_g.png"",""time"":2382.800000011921},{""stimulus"":""blank"",""time"":2688.9000000059605},{""stimulus"":""https://ziweizhang0304.github.io/Stats_learning_trig/img/Stim/FN_026_g.png"",""time"":2722.5999999940395},{""stimulus"":""blank"",""time"":3027.4000000059605},{""stimulus"":""https://ziweizhang0304.github.io/Stats_learning_trig/img/Stim/FN_019_g.png"",""time"":3062.199999988079},{""stimulus"":""blank"",""time"":3374.9000000059605},{""stimulus"":""https://ziweizhang0304.github.io/Stats_learning_trig/img/Stim/FN_025_g.png"",""time"":3402.800000011921},{""stimulus"":""blank"",""time"":3706.300000011921},{""stimulus"":""https://ziweizhang0304.github.io/Stats_learning_trig/img/Stim/FN_007_g.png"",""time"":3742},{""stimulus"":""blank"",""time"":4044.5},{""stimulus"":""https://ziweizhang0304.github.io/Stats_learning_trig/img/Stim/FN_014_g.png"",""time"":4082.4000000059605},{""stimulus"":""blank"",""time"":4392.4000000059605}]","[{""key_press"":32,""rt"":2706.9000000059605,""stimulus"":""blank""}]","665.8000000119209","https://ziweizhang0304.github.io/Stats_learning_trig/img/Stim/FN_006_g.png","post_prac","","","","","","","","","","","","",""
"","html-keyboard-response","5","61363","0.0-3.0-0.0-2.0","4760.5","","","<p>Your reaction time for this trial was 665.8 ms.</p><p>Remember that you should only press the SPACEBAR when you see the shape presented at the beginning of the trial. </b> </p><p>Press enter to move on.</p>","13","","","","","","","","","","","","","","","","","",""
"","image-keyboard-response","6","66049","0.0-3.0-1.0-0.0","4684.699999988079","","","https://ziweizhang0304.github.io/Stats_learning_trig/img/Stim/FN_005_g.png","13","","","","","","","","","","","","","","","","","",""
"","animation","7","70471","0.0-3.0-1.0-1.0","","","","","","[{""stimulus"":""https://ziweizhang0304.github.io/Stats_learning_trig/img/Stim/FN_016_g.png"",""time"":352.40000000596046},{""stimulus"":""blank"",""time"":677.5},{""stimulus"":""https://ziweizhang0304.github.io/Stats_learning_trig/img/Stim/FN_019_g.png"",""time"":681.0999999940395},{""stimulus"":""blank"",""time"":993.9000000059605},{""stimulus"":""https://ziweizhang0304.github.io/Stats_learning_trig/img/Stim/FN_025_g.png"",""time"":1022.5999999940395},{""stimulus"":""blank"",""time"":1335},{""stimulus"":""https://ziweizhang0304.github.io/Stats_learning_trig/img/Stim/FN_014_g.png"",""time"":1362.7000000178814},{""stimulus"":""blank"",""time"":1663.300000011921},{""stimulus"":""https://ziweizhang0304.github.io/Stats_learning_trig/img/Stim/FN_005_g.png"",""time"":1701.7000000178814},{""stimulus"":""blank"",""time"":2016.300000011921},{""stimulus"":""https://ziweizhang0304.github.io/Stats_learning_trig/img/Stim/FN_002_g.png"",""time"":2041.300000011921},{""stimulus"":""blank"",""time"":2348.5},{""stimulus"":""https://ziweizhang0304.github.io/Stats_learning_trig/img/Stim/FN_001_g.png"",""time"":2402.300000011921},{""stimulus"":""blank"",""time"":2718},{""stimulus"":""https://ziweizhang0304.github.io/Stats_learning_trig/img/Stim/FN_026_g.png"",""time"":2721.800000011921},{""stimulus"":""blank"",""time"":3034.4000000059605},{""stimulus"":""https://ziweizhang0304.github.io/Stats_learning_trig/img/Stim/FN_023_g.png"",""time"":3074.300000011921},{""stimulus"":""blank"",""time"":3382.300000011921},{""stimulus"":""https://ziweizhang0304.github.io/Stats_learning_trig/img/Stim/FN_015_g.png"",""time"":3402.0999999940395},{""stimulus"":""blank"",""time"":3705.4000000059605},{""stimulus"":""https://ziweizhang0304.github.io/Stats_learning_trig/img/Stim/FN_018_g.png"",""time"":3742.2000000178814},{""stimulus"":""blank"",""time"":4052.4000000059605},{""stimulus"":""https://ziweizhang0304.github.io/Stats_learning_trig/img/Stim/FN_007_g.png"",""time"":4081.2000000178814},{""stimulus"":""blank"",""time"":4384.200000017881}]","[{""key_press"":32,""rt"":2116.2999999821186,""stimulus"":""https://ziweizhang0304.github.io/Stats_learning_trig/img/Stim/FN_002_g.png""}]","414.5999999642372","https://ziweizhang0304.github.io/Stats_learning_trig/img/Stim/FN_005_g.png","post_prac","","","","","","","","","","","","",""
"","html-keyboard-response","8","72959","0.0-3.0-1.0-2.0","2484.7999999821186","","","<p>Your reaction time for this trial was 414.6 ms.</p><p>Remember that you should only press the SPACEBAR when you see the shape presented at the beginning of the trial. </b> </p><p>Press enter to move on.</p>","13","","","","","","","","","","","","","","","","","",""
"","image-keyboard-response","9","77106","0.0-3.0-2.0-0.0","4145.9000000059605","","","https://ziweizhang0304.github.io/Stats_learning_trig/img/Stim/FN_005_g.png","13","","","","","","","","","","","","","","","","","",""
"","animation","10","81529","0.0-3.0-2.0-1.0","","","","","","[{""stimulus"":""https://ziweizhang0304.github.io/Stats_learning_trig/img/Stim/FN_016_g.png"",""time"":344.89999997615814},{""stimulus"":""blank"",""time"":645.5999999940395},{""stimulus"":""https://ziweizhang0304.github.io/Stats_learning_trig/img/Stim/FN_019_g.png"",""time"":682},{""stimulus"":""blank"",""time"":1000.3999999761581},{""stimulus"":""https://ziweizhang0304.github.io/Stats_learning_trig/img/Stim/FN_025_g.png"",""time"":1022.2999999821186},{""stimulus"":""blank"",""time"":1327.0999999940395},{""stimulus"":""https://ziweizhang0304.github.io/Stats_learning_trig/img/Stim/FN_014_g.png"",""time"":1362},{""stimulus"":""blank"",""time"":1674.5999999940395},{""stimulus"":""https://ziweizhang0304.github.io/Stats_learning_trig/img/Stim/FN_005_g.png"",""time"":1702.5},{""stimulus"":""blank"",""time"":2006},{""stimulus"":""https://ziweizhang0304.github.io/Stats_learning_trig/img/Stim/FN_002_g.png"",""time"":2041.8999999761581},{""stimulus"":""blank"",""time"":2344.5},{""stimulus"":""https://ziweizhang0304.github.io/Stats_learning_trig/img/Stim/FN_001_g.png"",""time"":2382.2999999821186},{""stimulus"":""blank"",""time"":2692.399999976158},{""stimulus"":""https://ziweizhang0304.github.io/Stats_learning_trig/img/Stim/FN_026_g.png"",""time"":2722.199999988079},{""stimulus"":""blank"",""time"":3031.2999999821186},{""stimulus"":""https://ziweizhang0304.github.io/Stats_learning_trig/img/Stim/FN_023_g.png"",""time"":3061.199999988079},{""stimulus"":""blank"",""time"":3363.399999976158},{""stimulus"":""https://ziweizhang0304.github.io/Stats_learning_trig/img/Stim/FN_015_g.png"",""time"":3401},{""stimulus"":""blank"",""time"":3710.899999976158},{""stimulus"":""https://ziweizhang0304.github.io/Stats_learning_trig/img/Stim/FN_018_g.png"",""time"":3741.5999999940395},{""stimulus"":""blank"",""time"":4048.5},{""stimulus"":""https://ziweizhang0304.github.io/Stats_learning_trig/img/Stim/FN_007_g.png"",""time"":4082.399999976158},{""stimulus"":""blank"",""time"":4390.5999999940395}]","[{""key_press"":32,""rt"":2182.4000000059605,""stimulus"":""https://ziweizhang0304.github.io/Stats_learning_trig/img/Stim/FN_002_g.png""}]","479.90000000596046","https://ziweizhang0304.github.io/Stats_learning_trig/img/Stim/FN_005_g.png","post_prac","","","","","","","","","","","","",""
"","html-keyboard-response","11","83716","0.0-3.0-2.0-2.0","2183.199999988079","","","<p>Your reaction time for this trial was 479.9 ms.</p><p>Remember that you should only press the SPACEBAR when you see the shape presented at the beginning of the trial. </b> </p><p>Press enter to move on.</p>","13","","","","","","","","","","","","","","","","","",""
"","instructions","12","86217","0.0-4.0","2501.2000000178814","","[{""page_index"":0,""viewing_time"":2500.9000000059605}]","","","","","","","","","","","","","","","","","","","",""
"","image-keyboard-response","13","90560","0.0-5.0-0.0-0.0","4341.299999982119","","","https://ziweizhang0304.github.io/Stats_learning_trig/img/Stim/FN_012_g.png","13","","","","","","","","","","","","","","","","","",""
"","animation","14","94990","0.0-5.0-0.0-1.0","","","","","","[{""stimulus"":""https://ziweizhang0304.github.io/Stats_learning_trig/img/Stim/FN_007_g.png"",""time"":341.80000001192093},{""stimulus"":""blank"",""time"":657.3000000119209},{""stimulus"":""https://ziweizhang0304.github.io/Stats_learning_trig/img/Stim/FN_016_g.png"",""time"":681},{""stimulus"":""blank"",""time"":995.9000000059605},{""stimulus"":""https://ziweizhang0304.github.io/Stats_learning_trig/img/Stim/FN_014_g.png"",""time"":1035.5999999940395},{""stimulus"":""blank"",""time"":1342.800000011921},{""stimulus"":""https://ziweizhang0304.github.io/Stats_learning_trig/img/Stim/FN_019_g.png"",""time"":1361.5999999940395},{""stimulus"":""blank"",""time"":1674.300000011921},{""stimulus"":""https://ziweizhang0304.github.io/Stats_learning_trig/img/Stim/FN_006_g.png"",""time"":1702},{""stimulus"":""blank"",""time"":2003.300000011921},{""stimulus"":""https://ziweizhang0304.github.io/Stats_learning_trig/img/Stim/FN_008_g.png"",""time"":2041.800000011921},{""stimulus"":""blank"",""time"":2343.699999988079},{""stimulus"":""https://ziweizhang0304.github.io/Stats_learning_trig/img/Stim/FN_012_g.png"",""time"":2382.4000000059605},{""stimulus"":""blank"",""time"":2697.699999988079},{""stimulus"":""https://ziweizhang0304.github.io/Stats_learning_trig/img/Stim/FN_026_g.png"",""time"":2722.5},{""stimulus"":""blank"",""time"":3029.9000000059605},{""stimulus"":""https://ziweizhang0304.github.io/Stats_learning_trig/img/Stim/FN_025_g.png"",""time"":3061.5999999940395},{""stimulus"":""blank"",""time"":3377.300000011921},{""stimulus"":""https://ziweizhang0304.github.io/Stats_learning_trig/img/Stim/FN_023_g.png"",""time"":3402.0999999940395},{""stimulus"":""blank"",""time"":3715.5},{""stimulus"":""https://ziweizhang0304.github.io/Stats_learning_trig/img/Stim/FN_015_g.png"",""time"":3741.4000000059605},{""stimulus"":""blank"",""time"":4048.199999988079},{""stimulus"":""https://ziweizhang0304.github.io/Stats_learning_trig/img/Stim/FN_018_g.png"",""time"":4081},{""stimulus"":""blank"",""time"":4401.699999988079}]","[{""key_press"":32,""rt"":2792.399999976158,""stimulus"":""https://ziweizhang0304.github.io/Stats_learning_trig/img/Stim/FN_026_g.png""}]","409.9999999701977","https://ziweizhang0304.github.io/Stats_learning_trig/img/Stim/FN_012_g.png","post_TD","1","2382.4000000059605","2792.399999976158","fast","7","3","5c69a010ec1fb80001c17b34","","","","","",""
"","image-keyboard-response","15","99731","0.0-5.0-1.0-0.0","4738.4000000059605","","","https://ziweizhang0304.github.io/Stats_learning_trig/img/Stim/FN_005_g.png","13","","","","","","","","","","","","","","","","","",""
"","animation","16","104153","0.0-5.0-1.0-1.0","","","","","","[{""stimulus"":""https://ziweizhang0304.github.io/Stats_learning_trig/img/Stim/FN_007_g.png"",""time"":349.69999998807907},{""stimulus"":""blank"",""time"":651.4000000059605},{""stimulus"":""https://ziweizhang0304.github.io/Stats_learning_trig/img/Stim/FN_026_g.png"",""time"":681},{""stimulus"":""blank"",""time"":993.1999999880791},{""stimulus"":""https://ziweizhang0304.github.io/Stats_learning_trig/img/Stim/FN_016_g.png"",""time"":1021.9000000059605},{""stimulus"":""blank"",""time"":1328.5999999940395},{""stimulus"":""https://ziweizhang0304.github.io/Stats_learning_trig/img/Stim/FN_005_g.png"",""time"":1362.300000011921},{""stimulus"":""blank"",""time"":1666.9000000059605},{""stimulus"":""https://ziweizhang0304.github.io/Stats_learning_trig/img/Stim/FN_002_g.png"",""time"":1702.699999988079},{""stimulus"":""blank"",""time"":2014.699999988079},{""stimulus"":""https://ziweizhang0304.github.io/Stats_learning_trig/img/Stim/FN_001_g.png"",""time"":2042.5},{""stimulus"":""blank"",""time"":2353.300000011921},{""stimulus"":""https://ziweizhang0304.github.io/Stats_learning_trig/img/Stim/FN_014_g.png"",""time"":2382.300000011921},{""stimulus"":""blank"",""time"":2698.5999999940395},{""stimulus"":""https://ziweizhang0304.github.io/Stats_learning_trig/img/Stim/FN_025_g.png"",""time"":2721.4000000059605},{""stimulus"":""blank"",""time"":3022.9000000059605},{""stimulus"":""https://ziweizhang0304.github.io/Stats_learning_trig/img/Stim/FN_023_g.png"",""time"":3061.4000000059605},{""stimulus"":""blank"",""time"":3370.0999999940395},{""stimulus"":""https://ziweizhang0304.github.io/Stats_learning_trig/img/Stim/FN_015_g.png"",""time"":3401.9000000059605},{""stimulus"":""blank"",""time"":3702.800000011921},{""stimulus"":""https://ziweizhang0304.github.io/Stats_learning_trig/img/Stim/FN_019_g.png"",""time"":3742.5999999940395},{""stimulus"":""blank"",""time"":4056.300000011921},{""stimulus"":""https://ziweizhang0304.github.io/Stats_learning_trig/img/Stim/FN_018_g.png"",""time"":4081},{""stimulus"":""blank"",""time"":4388.4000000059605}]","[{""key_press"":32,""rt"":1753.5,""stimulus"":""https://ziweizhang0304.github.io/Stats_learning_trig/img/Stim/FN_002_g.png""}]","391.19999998807907","https://ziweizhang0304.github.io/Stats_learning_trig/img/Stim/FN_005_g.png","post_TD","2","1362.300000011921","1753.5","slow","4","1","5c69a010ec1fb80001c17b34","","","","","",""
"","image-keyboard-response","17","107670","0.0-5.0-2.0-0.0","3515","","","https://ziweizhang0304.github.io/Stats_learning_trig/img/Stim/FN_006_g.png","13","","","","","","","","","","","","","","","","","",""
"","animation","18","112093","0.0-5.0-2.0-1.0","","","","","","[{""stimulus"":""https://ziweizhang0304.github.io/Stats_learning_trig/img/Stim/FN_015_g.png"",""time"":350.59999999403954},{""stimulus"":""blank"",""time"":659.9000000059605},{""stimulus"":""https://ziweizhang0304.github.io/Stats_learning_trig/img/Stim/FN_023_g.png"",""time"":681.3000000119209},{""stimulus"":""blank"",""time"":982.5},{""stimulus"":""https://ziweizhang0304.github.io/Stats_learning_trig/img/Stim/FN_016_g.png"",""time"":1021.4000000059605},{""stimulus"":""blank"",""time"":1336.5},{""stimulus"":""https://ziweizhang0304.github.io/Stats_learning_trig/img/Stim/FN_025_g.png"",""time"":1362.300000011921},{""stimulus"":""blank"",""time"":1672.9000000059605},{""stimulus"":""https://ziweizhang0304.github.io/Stats_learning_trig/img/Stim/FN_014_g.png"",""time"":1701.699999988079},{""stimulus"":""blank"",""time"":2016.300000011921},{""stimulus"":""https://ziweizhang0304.github.io/Stats_learning_trig/img/Stim/FN_006_g.png"",""time"":2042},{""stimulus"":""blank"",""time"":2354.9000000059605},{""stimulus"":""https://ziweizhang0304.github.io/Stats_learning_trig/img/Stim/FN_008_g.png"",""time"":2381.5999999940395},{""stimulus"":""blank"",""time"":2687.199999988079},{""stimulus"":""https://ziweizhang0304.github.io/Stats_learning_trig/img/Stim/FN_012_g.png"",""time"":2722},{""stimulus"":""blank"",""time"":3041.199999988079},{""stimulus"":""https://ziweizhang0304.github.io/Stats_learning_trig/img/Stim/FN_026_g.png"",""time"":3061.800000011921},{""stimulus"":""blank"",""time"":3373.300000011921},{""stimulus"":""https://ziweizhang0304.github.io/Stats_learning_trig/img/Stim/FN_019_g.png"",""time"":3402.199999988079},{""stimulus"":""blank"",""time"":3705.199999988079},{""stimulus"":""https://ziweizhang0304.github.io/Stats_learning_trig/img/Stim/FN_018_g.png"",""time"":3742.0999999940395},{""stimulus"":""blank"",""time"":4044.0999999940395},{""stimulus"":""https://ziweizhang0304.github.io/Stats_learning_trig/img/Stim/FN_007_g.png"",""time"":4081.9000000059605},{""stimulus"":""blank"",""time"":4391.5999999940395}]","[{""key_press"":32,""rt"":2459.9000000059605,""stimulus"":""https://ziweizhang0304.github.io/Stats_learning_trig/img/Stim/FN_008_g.png""}]","417.90000000596046","https://ziweizhang0304.github.io/Stats_learning_trig/img/Stim/FN_006_g.png","post_TD","3","2042","2459.9000000059605","fast","6","1","5c69a010ec1fb80001c17b34","","","","","",""
"","image-keyboard-response","19","114682","0.0-5.0-3.0-0.0","2585.9000000059605","","","https://ziweizhang0304.github.io/Stats_learning_trig/img/Stim/FN_006_g.png","13","","","","","","","","","","","","","","","","","",""
"","animation","20","119103","0.0-5.0-3.0-1.0","","","","","","[{""stimulus"":""https://ziweizhang0304.github.io/Stats_learning_trig/img/Stim/FN_007_g.png"",""time"":350.7999999821186},{""stimulus"":""blank"",""time"":672.8999999761581},{""stimulus"":""https://ziweizhang0304.github.io/Stats_learning_trig/img/Stim/FN_016_g.png"",""time"":681.5},{""stimulus"":""blank"",""time"":989.3999999761581},{""stimulus"":""https://ziweizhang0304.github.io/Stats_learning_trig/img/Stim/FN_014_g.png"",""time"":1022.1999999880791},{""stimulus"":""blank"",""time"":1336.3999999761581},{""stimulus"":""https://ziweizhang0304.github.io/Stats_learning_trig/img/Stim/FN_019_g.png"",""time"":1362.3999999761581},{""stimulus"":""blank"",""time"":1675.0999999940395},{""stimulus"":""https://ziweizhang0304.github.io/Stats_learning_trig/img/Stim/FN_006_g.png"",""time"":1701.7999999821186},{""stimulus"":""blank"",""time"":2003.3999999761581},{""stimulus"":""https://ziweizhang0304.github.io/Stats_learning_trig/img/Stim/FN_008_g.png"",""time"":2041.7999999821186},{""stimulus"":""blank"",""time"":2353.5},{""stimulus"":""https://ziweizhang0304.github.io/Stats_learning_trig/img/Stim/FN_012_g.png"",""time"":2382.2999999821186},{""stimulus"":""blank"",""time"":2692},{""stimulus"":""https://ziweizhang0304.github.io/Stats_learning_trig/img/Stim/FN_026_g.png"",""time"":2721.699999988079},{""stimulus"":""blank"",""time"":3023.5},{""stimulus"":""https://ziweizhang0304.github.io/Stats_learning_trig/img/Stim/FN_025_g.png"",""time"":3061},{""stimulus"":""blank"",""time"":3377.399999976158},{""stimulus"":""https://ziweizhang0304.github.io/Stats_learning_trig/img/Stim/FN_023_g.png"",""time"":3401.2999999821186},{""stimulus"":""blank"",""time"":3709.5},{""stimulus"":""https://ziweizhang0304.github.io/Stats_learning_trig/img/Stim/FN_015_g.png"",""time"":3742.2999999821186},{""stimulus"":""blank"",""time"":4056.7999999821186},{""stimulus"":""https://ziweizhang0304.github.io/Stats_learning_trig/img/Stim/FN_018_g.png"",""time"":4081.699999988079},{""stimulus"":""blank"",""time"":4395.0999999940395}]","[{""key_press"":32,""rt"":2138.7999999821186,""stimulus"":""https://ziweizhang0304.github.io/Stats_learning_trig/img/Stim/FN_008_g.png""}]","437","https://ziweizhang0304.github.io/Stats_learning_trig/img/Stim/FN_006_g.png","post_TD","4","1701.7999999821186","2138.7999999821186","fast","5","1","5c69a010ec1fb80001c17b34","","","","","",""
"","image-keyboard-response","21","121928","0.0-5.0-4.0-0.0","2822.0999999940395","","","https://ziweizhang0304.github.io/Stats_learning_trig/img/Stim/FN_001_g.png","13","","","","","","","","","","","","","","","","","",""
"","animation","22","126350","0.0-5.0-4.0-1.0","","","","","","[{""stimulus"":""https://ziweizhang0304.github.io/Stats_learning_trig/img/Stim/FN_016_g.png"",""time"":343.5},{""stimulus"":""blank"",""time"":645.3000000119209},{""stimulus"":""https://ziweizhang0304.github.io/Stats_learning_trig/img/Stim/FN_019_g.png"",""time"":680.8000000119209},{""stimulus"":""blank"",""time"":982.3000000119209},{""stimulus"":""https://ziweizhang0304.github.io/Stats_learning_trig/img/Stim/FN_025_g.png"",""time"":1022.1999999880791},{""stimulus"":""blank"",""time"":1344},{""stimulus"":""https://ziweizhang0304.github.io/Stats_learning_trig/img/Stim/FN_014_g.png"",""time"":1361.699999988079},{""stimulus"":""blank"",""time"":1675.9000000059605},{""stimulus"":""https://ziweizhang0304.github.io/Stats_learning_trig/img/Stim/FN_005_g.png"",""time"":1700.699999988079},{""stimulus"":""blank"",""time"":2007.5999999940395},{""stimulus"":""https://ziweizhang0304.github.io/Stats_learning_trig/img/Stim/FN_002_g.png"",""time"":2042.5999999940395},{""stimulus"":""blank"",""time"":2355.800000011921},{""stimulus"":""https://ziweizhang0304.github.io/Stats_learning_trig/img/Stim/FN_001_g.png"",""time"":2382.4000000059605},{""stimulus"":""blank"",""time"":2693.300000011921},{""stimulus"":""https://ziweizhang0304.github.io/Stats_learning_trig/img/Stim/FN_026_g.png"",""time"":2721.0999999940395},{""stimulus"":""blank"",""time"":3024.9000000059605},{""stimulus"":""https://ziweizhang0304.github.io/Stats_learning_trig/img/Stim/FN_023_g.png"",""time"":3073.5},{""stimulus"":""blank"",""time"":3378.5999999940395},{""stimulus"":""https://ziweizhang0304.github.io/Stats_learning_trig/img/Stim/FN_015_g.png"",""time"":3402.300000011921},{""stimulus"":""blank"",""time"":3710.5999999940395},{""stimulus"":""https://ziweizhang0304.github.io/Stats_learning_trig/img/Stim/FN_018_g.png"",""time"":3742.5999999940395},{""stimulus"":""blank"",""time"":4049.5},{""stimulus"":""https://ziweizhang0304.github.io/Stats_learning_trig/img/Stim/FN_007_g.png"",""time"":4081.0999999940395},{""stimulus"":""blank"",""time"":4382.800000011921}]","[{""key_press"":32,""rt"":2755.9000000059605,""stimulus"":""https://ziweizhang0304.github.io/Stats_learning_trig/img/Stim/FN_026_g.png""}]","373.5","https://ziweizhang0304.github.io/Stats_learning_trig/img/Stim/FN_001_g.png","post_TD","5","2382.4000000059605","2755.9000000059605","slow","7","3","5c69a010ec1fb80001c17b34","","","","","",""
"","image-keyboard-response","23","129634","0.0-5.0-5.0-0.0","3280.7999999821186","","","https://ziweizhang0304.github.io/Stats_learning_trig/img/Stim/FN_002_g.png","13","","","","","","","","","","","","","","","","","",""
"","animation","24","134056","0.0-5.0-5.0-1.0","","","","","","[{""stimulus"":""https://ziweizhang0304.github.io/Stats_learning_trig/img/Stim/FN_007_g.png"",""time"":351.59999999403954},{""stimulus"":""blank"",""time"":652.3999999761581},{""stimulus"":""https://ziweizhang0304.github.io/Stats_learning_trig/img/Stim/FN_026_g.png"",""time"":681.7999999821186},{""stimulus"":""blank"",""time"":983.7999999821186},{""stimulus"":""https://ziweizhang0304.github.io/Stats_learning_trig/img/Stim/FN_016_g.png"",""time"":1022.5999999940395},{""stimulus"":""blank"",""time"":1331.2999999821186},{""stimulus"":""https://ziweizhang0304.github.io/Stats_learning_trig/img/Stim/FN_005_g.png"",""time"":1362},{""stimulus"":""blank"",""time"":1669.699999988079},{""stimulus"":""https://ziweizhang0304.github.io/Stats_learning_trig/img/Stim/FN_002_g.png"",""time"":1701.3999999761581},{""stimulus"":""blank"",""time"":2017.699999988079},{""stimulus"":""https://ziweizhang0304.github.io/Stats_learning_trig/img/Stim/FN_001_g.png"",""time"":2042.5999999940395},{""stimulus"":""blank"",""time"":2356.2999999821186},{""stimulus"":""https://ziweizhang0304.github.io/Stats_learning_trig/img/Stim/FN_014_g.png"",""time"":2382.0999999940395},{""stimulus"":""blank"",""time"":2688.2999999821186},{""stimulus"":""https://ziweizhang0304.github.io/Stats_learning_trig/img/Stim/FN_025_g.png"",""time"":2722},{""stimulus"":""blank"",""time"":3022.5999999940395},{""stimulus"":""https://ziweizhang0304.github.io/Stats_learning_trig/img/Stim/FN_023_g.png"",""time"":3062.0999999940395},{""stimulus"":""blank"",""time"":3372.699999988079},{""stimulus"":""https://ziweizhang0304.github.io/Stats_learning_trig/img/Stim/FN_015_g.png"",""time"":3401.5999999940395},{""stimulus"":""blank"",""time"":3704.399999976158},{""stimulus"":""https://ziweizhang0304.github.io/Stats_learning_trig/img/Stim/FN_019_g.png"",""time"":3741.199999988079},{""stimulus"":""blank"",""time"":4058.0999999940395},{""stimulus"":""https://ziweizhang0304.github.io/Stats_learning_trig/img/Stim/FN_018_g.png"",""time"":4081.7999999821186},{""stimulus"":""blank"",""time"":4390}]","[{""key_press"":32,""rt"":2090,""stimulus"":""https://ziweizhang0304.github.io/Stats_learning_trig/img/Stim/FN_001_g.png""}]","388.60000002384186","https://ziweizhang0304.github.io/Stats_learning_trig/img/Stim/FN_002_g.png","post_TD","6","1701.3999999761581","2090","slow","5","2","5c69a010ec1fb80001c17b34","","","","","",""
"","image-keyboard-response","25","136381","0.0-5.0-6.0-0.0","2321.0999999940395","","","https://ziweizhang0304.github.io/Stats_learning_trig/img/Stim/FN_008_g.png","13","","","","","","","","","","","","","","","","","",""
"","animation","26","140803","0.0-5.0-6.0-1.0","","","","","","[{""stimulus"":""https://ziweizhang0304.github.io/Stats_learning_trig/img/Stim/FN_015_g.png"",""time"":350.90000000596046},{""stimulus"":""blank"",""time"":666.6000000238419},{""stimulus"":""https://ziweizhang0304.github.io/Stats_learning_trig/img/Stim/FN_023_g.png"",""time"":682.5},{""stimulus"":""blank"",""time"":982.7000000178814},{""stimulus"":""https://ziweizhang0304.github.io/Stats_learning_trig/img/Stim/FN_016_g.png"",""time"":1022.5},{""stimulus"":""blank"",""time"":1324},{""stimulus"":""https://ziweizhang0304.github.io/Stats_learning_trig/img/Stim/FN_025_g.png"",""time"":1362.4000000059605},{""stimulus"":""blank"",""time"":1668.5},{""stimulus"":""https://ziweizhang0304.github.io/Stats_learning_trig/img/Stim/FN_014_g.png"",""time"":1701.4000000059605},{""stimulus"":""blank"",""time"":2022},{""stimulus"":""https://ziweizhang0304.github.io/Stats_learning_trig/img/Stim/FN_006_g.png"",""time"":2041.7000000178814},{""stimulus"":""blank"",""time"":2353.9000000059605},{""stimulus"":""https://ziweizhang0304.github.io/Stats_learning_trig/img/Stim/FN_008_g.png"",""time"":2381.7000000178814},{""stimulus"":""blank"",""time"":2686.100000023842},{""stimulus"":""https://ziweizhang0304.github.io/Stats_learning_trig/img/Stim/FN_012_g.png"",""time"":2721.9000000059605},{""stimulus"":""blank"",""time"":3025},{""stimulus"":""https://ziweizhang0304.github.io/Stats_learning_trig/img/Stim/FN_026_g.png"",""time"":3061.9000000059605},{""stimulus"":""blank"",""time"":3372.2000000178814},{""stimulus"":""https://ziweizhang0304.github.io/Stats_learning_trig/img/Stim/FN_019_g.png"",""time"":3402},{""stimulus"":""blank"",""time"":3703.600000023842},{""stimulus"":""https://ziweizhang0304.github.io/Stats_learning_trig/img/Stim/FN_018_g.png"",""time"":3742.4000000059605},{""stimulus"":""blank"",""time"":4057.600000023842},{""stimulus"":""https://ziweizhang0304.github.io/Stats_learning_trig/img/Stim/FN_007_g.png"",""time"":4082.300000011921},{""stimulus"":""blank"",""time"":4389.700000017881}]","[{""key_press"":32,""rt"":1476.7999999821186,""stimulus"":""https://ziweizhang0304.github.io/Stats_learning_trig/img/Stim/FN_025_g.png""},{""key_press"":32,""rt"":2982.5,""stimulus"":""https://ziweizhang0304.github.io/Stats_learning_trig/img/Stim/FN_012_g.png""}]","600.7999999821186","https://ziweizhang0304.github.io/Stats_learning_trig/img/Stim/FN_008_g.png","post_TD","7","2381.7000000178814","2982.5","fast","7","2","5c69a010ec1fb80001c17b34","","","","","",""
"","image-keyboard-response","27","144206","0.0-5.0-7.0-0.0","3400.0999999940395","","","https://ziweizhang0304.github.io/Stats_learning_trig/img/Stim/FN_012_g.png","13","","","","","","","","","","","","","","","","","",""
"","animation","28","148629","0.0-5.0-7.0-1.0","","","","","","[{""stimulus"":""https://ziweizhang0304.github.io/Stats_learning_trig/img/Stim/FN_023_g.png"",""time"":344},{""stimulus"":""blank"",""time"":644.3000000119209},{""stimulus"":""https://ziweizhang0304.github.io/Stats_learning_trig/img/Stim/FN_016_g.png"",""time"":682.1000000238419},{""stimulus"":""blank"",""time"":992.3000000119209},{""stimulus"":""https://ziweizhang0304.github.io/Stats_learning_trig/img/Stim/FN_014_g.png"",""time"":1021.8000000119209},{""stimulus"":""blank"",""time"":1330.5},{""stimulus"":""https://ziweizhang0304.github.io/Stats_learning_trig/img/Stim/FN_018_g.png"",""time"":1362.2000000178814},{""stimulus"":""blank"",""time"":1662.7000000178814},{""stimulus"":""https://ziweizhang0304.github.io/Stats_learning_trig/img/Stim/FN_025_g.png"",""time"":1717.4000000059605},{""stimulus"":""blank"",""time"":2031.9000000059605},{""stimulus"":""https://ziweizhang0304.github.io/Stats_learning_trig/img/Stim/FN_026_g.png"",""time"":2042.800000011921},{""stimulus"":""blank"",""time"":2348.2000000178814},{""stimulus"":""https://ziweizhang0304.github.io/Stats_learning_trig/img/Stim/FN_006_g.png"",""time"":2381.9000000059605},{""stimulus"":""blank"",""time"":2695.7000000178814},{""stimulus"":""https://ziweizhang0304.github.io/Stats_learning_trig/img/Stim/FN_008_g.png"",""time"":2721.5},{""stimulus"":""blank"",""time"":3034.100000023842},{""stimulus"":""https://ziweizhang0304.github.io/Stats_learning_trig/img/Stim/FN_012_g.png"",""time"":3061.800000011921},{""stimulus"":""blank"",""time"":3366.2000000178814},{""stimulus"":""https://ziweizhang0304.github.io/Stats_learning_trig/img/Stim/FN_015_g.png"",""time"":3401.100000023842},{""stimulus"":""blank"",""time"":3719.4000000059605},{""stimulus"":""https://ziweizhang0304.github.io/Stats_learning_trig/img/Stim/FN_019_g.png"",""time"":3741.100000023842},{""stimulus"":""blank"",""time"":4051.4000000059605},{""stimulus"":""https://ziweizhang0304.github.io/Stats_learning_trig/img/Stim/FN_007_g.png"",""time"":4082.2000000178814},{""stimulus"":""blank"",""time"":4385.5}]","[{""key_press"":32,""rt"":3456.5999999940395,""stimulus"":""https://ziweizhang0304.github.io/Stats_learning_trig/img/Stim/FN_015_g.png""}]","394.7999999821186","https://ziweizhang0304.github.io/Stats_learning_trig/img/Stim/FN_012_g.png","post_TD","8","3061.800000011921","3456.5999999940395","fast","9","3","5c69a010ec1fb80001c17b34","","","","","",""
"","image-keyboard-response","29","150023","0.0-5.0-8.0-0.0","1391.5","","","https://ziweizhang0304.github.io/Stats_learning_trig/img/Stim/FN_006_g.png","13","","","","","","","","","","","","","","","","","",""
"","animation","30","154445","0.0-5.0-8.0-1.0","","","","","","[{""stimulus"":""https://ziweizhang0304.github.io/Stats_learning_trig/img/Stim/FN_007_g.png"",""time"":353.90000000596046},{""stimulus"":""blank"",""time"":669},{""stimulus"":""https://ziweizhang0304.github.io/Stats_learning_trig/img/Stim/FN_026_g.png"",""time"":681.6999999880791},{""stimulus"":""blank"",""time"":984.4000000059605},{""stimulus"":""https://ziweizhang0304.github.io/Stats_learning_trig/img/Stim/FN_014_g.png"",""time"":1022.2999999821186},{""stimulus"":""blank"",""time"":1323.199999988079},{""stimulus"":""https://ziweizhang0304.github.io/Stats_learning_trig/img/Stim/FN_006_g.png"",""time"":1361.699999988079},{""stimulus"":""blank"",""time"":1669},{""stimulus"":""https://ziweizhang0304.github.io/Stats_learning_trig/img/Stim/FN_008_g.png"",""time"":1700.9000000059605},{""stimulus"":""blank"",""time"":2009.0999999940395},{""stimulus"":""https://ziweizhang0304.github.io/Stats_learning_trig/img/Stim/FN_012_g.png"",""time"":2041.7999999821186},{""stimulus"":""blank"",""time"":2342.699999988079},{""stimulus"":""https://ziweizhang0304.github.io/Stats_learning_trig/img/Stim/FN_016_g.png"",""time"":2382.2999999821186},{""stimulus"":""blank"",""time"":2684},{""stimulus"":""https://ziweizhang0304.github.io/Stats_learning_trig/img/Stim/FN_025_g.png"",""time"":2722.4000000059605},{""stimulus"":""blank"",""time"":3022.9000000059605},{""stimulus"":""https://ziweizhang0304.github.io/Stats_learning_trig/img/Stim/FN_023_g.png"",""time"":3062.2999999821186},{""stimulus"":""blank"",""time"":3368.699999988079},{""stimulus"":""https://ziweizhang0304.github.io/Stats_learning_trig/img/Stim/FN_015_g.png"",""time"":3402.5999999940395},{""stimulus"":""blank"",""time"":3710.0999999940395},{""stimulus"":""https://ziweizhang0304.github.io/Stats_learning_trig/img/Stim/FN_019_g.png"",""time"":3741.699999988079},{""stimulus"":""blank"",""time"":4052.2999999821186},{""stimulus"":""https://ziweizhang0304.github.io/Stats_learning_trig/img/Stim/FN_018_g.png"",""time"":4081.0999999940395},{""stimulus"":""blank"",""time"":4388.799999982119}]","[{""key_press"":32,""rt"":1858.7000000178814,""stimulus"":""https://ziweizhang0304.github.io/Stats_learning_trig/img/Stim/FN_008_g.png""}]","497.0000000298023","https://ziweizhang0304.github.io/Stats_learning_trig/img/Stim/FN_006_g.png","post_TD","9","1361.699999988079","1858.7000000178814","fast","4","1","5c69a010ec1fb80001c17b34","","","","","",""
"","image-keyboard-response","31","157891","0.0-5.0-9.0-0.0","3443.2000000178814","","","https://ziweizhang0304.github.io/Stats_learning_trig/img/Stim/FN_001_g.png","13","","","","","","","","","","","","","","","","","",""
"","animation","32","162313","0.0-5.0-9.0-1.0","","","","","","[{""stimulus"":""https://ziweizhang0304.github.io/Stats_learning_trig/img/Stim/FN_007_g.png"",""time"":354.2999999821186},{""stimulus"":""blank"",""time"":670},{""stimulus"":""https://ziweizhang0304.github.io/Stats_learning_trig/img/Stim/FN_026_g.png"",""time"":681.6999999880791},{""stimulus"":""blank"",""time"":986.5},{""stimulus"":""https://ziweizhang0304.github.io/Stats_learning_trig/img/Stim/FN_016_g.png"",""time"":1022.2999999821186},{""stimulus"":""blank"",""time"":1333.9000000059605},{""stimulus"":""https://ziweizhang0304.github.io/Stats_learning_trig/img/Stim/FN_005_g.png"",""time"":1360.5999999940395},{""stimulus"":""blank"",""time"":1673.2999999821186},{""stimulus"":""https://ziweizhang0304.github.io/Stats_learning_trig/img/Stim/FN_002_g.png"",""time"":1702.0999999940395},{""stimulus"":""blank"",""time"":2004.699999988079},{""stimulus"":""https://ziweizhang0304.github.io/Stats_learning_trig/img/Stim/FN_001_g.png"",""time"":2041.5},{""stimulus"":""blank"",""time"":2343},{""stimulus"":""https://ziweizhang0304.github.io/Stats_learning_trig/img/Stim/FN_014_g.png"",""time"":2396.5},{""stimulus"":""blank"",""time"":2706.5},{""stimulus"":""https://ziweizhang0304.github.io/Stats_learning_trig/img/Stim/FN_025_g.png"",""time"":2722.2999999821186},{""stimulus"":""blank"",""time"":3029.199999988079},{""stimulus"":""https://ziweizhang0304.github.io/Stats_learning_trig/img/Stim/FN_023_g.png"",""time"":3061},{""stimulus"":""blank"",""time"":3377},{""stimulus"":""https://ziweizhang0304.github.io/Stats_learning_trig/img/Stim/FN_015_g.png"",""time"":3400.699999988079},{""stimulus"":""blank"",""time"":3708.4000000059605},{""stimulus"":""https://ziweizhang0304.github.io/Stats_learning_trig/img/Stim/FN_019_g.png"",""time"":3741.2999999821186},{""stimulus"":""blank"",""time"":4046.7999999821186},{""stimulus"":""https://ziweizhang0304.github.io/Stats_learning_trig/img/Stim/FN_018_g.png"",""time"":4081.699999988079},{""stimulus"":""blank"",""time"":4394.699999988079}]","[{""key_press"":32,""rt"":2479,""stimulus"":""https://ziweizhang0304.github.io/Stats_learning_trig/img/Stim/FN_014_g.png""}]","437.5","https://ziweizhang0304.github.io/Stats_learning_trig/img/Stim/FN_001_g.png","post_TD","10","2041.5","2479","slow","6","3","5c69a010ec1fb80001c17b34","","","","","",""
"","image-keyboard-response","33","163439","0.0-5.0-10.0-0.0","1123.699999988079","","","https://ziweizhang0304.github.io/Stats_learning_trig/img/Stim/FN_008_g.png","13","","","","","","","","","","","","","","","","","",""
"","animation","34","167861","0.0-5.0-10.0-1.0","","","","","","[{""stimulus"":""https://ziweizhang0304.github.io/Stats_learning_trig/img/Stim/FN_007_g.png"",""time"":353.30000001192093},{""stimulus"":""blank"",""time"":667.3000000119209},{""stimulus"":""https://ziweizhang0304.github.io/Stats_learning_trig/img/Stim/FN_026_g.png"",""time"":682},{""stimulus"":""blank"",""time"":989.0999999940395},{""stimulus"":""https://ziweizhang0304.github.io/Stats_learning_trig/img/Stim/FN_014_g.png"",""time"":1021.9000000059605},{""stimulus"":""blank"",""time"":1322.199999988079},{""stimulus"":""https://ziweizhang0304.github.io/Stats_learning_trig/img/Stim/FN_006_g.png"",""time"":1360.9000000059605},{""stimulus"":""blank"",""time"":1667.300000011921},{""stimulus"":""https://ziweizhang0304.github.io/Stats_learning_trig/img/Stim/FN_008_g.png"",""time"":1701},{""stimulus"":""blank"",""time"":2002.199999988079},{""stimulus"":""https://ziweizhang0304.github.io/Stats_learning_trig/img/Stim/FN_012_g.png"",""time"":2042.5},{""stimulus"":""blank"",""time"":2352.199999988079},{""stimulus"":""https://ziweizhang0304.github.io/Stats_learning_trig/img/Stim/FN_016_g.png"",""time"":2380.9000000059605},{""stimulus"":""blank"",""time"":2690.4000000059605},{""stimulus"":""https://ziweizhang0304.github.io/Stats_learning_trig/img/Stim/FN_025_g.png"",""time"":2722.300000011921},{""stimulus"":""blank"",""time"":3037.300000011921},{""stimulus"":""https://ziweizhang0304.github.io/Stats_learning_trig/img/Stim/FN_023_g.png"",""time"":3062.0999999940395},{""stimulus"":""blank"",""time"":3368},{""stimulus"":""https://ziweizhang0304.github.io/Stats_learning_trig/img/Stim/FN_015_g.png"",""time"":3401.699999988079},{""stimulus"":""blank"",""time"":3703},{""stimulus"":""https://ziweizhang0304.github.io/Stats_learning_trig/img/Stim/FN_019_g.png"",""time"":3742.4000000059605},{""stimulus"":""blank"",""time"":4053.5999999940395},{""stimulus"":""https://ziweizhang0304.github.io/Stats_learning_trig/img/Stim/FN_018_g.png"",""time"":4082.300000011921},{""stimulus"":""blank"",""time"":4382.5999999940395}]","[{""key_press"":32,""rt"":2225,""stimulus"":""https://ziweizhang0304.github.io/Stats_learning_trig/img/Stim/FN_012_g.png""}]","524","https://ziweizhang0304.github.io/Stats_learning_trig/img/Stim/FN_008_g.png","post_TD","11","1701","2225","fast","5","2","5c69a010ec1fb80001c17b34","","","","","",""
"","image-keyboard-response","35","169014","0.0-5.0-11.0-0.0","1150.199999988079","","","https://ziweizhang0304.github.io/Stats_learning_trig/img/Stim/FN_008_g.png","13","","","","","","","","","","","","","","","","","",""
"","animation","36","173435","0.0-5.0-11.0-1.0","","","","","","[{""stimulus"":""https://ziweizhang0304.github.io/Stats_learning_trig/img/Stim/FN_023_g.png"",""time"":341.19999998807907},{""stimulus"":""blank"",""time"":653.4000000059605},{""stimulus"":""https://ziweizhang0304.github.io/Stats_learning_trig/img/Stim/FN_016_g.png"",""time"":682.0999999940395},{""stimulus"":""blank"",""time"":985.1999999880791},{""stimulus"":""https://ziweizhang0304.github.io/Stats_learning_trig/img/Stim/FN_014_g.png"",""time"":1021},{""stimulus"":""blank"",""time"":1324.0999999940395},{""stimulus"":""https://ziweizhang0304.github.io/Stats_learning_trig/img/Stim/FN_018_g.png"",""time"":1361},{""stimulus"":""blank"",""time"":1671.4000000059605},{""stimulus"":""https://ziweizhang0304.github.io/Stats_learning_trig/img/Stim/FN_025_g.png"",""time"":1702.300000011921},{""stimulus"":""blank"",""time"":2003.199999988079},{""stimulus"":""https://ziweizhang0304.github.io/Stats_learning_trig/img/Stim/FN_026_g.png"",""time"":2041.9000000059605},{""stimulus"":""blank"",""time"":2356.9000000059605},{""stimulus"":""https://ziweizhang0304.github.io/Stats_learning_trig/img/Stim/FN_006_g.png"",""time"":2380.699999988079},{""stimulus"":""blank"",""time"":2689},{""stimulus"":""https://ziweizhang0304.github.io/Stats_learning_trig/img/Stim/FN_008_g.png"",""time"":2721.800000011921},{""stimulus"":""blank"",""time"":3027.9000000059605},{""stimulus"":""https://ziweizhang0304.github.io/Stats_learning_trig/img/Stim/FN_012_g.png"",""time"":3061.5999999940395},{""stimulus"":""blank"",""time"":3375.5},{""stimulus"":""https://ziweizhang0304.github.io/Stats_learning_trig/img/Stim/FN_015_g.png"",""time"":3402.4000000059605},{""stimulus"":""blank"",""time"":3703.699999988079},{""stimulus"":""https://ziweizhang0304.github.io/Stats_learning_trig/img/Stim/FN_019_g.png"",""time"":3742.199999988079},{""stimulus"":""blank"",""time"":4045.0999999940395},{""stimulus"":""https://ziweizhang0304.github.io/Stats_learning_trig/img/Stim/FN_007_g.png"",""time"":4082},{""stimulus"":""blank"",""time"":4392.9000000059605}]","[{""key_press"":32,""rt"":3099.4000000059605,""stimulus"":""https://ziweizhang0304.github.io/Stats_learning_trig/img/Stim/FN_012_g.png""}]","377.59999999403954","https://ziweizhang0304.github.io/Stats_learning_trig/img/Stim/FN_008_g.png","post_TD","12","2721.800000011921","3099.4000000059605","fast","8","2","5c69a010ec1fb80001c17b34","","","","","",""
"","image-keyboard-response","37","174315","0.0-5.0-12.0-0.0","877.4000000059605","","","https://ziweizhang0304.github.io/Stats_learning_trig/img/Stim/FN_002_g.png","13","","","","","","","","","","","","","","","","","",""
"","animation","38","178737","0.0-5.0-12.0-1.0","","","","","","[{""stimulus"":""https://ziweizhang0304.github.io/Stats_learning_trig/img/Stim/FN_016_g.png"",""time"":349.40000000596046},{""stimulus"":""blank"",""time"":649.8000000119209},{""stimulus"":""https://ziweizhang0304.github.io/Stats_learning_trig/img/Stim/FN_019_g.png"",""time"":685.5},{""stimulus"":""blank"",""time"":997},{""stimulus"":""https://ziweizhang0304.github.io/Stats_learning_trig/img/Stim/FN_025_g.png"",""time"":1021.6999999880791},{""stimulus"":""blank"",""time"":1335.9000000059605},{""stimulus"":""https://ziweizhang0304.github.io/Stats_learning_trig/img/Stim/FN_014_g.png"",""time"":1362.699999988079},{""stimulus"":""blank"",""time"":1667.4000000059605},{""stimulus"":""https://ziweizhang0304.github.io/Stats_learning_trig/img/Stim/FN_005_g.png"",""time"":1701.199999988079},{""stimulus"":""blank"",""time"":2015},{""stimulus"":""https://ziweizhang0304.github.io/Stats_learning_trig/img/Stim/FN_002_g.png"",""time"":2041.800000011921},{""stimulus"":""blank"",""time"":2343.199999988079},{""stimulus"":""https://ziweizhang0304.github.io/Stats_learning_trig/img/Stim/FN_001_g.png"",""time"":2382.5999999940395},{""stimulus"":""blank"",""time"":2687.300000011921},{""stimulus"":""https://ziweizhang0304.github.io/Stats_learning_trig/img/Stim/FN_026_g.png"",""time"":2722.0999999940395},{""stimulus"":""blank"",""time"":3038},{""stimulus"":""https://ziweizhang0304.github.io/Stats_learning_trig/img/Stim/FN_023_g.png"",""time"":3061.5999999940395},{""stimulus"":""blank"",""time"":3363.0999999940395},{""stimulus"":""https://ziweizhang0304.github.io/Stats_learning_trig/img/Stim/FN_015_g.png"",""time"":3402.5999999940395},{""stimulus"":""blank"",""time"":3703.800000011921},{""stimulus"":""https://ziweizhang0304.github.io/Stats_learning_trig/img/Stim/FN_018_g.png"",""time"":3755.4000000059605},{""stimulus"":""blank"",""time"":4071.0999999940395},{""stimulus"":""https://ziweizhang0304.github.io/Stats_learning_trig/img/Stim/FN_007_g.png"",""time"":4080.699999988079},{""stimulus"":""blank"",""time"":4387.5999999940395}]","[{""key_press"":32,""rt"":2462.300000011921,""stimulus"":""https://ziweizhang0304.github.io/Stats_learning_trig/img/Stim/FN_001_g.png""}]","420.5","https://ziweizhang0304.github.io/Stats_learning_trig/img/Stim/FN_002_g.png","post_TD","13","2041.800000011921","2462.300000011921","slow","6","2","5c69a010ec1fb80001c17b34","","","","","",""
"","image-keyboard-response","39","179571","0.0-5.0-13.0-0.0","831.0999999940395","","","https://ziweizhang0304.github.io/Stats_learning_trig/img/Stim/FN_005_g.png","13","","","","","","","","","","","","","","","","","",""
"","animation","40","183993","0.0-5.0-13.0-1.0","","","","","","[{""stimulus"":""https://ziweizhang0304.github.io/Stats_learning_trig/img/Stim/FN_025_g.png"",""time"":351.59999999403954},{""stimulus"":""blank"",""time"":652.0999999940395},{""stimulus"":""https://ziweizhang0304.github.io/Stats_learning_trig/img/Stim/FN_007_g.png"",""time"":681.7999999821186},{""stimulus"":""blank"",""time"":990.5999999940395},{""stimulus"":""https://ziweizhang0304.github.io/Stats_learning_trig/img/Stim/FN_015_g.png"",""time"":1037.199999988079},{""stimulus"":""blank"",""time"":1338},{""stimulus"":""https://ziweizhang0304.github.io/Stats_learning_trig/img/Stim/FN_014_g.png"",""time"":1361.699999988079},{""stimulus"":""blank"",""time"":1669.5},{""stimulus"":""https://ziweizhang0304.github.io/Stats_learning_trig/img/Stim/FN_023_g.png"",""time"":1702.199999988079},{""stimulus"":""blank"",""time"":2007.9000000059605},{""stimulus"":""https://ziweizhang0304.github.io/Stats_learning_trig/img/Stim/FN_005_g.png"",""time"":2040.7999999821186},{""stimulus"":""blank"",""time"":2355.7999999821186},{""stimulus"":""https://ziweizhang0304.github.io/Stats_learning_trig/img/Stim/FN_002_g.png"",""time"":2381.5999999940395},{""stimulus"":""blank"",""time"":2694.5},{""stimulus"":""https://ziweizhang0304.github.io/Stats_learning_trig/img/Stim/FN_001_g.png"",""time"":2721.4000000059605},{""stimulus"":""blank"",""time"":3026.4000000059605},{""stimulus"":""https://ziweizhang0304.github.io/Stats_learning_trig/img/Stim/FN_016_g.png"",""time"":3062.199999988079},{""stimulus"":""blank"",""time"":3363.5999999940395},{""stimulus"":""https://ziweizhang0304.github.io/Stats_learning_trig/img/Stim/FN_026_g.png"",""time"":3402.199999988079},{""stimulus"":""blank"",""time"":3711.7999999821186},{""stimulus"":""https://ziweizhang0304.github.io/Stats_learning_trig/img/Stim/FN_019_g.png"",""time"":3742.5999999940395},{""stimulus"":""blank"",""time"":4044.199999988079},{""stimulus"":""https://ziweizhang0304.github.io/Stats_learning_trig/img/Stim/FN_018_g.png"",""time"":4081},{""stimulus"":""blank"",""time"":4397.699999988079}]","[{""key_press"":32,""rt"":2479.699999988079,""stimulus"":""https://ziweizhang0304.github.io/Stats_learning_trig/img/Stim/FN_002_g.png""}]","438.90000000596046","https://ziweizhang0304.github.io/Stats_learning_trig/img/Stim/FN_005_g.png","post_TD","14","2040.7999999821186","2479.699999988079","slow","6","1","5c69a010ec1fb80001c17b34","","","","","",""
"","image-keyboard-response","41","184664","0.0-5.0-14.0-0.0","667.5999999940395","","","https://ziweizhang0304.github.io/Stats_learning_trig/img/Stim/FN_001_g.png","13","","","","","","","","","","","","","","","","","",""
"","animation","42","189086","0.0-5.0-14.0-1.0","","","","","","[{""stimulus"":""https://ziweizhang0304.github.io/Stats_learning_trig/img/Stim/FN_025_g.png"",""time"":354.2000000178814},{""stimulus"":""blank"",""time"":669.7000000178814},{""stimulus"":""https://ziweizhang0304.github.io/Stats_learning_trig/img/Stim/FN_007_g.png"",""time"":682.5},{""stimulus"":""blank"",""time"":986.2000000178814},{""stimulus"":""https://ziweizhang0304.github.io/Stats_learning_trig/img/Stim/FN_015_g.png"",""time"":1022},{""stimulus"":""blank"",""time"":1324.4000000059605},{""stimulus"":""https://ziweizhang0304.github.io/Stats_learning_trig/img/Stim/FN_014_g.png"",""time"":1362.2000000178814},{""stimulus"":""blank"",""time"":1672.300000011921},{""stimulus"":""https://ziweizhang0304.github.io/Stats_learning_trig/img/Stim/FN_023_g.png"",""time"":1702.0999999940395},{""stimulus"":""blank"",""time"":2011.7000000178814},{""stimulus"":""https://ziweizhang0304.github.io/Stats_learning_trig/img/Stim/FN_005_g.png"",""time"":2043},{""stimulus"":""blank"",""time"":2358.800000011921},{""stimulus"":""https://ziweizhang0304.github.io/Stats_learning_trig/img/Stim/FN_002_g.png"",""time"":2381.7000000178814},{""stimulus"":""blank"",""time"":2690.300000011921},{""stimulus"":""https://ziweizhang0304.github.io/Stats_learning_trig/img/Stim/FN_001_g.png"",""time"":2722.2000000178814},{""stimulus"":""blank"",""time"":3023},{""stimulus"":""https://ziweizhang0304.github.io/Stats_learning_trig/img/Stim/FN_016_g.png"",""time"":3062.4000000059605},{""stimulus"":""blank"",""time"":3375.2000000178814},{""stimulus"":""https://ziweizhang0304.github.io/Stats_learning_trig/img/Stim/FN_026_g.png"",""time"":3401},{""stimulus"":""blank"",""time"":3713.7000000178814},{""stimulus"":""https://ziweizhang0304.github.io/Stats_learning_trig/img/Stim/FN_019_g.png"",""time"":3741.300000011921},{""stimulus"":""blank"",""time"":4042.2000000178814},{""stimulus"":""https://ziweizhang0304.github.io/Stats_learning_trig/img/Stim/FN_018_g.png"",""time"":4081.5999999940395},{""stimulus"":""blank"",""time"":4394.4000000059605}]","[{""key_press"":32,""rt"":3166.7999999821186,""stimulus"":""https://ziweizhang0304.github.io/Stats_learning_trig/img/Stim/FN_016_g.png""}]","444.5999999642372","https://ziweizhang0304.github.io/Stats_learning_trig/img/Stim/FN_001_g.png","post_TD","15","2722.2000000178814","3166.7999999821186","slow","8","3","5c69a010ec1fb80001c17b34","","","","","",""
"","image-keyboard-response","43","189673","0.0-5.0-15.0-0.0","584.4000000059605","","","https://ziweizhang0304.github.io/Stats_learning_trig/img/Stim/FN_006_g.png","13","","","","","","","","","","","","","","","","","",""
"","animation","44","194096","0.0-5.0-15.0-1.0","","","","","","[{""stimulus"":""https://ziweizhang0304.github.io/Stats_learning_trig/img/Stim/FN_023_g.png"",""time"":352.5},{""stimulus"":""blank"",""time"":667.5},{""stimulus"":""https://ziweizhang0304.github.io/Stats_learning_trig/img/Stim/FN_016_g.png"",""time"":681.3999999761581},{""stimulus"":""blank"",""time"":987},{""stimulus"":""https://ziweizhang0304.github.io/Stats_learning_trig/img/Stim/FN_014_g.png"",""time"":1025.699999988079},{""stimulus"":""blank"",""time"":1341.0999999940395},{""stimulus"":""https://ziweizhang0304.github.io/Stats_learning_trig/img/Stim/FN_018_g.png"",""time"":1361.8999999761581},{""stimulus"":""blank"",""time"":1673.0999999940395},{""stimulus"":""https://ziweizhang0304.github.io/Stats_learning_trig/img/Stim/FN_025_g.png"",""time"":1700.7999999821186},{""stimulus"":""blank"",""time"":2012.0999999940395},{""stimulus"":""https://ziweizhang0304.github.io/Stats_learning_trig/img/Stim/FN_026_g.png"",""time"":2041.7999999821186},{""stimulus"":""blank"",""time"":2344.199999988079},{""stimulus"":""https://ziweizhang0304.github.io/Stats_learning_trig/img/Stim/FN_006_g.png"",""time"":2382},{""stimulus"":""blank"",""time"":2691.5999999940395},{""stimulus"":""https://ziweizhang0304.github.io/Stats_learning_trig/img/Stim/FN_008_g.png"",""time"":2721.399999976158},{""stimulus"":""blank"",""time"":3022.2999999821186},{""stimulus"":""https://ziweizhang0304.github.io/Stats_learning_trig/img/Stim/FN_012_g.png"",""time"":3060.7999999821186},{""stimulus"":""blank"",""time"":3362},{""stimulus"":""https://ziweizhang0304.github.io/Stats_learning_trig/img/Stim/FN_015_g.png"",""time"":3401.699999988079},{""stimulus"":""blank"",""time"":3714.5},{""stimulus"":""https://ziweizhang0304.github.io/Stats_learning_trig/img/Stim/FN_019_g.png"",""time"":3742.199999988079},{""stimulus"":""blank"",""time"":4044.199999988079},{""stimulus"":""https://ziweizhang0304.github.io/Stats_learning_trig/img/Stim/FN_007_g.png"",""time"":4081.699999988079},{""stimulus"":""blank"",""time"":4394.399999976158}]","[{""key_press"":32,""rt"":2850.199999988079,""stimulus"":""https://ziweizhang0304.github.io/Stats_learning_trig/img/Stim/FN_008_g.png""}]","468.19999998807907","https://ziweizhang0304.github.io/Stats_learning_trig/img/Stim/FN_006_g.png","post_TD","16","2382","2850.199999988079","fast","7","1","5c69a010ec1fb80001c17b34","","","","","",""
"","image-keyboard-response","45","194805","0.0-5.0-16.0-0.0","706.6999999880791","","","https://ziweizhang0304.github.io/Stats_learning_trig/img/Stim/FN_012_g.png","13","","","","","","","","","","","","","","","","","",""
"","animation","46","199226","0.0-5.0-16.0-1.0","","","","","","[{""stimulus"":""https://ziweizhang0304.github.io/Stats_learning_trig/img/Stim/FN_007_g.png"",""time"":350.19999998807907},{""stimulus"":""blank"",""time"":666.0999999940395},{""stimulus"":""https://ziweizhang0304.github.io/Stats_learning_trig/img/Stim/FN_026_g.png"",""time"":681.8000000119209},{""stimulus"":""blank"",""time"":988.5999999940395},{""stimulus"":""https://ziweizhang0304.github.io/Stats_learning_trig/img/Stim/FN_014_g.png"",""time"":1022.4000000059605},{""stimulus"":""blank"",""time"":1336},{""stimulus"":""https://ziweizhang0304.github.io/Stats_learning_trig/img/Stim/FN_006_g.png"",""time"":1360.699999988079},{""stimulus"":""blank"",""time"":1667.5999999940395},{""stimulus"":""https://ziweizhang0304.github.io/Stats_learning_trig/img/Stim/FN_008_g.png"",""time"":1702.5999999940395},{""stimulus"":""blank"",""time"":2006.0999999940395},{""stimulus"":""https://ziweizhang0304.github.io/Stats_learning_trig/img/Stim/FN_012_g.png"",""time"":2040.9000000059605},{""stimulus"":""blank"",""time"":2354},{""stimulus"":""https://ziweizhang0304.github.io/Stats_learning_trig/img/Stim/FN_016_g.png"",""time"":2380.699999988079},{""stimulus"":""blank"",""time"":2692.5999999940395},{""stimulus"":""https://ziweizhang0304.github.io/Stats_learning_trig/img/Stim/FN_025_g.png"",""time"":2722.300000011921},{""stimulus"":""blank"",""time"":3023.5},{""stimulus"":""https://ziweizhang0304.github.io/Stats_learning_trig/img/Stim/FN_023_g.png"",""time"":3061.9000000059605},{""stimulus"":""blank"",""time"":3371.699999988079},{""stimulus"":""https://ziweizhang0304.github.io/Stats_learning_trig/img/Stim/FN_015_g.png"",""time"":3402.5},{""stimulus"":""blank"",""time"":3709.9000000059605},{""stimulus"":""https://ziweizhang0304.github.io/Stats_learning_trig/img/Stim/FN_019_g.png"",""time"":3741.699999988079},{""stimulus"":""blank"",""time"":4056.699999988079},{""stimulus"":""https://ziweizhang0304.github.io/Stats_learning_trig/img/Stim/FN_018_g.png"",""time"":4081.5},{""stimulus"":""blank"",""time"":4395.300000011921}]","[{""key_press"":32,""rt"":2517.4000000059605,""stimulus"":""https://ziweizhang0304.github.io/Stats_learning_trig/img/Stim/FN_016_g.png""}]","476.5","https://ziweizhang0304.github.io/Stats_learning_trig/img/Stim/FN_012_g.png","post_TD","17","2040.9000000059605","2517.4000000059605","fast","6","3","5c69a010ec1fb80001c17b34","","","","","",""
"","image-keyboard-response","47","200108","0.0-5.0-17.0-0.0","879.2999999821186","","","https://ziweizhang0304.github.io/Stats_learning_trig/img/Stim/FN_005_g.png","13","","","","","","","","","","","","","","","","","",""
"","animation","48","204531","0.0-5.0-17.0-1.0","","","","","","[{""stimulus"":""https://ziweizhang0304.github.io/Stats_learning_trig/img/Stim/FN_014_g.png"",""time"":342.60000002384186},{""stimulus"":""blank"",""time"":657.7000000178814},{""stimulus"":""https://ziweizhang0304.github.io/Stats_learning_trig/img/Stim/FN_023_g.png"",""time"":682.4000000059605},{""stimulus"":""blank"",""time"":996.2000000178814},{""stimulus"":""https://ziweizhang0304.github.io/Stats_learning_trig/img/Stim/FN_016_g.png"",""time"":1022.1000000238419},{""stimulus"":""blank"",""time"":1332.6000000238419},{""stimulus"":""https://ziweizhang0304.github.io/Stats_learning_trig/img/Stim/FN_026_g.png"",""time"":1362.6000000238419},{""stimulus"":""blank"",""time"":1675},{""stimulus"":""https://ziweizhang0304.github.io/Stats_learning_trig/img/Stim/FN_018_g.png"",""time"":1700.7000000178814},{""stimulus"":""blank"",""time"":2013.1000000238419},{""stimulus"":""https://ziweizhang0304.github.io/Stats_learning_trig/img/Stim/FN_015_g.png"",""time"":2040.9000000059605},{""stimulus"":""blank"",""time"":2345.300000011921},{""stimulus"":""https://ziweizhang0304.github.io/Stats_learning_trig/img/Stim/FN_005_g.png"",""time"":2382.100000023842},{""stimulus"":""blank"",""time"":2684},{""stimulus"":""https://ziweizhang0304.github.io/Stats_learning_trig/img/Stim/FN_002_g.png"",""time"":2722.600000023842},{""stimulus"":""blank"",""time"":3030.4000000059605},{""stimulus"":""https://ziweizhang0304.github.io/Stats_learning_trig/img/Stim/FN_001_g.png"",""time"":3061.2000000178814},{""stimulus"":""blank"",""time"":3362.4000000059605},{""stimulus"":""https://ziweizhang0304.github.io/Stats_learning_trig/img/Stim/FN_025_g.png"",""time"":3401.300000011921},{""stimulus"":""blank"",""time"":3701.4000000059605},{""stimulus"":""https://ziweizhang0304.github.io/Stats_learning_trig/img/Stim/FN_019_g.png"",""time"":3754},{""stimulus"":""blank"",""time"":4064.800000011921},{""stimulus"":""https://ziweizhang0304.github.io/Stats_learning_trig/img/Stim/FN_007_g.png"",""time"":4082.600000023842},{""stimulus"":""blank"",""time"":4403.5}]","[{""key_press"":32,""rt"":2779.5999999940395,""stimulus"":""https://ziweizhang0304.github.io/Stats_learning_trig/img/Stim/FN_002_g.png""}]","397.4999999701977","https://ziweizhang0304.github.io/Stats_learning_trig/img/Stim/FN_005_g.png","post_TD","18","2382.100000023842","2779.5999999940395","slow","7","1","5c69a010ec1fb80001c17b34","","","","","",""
"","image-keyboard-response","49","205399","0.0-5.0-18.0-0.0","865.0999999940395","","","https://ziweizhang0304.github.io/Stats_learning_trig/img/Stim/FN_005_g.png","13","","","","","","","","","","","","","","","","","",""
"","animation","50","209821","0.0-5.0-18.0-1.0","","","","","","[{""stimulus"":""https://ziweizhang0304.github.io/Stats_learning_trig/img/Stim/FN_016_g.png"",""time"":348.30000001192093},{""stimulus"":""blank"",""time"":663.7000000178814},{""stimulus"":""https://ziweizhang0304.github.io/Stats_learning_trig/img/Stim/FN_019_g.png"",""time"":681.5},{""stimulus"":""blank"",""time"":995.2000000178814},{""stimulus"":""https://ziweizhang0304.github.io/Stats_learning_trig/img/Stim/FN_025_g.png"",""time"":1020.9000000059605},{""stimulus"":""blank"",""time"":1333.7000000178814},{""stimulus"":""https://ziweizhang0304.github.io/Stats_learning_trig/img/Stim/FN_014_g.png"",""time"":1362.4000000059605},{""stimulus"":""blank"",""time"":1665.7000000178814},{""stimulus"":""https://ziweizhang0304.github.io/Stats_learning_trig/img/Stim/FN_005_g.png"",""time"":1719.5},{""stimulus"":""blank"",""time"":2035},{""stimulus"":""https://ziweizhang0304.github.io/Stats_learning_trig/img/Stim/FN_002_g.png"",""time"":2040.6000000238419},{""stimulus"":""blank"",""time"":2342.5},{""stimulus"":""https://ziweizhang0304.github.io/Stats_learning_trig/img/Stim/FN_001_g.png"",""time"":2381.9000000059605},{""stimulus"":""blank"",""time"":2682.7000000178814},{""stimulus"":""https://ziweizhang0304.github.io/Stats_learning_trig/img/Stim/FN_026_g.png"",""time"":2735.5},{""stimulus"":""blank"",""time"":3037},{""stimulus"":""https://ziweizhang0304.github.io/Stats_learning_trig/img/Stim/FN_023_g.png"",""time"":3061.7000000178814},{""stimulus"":""blank"",""time"":3369.100000023842},{""stimulus"":""https://ziweizhang0304.github.io/Stats_learning_trig/img/Stim/FN_015_g.png"",""time"":3400.9000000059605},{""stimulus"":""blank"",""time"":3722.5},{""stimulus"":""https://ziweizhang0304.github.io/Stats_learning_trig/img/Stim/FN_018_g.png"",""time"":3742.2000000178814},{""stimulus"":""blank"",""time"":4054.600000023842},{""stimulus"":""https://ziweizhang0304.github.io/Stats_learning_trig/img/Stim/FN_007_g.png"",""time"":4081.5},{""stimulus"":""blank"",""time"":4386.600000023842}]","[{""key_press"":32,""rt"":2183.899999976158,""stimulus"":""https://ziweizhang0304.github.io/Stats_learning_trig/img/Stim/FN_002_g.png""}]","464.39999997615814","https://ziweizhang0304.github.io/Stats_learning_trig/img/Stim/FN_005_g.png","post_TD","19","1719.5","2183.899999976158","slow","5","1","5c69a010ec1fb80001c17b34","","","","","",""
"","image-keyboard-response","51","210903","0.0-5.0-19.0-0.0","1078.5999999940395","","","https://ziweizhang0304.github.io/Stats_learning_trig/img/Stim/FN_002_g.png","13","","","","","","","","","","","","","","","","","",""
"","animation","52","215324","0.0-5.0-19.0-1.0","","","","","","[{""stimulus"":""https://ziweizhang0304.github.io/Stats_learning_trig/img/Stim/FN_014_g.png"",""time"":342.30000001192093},{""stimulus"":""blank"",""time"":644.3000000119209},{""stimulus"":""https://ziweizhang0304.github.io/Stats_learning_trig/img/Stim/FN_023_g.png"",""time"":681.8000000119209},{""stimulus"":""blank"",""time"":989.4000000059605},{""stimulus"":""https://ziweizhang0304.github.io/Stats_learning_trig/img/Stim/FN_016_g.png"",""time"":1022.4000000059605},{""stimulus"":""blank"",""time"":1325.5999999940395},{""stimulus"":""https://ziweizhang0304.github.io/Stats_learning_trig/img/Stim/FN_026_g.png"",""time"":1362.199999988079},{""stimulus"":""blank"",""time"":1673.699999988079},{""stimulus"":""https://ziweizhang0304.github.io/Stats_learning_trig/img/Stim/FN_018_g.png"",""time"":1701.5},{""stimulus"":""blank"",""time"":2002.800000011921},{""stimulus"":""https://ziweizhang0304.github.io/Stats_learning_trig/img/Stim/FN_015_g.png"",""time"":2042.0999999940395},{""stimulus"":""blank"",""time"":2343},{""stimulus"":""https://ziweizhang0304.github.io/Stats_learning_trig/img/Stim/FN_005_g.png"",""time"":2382.5},{""stimulus"":""blank"",""time"":2689.4000000059605},{""stimulus"":""https://ziweizhang0304.github.io/Stats_learning_trig/img/Stim/FN_002_g.png"",""time"":2722.300000011921},{""stimulus"":""blank"",""time"":3027.800000011921},{""stimulus"":""https://ziweizhang0304.github.io/Stats_learning_trig/img/Stim/FN_001_g.png"",""time"":3062.5999999940395},{""stimulus"":""blank"",""time"":3374.199999988079},{""stimulus"":""https://ziweizhang0304.github.io/Stats_learning_trig/img/Stim/FN_025_g.png"",""time"":3402.0999999940395},{""stimulus"":""blank"",""time"":3704.199999988079},{""stimulus"":""https://ziweizhang0304.github.io/Stats_learning_trig/img/Stim/FN_019_g.png"",""time"":3741.0999999940395},{""stimulus"":""blank"",""time"":4041.5999999940395},{""stimulus"":""https://ziweizhang0304.github.io/Stats_learning_trig/img/Stim/FN_007_g.png"",""time"":4082.0999999940395},{""stimulus"":""blank"",""time"":4389.5}]","[{""key_press"":32,""rt"":3070.0999999940395,""stimulus"":""https://ziweizhang0304.github.io/Stats_learning_trig/img/Stim/FN_001_g.png""}]","347.7999999821186","https://ziweizhang0304.github.io/Stats_learning_trig/img/Stim/FN_002_g.png","post_TD","20","2722.300000011921","3070.0999999940395","slow","8","2","5c69a010ec1fb80001c17b34","","","","","",""
"","image-keyboard-response","53","215959","0.0-5.0-20.0-0.0","631.3999999761581","","","https://ziweizhang0304.github.io/Stats_learning_trig/img/Stim/FN_001_g.png","13","","","","","","","","","","","","","","","","","",""
"","animation","54","220381","0.0-5.0-20.0-1.0","","","","","","[{""stimulus"":""https://ziweizhang0304.github.io/Stats_learning_trig/img/Stim/FN_014_g.png"",""time"":352.39999997615814},{""stimulus"":""blank"",""time"":674},{""stimulus"":""https://ziweizhang0304.github.io/Stats_learning_trig/img/Stim/FN_023_g.png"",""time"":681.5999999940395},{""stimulus"":""blank"",""time"":983.5999999940395},{""stimulus"":""https://ziweizhang0304.github.io/Stats_learning_trig/img/Stim/FN_016_g.png"",""time"":1021.0999999940395},{""stimulus"":""blank"",""time"":1332.0999999940395},{""stimulus"":""https://ziweizhang0304.github.io/Stats_learning_trig/img/Stim/FN_026_g.png"",""time"":1362},{""stimulus"":""blank"",""time"":1676.0999999940395},{""stimulus"":""https://ziweizhang0304.github.io/Stats_learning_trig/img/Stim/FN_018_g.png"",""time"":1702},{""stimulus"":""blank"",""time"":2003.2999999821186},{""stimulus"":""https://ziweizhang0304.github.io/Stats_learning_trig/img/Stim/FN_015_g.png"",""time"":2041.7999999821186},{""stimulus"":""blank"",""time"":2348.0999999940395},{""stimulus"":""https://ziweizhang0304.github.io/Stats_learning_trig/img/Stim/FN_005_g.png"",""time"":2382},{""stimulus"":""blank"",""time"":2693},{""stimulus"":""https://ziweizhang0304.github.io/Stats_learning_trig/img/Stim/FN_002_g.png"",""time"":2721.899999976158},{""stimulus"":""blank"",""time"":3031.5},{""stimulus"":""https://ziweizhang0304.github.io/Stats_learning_trig/img/Stim/FN_001_g.png"",""time"":3061.5999999940395},{""stimulus"":""blank"",""time"":3378.699999988079},{""stimulus"":""https://ziweizhang0304.github.io/Stats_learning_trig/img/Stim/FN_025_g.png"",""time"":3401.899999976158},{""stimulus"":""blank"",""time"":3710.699999988079},{""stimulus"":""https://ziweizhang0304.github.io/Stats_learning_trig/img/Stim/FN_019_g.png"",""time"":3741.399999976158},{""stimulus"":""blank"",""time"":4042.699999988079},{""stimulus"":""https://ziweizhang0304.github.io/Stats_learning_trig/img/Stim/FN_007_g.png"",""time"":4082},{""stimulus"":""blank"",""time"":4398}]","[{""key_press"":32,""rt"":3454.5999999940395,""stimulus"":""https://ziweizhang0304.github.io/Stats_learning_trig/img/Stim/FN_025_g.png""}]","393","https://ziweizhang0304.github.io/Stats_learning_trig/img/Stim/FN_001_g.png","post_TD","21","3061.5999999940395","3454.5999999940395","slow","9","3","5c69a010ec1fb80001c17b34","","","","","",""
"","image-keyboard-response","55","220996","0.0-5.0-21.0-0.0","610.8000000119209","","","https://ziweizhang0304.github.io/Stats_learning_trig/img/Stim/FN_012_g.png","13","","","","","","","","","","","","","","","","","",""
"","animation","56","225433","0.0-5.0-21.0-1.0","","","","","","[{""stimulus"":""https://ziweizhang0304.github.io/Stats_learning_trig/img/Stim/FN_015_g.png"",""time"":349.80000001192093},{""stimulus"":""blank"",""time"":665.5},{""stimulus"":""https://ziweizhang0304.github.io/Stats_learning_trig/img/Stim/FN_023_g.png"",""time"":682.5},{""stimulus"":""blank"",""time"":997.0999999940395},{""stimulus"":""https://ziweizhang0304.github.io/Stats_learning_trig/img/Stim/FN_016_g.png"",""time"":1022.5},{""stimulus"":""blank"",""time"":1329.4000000059605},{""stimulus"":""https://ziweizhang0304.github.io/Stats_learning_trig/img/Stim/FN_025_g.png"",""time"":1361.699999988079},{""stimulus"":""blank"",""time"":1669},{""stimulus"":""https://ziweizhang0304.github.io/Stats_learning_trig/img/Stim/FN_014_g.png"",""time"":1700.9000000059605},{""stimulus"":""blank"",""time"":2002.300000011921},{""stimulus"":""https://ziweizhang0304.github.io/Stats_learning_trig/img/Stim/FN_006_g.png"",""time"":2041.800000011921},{""stimulus"":""blank"",""time"":2354.199999988079},{""stimulus"":""https://ziweizhang0304.github.io/Stats_learning_trig/img/Stim/FN_008_g.png"",""time"":2382.300000011921},{""stimulus"":""blank"",""time"":2686.0999999940395},{""stimulus"":""https://ziweizhang0304.github.io/Stats_learning_trig/img/Stim/FN_012_g.png"",""time"":2722.0999999940395},{""stimulus"":""blank"",""time"":3034.199999988079},{""stimulus"":""https://ziweizhang0304.github.io/Stats_learning_trig/img/Stim/FN_026_g.png"",""time"":3061.4000000059605},{""stimulus"":""blank"",""time"":3373.0999999940395},{""stimulus"":""https://ziweizhang0304.github.io/Stats_learning_trig/img/Stim/FN_019_g.png"",""time"":3402.0999999940395},{""stimulus"":""blank"",""time"":3704.699999988079},{""stimulus"":""https://ziweizhang0304.github.io/Stats_learning_trig/img/Stim/FN_018_g.png"",""time"":3741.9000000059605},{""stimulus"":""blank"",""time"":4059},{""stimulus"":""https://ziweizhang0304.github.io/Stats_learning_trig/img/Stim/FN_007_g.png"",""time"":4082},{""stimulus"":""blank"",""time"":4391.0999999940395}]","[{""key_press"":32,""rt"":2707.2000000178814,""stimulus"":""blank""}]","NaN","https://ziweizhang0304.github.io/Stats_learning_trig/img/Stim/FN_012_g.png","post_TD","22","2722.0999999940395","","fast","8","3","5c69a010ec1fb80001c17b34","","","","","",""
"","image-keyboard-response","57","227444","0.0-5.0-22.0-0.0","2006.699999988079","","","https://ziweizhang0304.github.io/Stats_learning_trig/img/Stim/FN_008_g.png","13","","","","","","","","","","","","","","","","","",""
"","animation","58","231867","0.0-5.0-22.0-1.0","","","","","","[{""stimulus"":""https://ziweizhang0304.github.io/Stats_learning_trig/img/Stim/FN_007_g.png"",""time"":341.90000000596046},{""stimulus"":""blank"",""time"":653.3000000119209},{""stimulus"":""https://ziweizhang0304.github.io/Stats_learning_trig/img/Stim/FN_016_g.png"",""time"":682.5},{""stimulus"":""blank"",""time"":986.2000000178814},{""stimulus"":""https://ziweizhang0304.github.io/Stats_learning_trig/img/Stim/FN_014_g.png"",""time"":1022.0999999940395},{""stimulus"":""blank"",""time"":1324.4000000059605},{""stimulus"":""https://ziweizhang0304.github.io/Stats_learning_trig/img/Stim/FN_019_g.png"",""time"":1361.5},{""stimulus"":""blank"",""time"":1672.800000011921},{""stimulus"":""https://ziweizhang0304.github.io/Stats_learning_trig/img/Stim/FN_006_g.png"",""time"":1701.4000000059605},{""stimulus"":""blank"",""time"":2004.0999999940395},{""stimulus"":""https://ziweizhang0304.github.io/Stats_learning_trig/img/Stim/FN_008_g.png"",""time"":2042.7000000178814},{""stimulus"":""blank"",""time"":2358.800000011921},{""stimulus"":""https://ziweizhang0304.github.io/Stats_learning_trig/img/Stim/FN_012_g.png"",""time"":2381.800000011921},{""stimulus"":""blank"",""time"":2690.5999999940395},{""stimulus"":""https://ziweizhang0304.github.io/Stats_learning_trig/img/Stim/FN_026_g.png"",""time"":2722.7000000178814},{""stimulus"":""blank"",""time"":3030.0999999940395},{""stimulus"":""https://ziweizhang0304.github.io/Stats_learning_trig/img/Stim/FN_025_g.png"",""time"":3061.7000000178814},{""stimulus"":""blank"",""time"":3377.4000000059605},{""stimulus"":""https://ziweizhang0304.github.io/Stats_learning_trig/img/Stim/FN_023_g.png"",""time"":3401.2000000178814},{""stimulus"":""blank"",""time"":3709},{""stimulus"":""https://ziweizhang0304.github.io/Stats_learning_trig/img/Stim/FN_015_g.png"",""time"":3741.800000011921},{""stimulus"":""blank"",""time"":4047.5},{""stimulus"":""https://ziweizhang0304.github.io/Stats_learning_trig/img/Stim/FN_018_g.png"",""time"":4082},{""stimulus"":""blank"",""time"":4394.9000000059605}]","[{""key_press"":32,""rt"":2476.0999999940395,""stimulus"":""https://ziweizhang0304.github.io/Stats_learning_trig/img/Stim/FN_012_g.png""}]","433.39999997615814","https://ziweizhang0304.github.io/Stats_learning_trig/img/Stim/FN_008_g.png","post_TD","23","2042.7000000178814","2476.0999999940395","fast","6","2","5c69a010ec1fb80001c17b34","","","","","",""
"","image-keyboard-response","59","232657","0.0-5.0-23.0-0.0","786.9000000059605","","","https://ziweizhang0304.github.io/Stats_learning_trig/img/Stim/FN_002_g.png","13","","","","","","","","","","","","","","","","","",""
"","animation","60","237079","0.0-5.0-23.0-1.0","","","","","","[{""stimulus"":""https://ziweizhang0304.github.io/Stats_learning_trig/img/Stim/FN_025_g.png"",""time"":342.2000000178814},{""stimulus"":""blank"",""time"":643.1000000238419},{""stimulus"":""https://ziweizhang0304.github.io/Stats_learning_trig/img/Stim/FN_007_g.png"",""time"":681.7000000178814},{""stimulus"":""blank"",""time"":985.6000000238419},{""stimulus"":""https://ziweizhang0304.github.io/Stats_learning_trig/img/Stim/FN_015_g.png"",""time"":1022.8000000119209},{""stimulus"":""blank"",""time"":1323.1000000238419},{""stimulus"":""https://ziweizhang0304.github.io/Stats_learning_trig/img/Stim/FN_014_g.png"",""time"":1361.9000000059605},{""stimulus"":""blank"",""time"":1668.2000000178814},{""stimulus"":""https://ziweizhang0304.github.io/Stats_learning_trig/img/Stim/FN_023_g.png"",""time"":1702.1000000238419},{""stimulus"":""blank"",""time"":2023.5},{""stimulus"":""https://ziweizhang0304.github.io/Stats_learning_trig/img/Stim/FN_005_g.png"",""time"":2041.1000000238419},{""stimulus"":""blank"",""time"":2341.7000000178814},{""stimulus"":""https://ziweizhang0304.github.io/Stats_learning_trig/img/Stim/FN_002_g.png"",""time"":2382.100000023842},{""stimulus"":""blank"",""time"":2684.800000011921},{""stimulus"":""https://ziweizhang0304.github.io/Stats_learning_trig/img/Stim/FN_001_g.png"",""time"":2722.7000000178814},{""stimulus"":""blank"",""time"":3024.800000011921},{""stimulus"":""https://ziweizhang0304.github.io/Stats_learning_trig/img/Stim/FN_016_g.png"",""time"":3062.4000000059605},{""stimulus"":""blank"",""time"":3368},{""stimulus"":""https://ziweizhang0304.github.io/Stats_learning_trig/img/Stim/FN_026_g.png"",""time"":3401.9000000059605},{""stimulus"":""blank"",""time"":3725},{""stimulus"":""https://ziweizhang0304.github.io/Stats_learning_trig/img/Stim/FN_019_g.png"",""time"":3741.800000011921},{""stimulus"":""blank"",""time"":4057},{""stimulus"":""https://ziweizhang0304.github.io/Stats_learning_trig/img/Stim/FN_018_g.png"",""time"":4081.800000011921},{""stimulus"":""blank"",""time"":4384.700000017881}]","[{""key_press"":32,""rt"":2731.5999999940395,""stimulus"":""https://ziweizhang0304.github.io/Stats_learning_trig/img/Stim/FN_001_g.png""}]","349.4999999701977","https://ziweizhang0304.github.io/Stats_learning_trig/img/Stim/FN_002_g.png","post_TD","24","2382.100000023842","2731.5999999940395","slow","7","2","5c69a010ec1fb80001c17b34","a3d90","","","","",""
"","survey-text","61","287330","0.0-6.0","50239.30000001192","","","","","","","","","","","","","","","","","","{""Q0"":""I tried to give a name to each shape to remember what it is, and then I pressed the spacebar as soon as I saw it. I also tried to be careful not to confuse it with other shapes.""}","","","",""
"","survey-text","62","325160","0.0-7.0","37823.80000001192","","","","","","","","","","","","","","","","","","{""[object Object]"":""Some of the shapes definitely repeated. Some of the shapes had some similarities, so I had to be careful not to get confused.""}","","","",""
"","instructions","63","343682","0.0-8.0","18521.09999999404","","[{""page_index"":0,""viewing_time"":18520.59999999404}]","","","","","","","","","","","","","","","","","","","",""
"","free-sort","64","396941","0.0-9.0","53256.5","","","","","","","","","post_drag","","","","fast","","","","","","[{""src"":""https://ziweizhang0304.github.io/Stats_learning_trig/img/Stim/FN_012_g.png"",""x"":475,""y"":0},{""src"":""https://ziweizhang0304.github.io/Stats_learning_trig/img/Stim/FN_008_g.png"",""x"":-225,""y"":50},{""src"":""https://ziweizhang0304.github.io/Stats_learning_trig/img/Stim/FN_006_g.png"",""x"":475,""y"":50}]","[{""src"":""https://ziweizhang0304.github.io/Stats_learning_trig/img/Stim/FN_006_g.png"",""x"":201,""y"":16},{""src"":""https://ziweizhang0304.github.io/Stats_learning_trig/img/Stim/FN_006_g.png"",""x"":67,""y"":18},{""src"":""https://ziweizhang0304.github.io/Stats_learning_trig/img/Stim/FN_006_g.png"",""x"":48,""y"":17},{""src"":""https://ziweizhang0304.github.io/Stats_learning_trig/img/Stim/FN_012_g.png"",""x"":159,""y"":18},{""src"":""https://ziweizhang0304.github.io/Stats_learning_trig/img/Stim/FN_012_g.png"",""x"":159,""y"":18},{""src"":""https://ziweizhang0304.github.io/Stats_learning_trig/img/Stim/FN_012_g.png"",""x"":159,""y"":18},{""src"":""https://ziweizhang0304.github.io/Stats_learning_trig/img/Stim/FN_012_g.png"",""x"":127,""y"":18},{""src"":""https://ziweizhang0304.github.io/Stats_learning_trig/img/Stim/FN_008_g.png"",""x"":41,""y"":32},{""src"":""https://ziweizhang0304.github.io/Stats_learning_trig/img/Stim/FN_008_g.png"",""x"":213,""y"":15}]","[{""src"":""https://ziweizhang0304.github.io/Stats_learning_trig/img/Stim/FN_012_g.png"",""x"":127,""y"":18},{""src"":""https://ziweizhang0304.github.io/Stats_learning_trig/img/Stim/FN_008_g.png"",""x"":213,""y"":15},{""src"":""https://ziweizhang0304.github.io/Stats_learning_trig/img/Stim/FN_006_g.png"",""x"":48,""y"":17}]",""
"","free-sort","65","415675","0.0-10.0","18732.90000000596","","","","","","","","","post_drag","","","","slow","","","","","","[{""src"":""https://ziweizhang0304.github.io/Stats_learning_trig/img/Stim/FN_001_g.png"",""x"":475,""y"":0},{""src"":""https://ziweizhang0304.github.io/Stats_learning_trig/img/Stim/FN_002_g.png"",""x"":-225,""y"":50},{""src"":""https://ziweizhang0304.github.io/Stats_learning_trig/img/Stim/FN_005_g.png"",""x"":475,""y"":50}]","[{""src"":""https://ziweizhang0304.github.io/Stats_learning_trig/img/Stim/FN_005_g.png"",""x"":47,""y"":59},{""src"":""https://ziweizhang0304.github.io/Stats_learning_trig/img/Stim/FN_005_g.png"",""x"":35,""y"":19},{""src"":""https://ziweizhang0304.github.io/Stats_learning_trig/img/Stim/FN_002_g.png"",""x"":120,""y"":14},{""src"":""https://ziweizhang0304.github.io/Stats_learning_trig/img/Stim/FN_001_g.png"",""x"":215,""y"":22}]","[{""src"":""https://ziweizhang0304.github.io/Stats_learning_trig/img/Stim/FN_001_g.png"",""x"":215,""y"":22},{""src"":""https://ziweizhang0304.github.io/Stats_learning_trig/img/Stim/FN_002_g.png"",""x"":120,""y"":14},{""src"":""https://ziweizhang0304.github.io/Stats_learning_trig/img/Stim/FN_005_g.png"",""x"":35,""y"":19}]",""
"","survey-multi-choice","66","431140","0.0-11.0","15458.199999988079","","","","","","","","","","","","","","","","5c69a010ec1fb80001c17b34","","{""awareness"":""No"",""attention_check"":""Press SPACEBAR to a target""}","","","","[0,1]"
