"success","trial_type","trial_index","time_elapsed","internal_node_id","rt","url","view_history","stimulus","key_press","animation_sequence","response","TD_rt","TD_target","test_part","TD_trial_number","onset","offset","attention_state","TD_target_position","TD_within_triplet_counter","participant","yoke_participant","responses","init_locations","moves","final_locations","question_order"
"true","fullscreen","0","3193","0.0-0.0","","","","","","","","","","","","","","","","","","","","","","",""
"","external-html","1","39217","0.0-1.0","35645.699999999255","https://ziweizhang0304.github.io/Stats_learning_trig/content/consent.html","","","","","","","","","","","","","","","","","","","","",""
"","instructions","2","64876","0.0-2.0","25657.199999999255","","[{""page_index"":0,""viewing_time"":1675.300000000745},{""page_index"":1,""viewing_time"":17870.199999999255},{""page_index"":2,""viewing_time"":5216.5},{""page_index"":3,""viewing_time"":894.6000000014901}]","","","","","","","","","","","","","","","","","","","",""
"","image-keyboard-response","3","69781","0.0-3.0-0.0-0.0","4903.800000000745","","","https://ziweizhang0304.github.io/Stats_learning_trig/img/Stim/FN_003_g.png","13","","","","","","","","","","","","","","","","","",""
"","animation","4","74204","0.0-3.0-0.0-1.0","","","","","","[{""stimulus"":""https://ziweizhang0304.github.io/Stats_learning_trig/img/Stim/FN_015_g.png"",""time"":356.3999999985099},{""stimulus"":""blank"",""time"":658},{""stimulus"":""https://ziweizhang0304.github.io/Stats_learning_trig/img/Stim/FN_003_g.png"",""time"":682.3000000007451},{""stimulus"":""blank"",""time"":983.8999999985099},{""stimulus"":""https://ziweizhang0304.github.io/Stats_learning_trig/img/Stim/FN_023_g.png"",""time"":1022.1999999992549},{""stimulus"":""blank"",""time"":1323.8999999985099},{""stimulus"":""https://ziweizhang0304.github.io/Stats_learning_trig/img/Stim/FN_025_g.png"",""time"":1361.1000000014901},{""stimulus"":""blank"",""time"":1662},{""stimulus"":""https://ziweizhang0304.github.io/Stats_learning_trig/img/Stim/FN_006_g.png"",""time"":1702.3999999985099},{""stimulus"":""blank"",""time"":2004},{""stimulus"":""https://ziweizhang0304.github.io/Stats_learning_trig/img/Stim/FN_014_g.png"",""time"":2042.3999999985099},{""stimulus"":""blank"",""time"":2343.89999999851},{""stimulus"":""https://ziweizhang0304.github.io/Stats_learning_trig/img/Stim/FN_012_g.png"",""time"":2382.300000000745},{""stimulus"":""blank"",""time"":2684},{""stimulus"":""https://ziweizhang0304.github.io/Stats_learning_trig/img/Stim/FN_026_g.png"",""time"":2722.39999999851},{""stimulus"":""blank"",""time"":3023.89999999851},{""stimulus"":""https://ziweizhang0304.github.io/Stats_learning_trig/img/Stim/FN_010_g.png"",""time"":3061.199999999255},{""stimulus"":""blank"",""time"":3362.300000000745},{""stimulus"":""https://ziweizhang0304.github.io/Stats_learning_trig/img/Stim/FN_011_g.png"",""time"":3402.800000000745},{""stimulus"":""blank"",""time"":3704.300000000745},{""stimulus"":""https://ziweizhang0304.github.io/Stats_learning_trig/img/Stim/FN_017_g.png"",""time"":3741.39999999851},{""stimulus"":""blank"",""time"":4042.699999999255},{""stimulus"":""https://ziweizhang0304.github.io/Stats_learning_trig/img/Stim/FN_008_g.png"",""time"":4081.89999999851},{""stimulus"":""blank"",""time"":4383.800000000745}]","[{""key_press"":32,""rt"":1201,""stimulus"":""https://ziweizhang0304.github.io/Stats_learning_trig/img/Stim/FN_023_g.png""}]","518.6999999992549","https://ziweizhang0304.github.io/Stats_learning_trig/img/Stim/FN_003_g.png","post_prac","","","","","","","","","","","","",""
"","html-keyboard-response","5","77695","0.0-3.0-0.0-2.0","3486.39999999851","","","<p>Your reaction time for this trial was 518.7 ms.</p><p>Remember that you should only press the SPACEBAR when you see the shape presented at the beginning of the trial. </b> </p><p>Press enter to move on.</p>","13","","","","","","","","","","","","","","","","","",""
"","image-keyboard-response","6","82116","0.0-3.0-1.0-0.0","4419.70000000298","","","https://ziweizhang0304.github.io/Stats_learning_trig/img/Stim/FN_008_g.png","13","","","","","","","","","","","","","","","","","",""
"","animation","7","86538","0.0-3.0-1.0-1.0","","","","","","[{""stimulus"":""https://ziweizhang0304.github.io/Stats_learning_trig/img/Stim/FN_011_g.png"",""time"":342.19999999925494},{""stimulus"":""blank"",""time"":643.5999999977648},{""stimulus"":""https://ziweizhang0304.github.io/Stats_learning_trig/img/Stim/FN_023_g.png"",""time"":682},{""stimulus"":""blank"",""time"":983.0999999977648},{""stimulus"":""https://ziweizhang0304.github.io/Stats_learning_trig/img/Stim/FN_017_g.png"",""time"":1022.1999999992549},{""stimulus"":""blank"",""time"":1323.5},{""stimulus"":""https://ziweizhang0304.github.io/Stats_learning_trig/img/Stim/FN_014_g.png"",""time"":1362},{""stimulus"":""blank"",""time"":1663.5999999977648},{""stimulus"":""https://ziweizhang0304.github.io/Stats_learning_trig/img/Stim/FN_008_g.png"",""time"":1702.0999999977648},{""stimulus"":""blank"",""time"":2003.800000000745},{""stimulus"":""https://ziweizhang0304.github.io/Stats_learning_trig/img/Stim/FN_010_g.png"",""time"":2042.0999999977648},{""stimulus"":""blank"",""time"":2343.39999999851},{""stimulus"":""https://ziweizhang0304.github.io/Stats_learning_trig/img/Stim/FN_003_g.png"",""time"":2381.599999997765},{""stimulus"":""blank"",""time"":2683.300000000745},{""stimulus"":""https://ziweizhang0304.github.io/Stats_learning_trig/img/Stim/FN_015_g.png"",""time"":2721.39999999851},{""stimulus"":""blank"",""time"":3023.099999997765},{""stimulus"":""https://ziweizhang0304.github.io/Stats_learning_trig/img/Stim/FN_026_g.png"",""time"":3062.5},{""stimulus"":""blank"",""time"":3364.199999999255},{""stimulus"":""https://ziweizhang0304.github.io/Stats_learning_trig/img/Stim/FN_025_g.png"",""time"":3402.599999997765},{""stimulus"":""blank"",""time"":3704.099999997765},{""stimulus"":""https://ziweizhang0304.github.io/Stats_learning_trig/img/Stim/FN_006_g.png"",""time"":3742.5},{""stimulus"":""blank"",""time"":4044.199999999255},{""stimulus"":""https://ziweizhang0304.github.io/Stats_learning_trig/img/Stim/FN_012_g.png"",""time"":4082.599999997765},{""stimulus"":""blank"",""time"":4384.099999997765}]","[{""key_press"":32,""rt"":2155.400000002235,""stimulus"":""https://ziweizhang0304.github.io/Stats_learning_trig/img/Stim/FN_010_g.png""}]","453.30000000447035","https://ziweizhang0304.github.io/Stats_learning_trig/img/Stim/FN_008_g.png","post_prac","","","","","","","","","","","","",""
"","html-keyboard-response","8","88704","0.0-3.0-1.0-2.0","2164","","","<p>Your reaction time for this trial was 453.3 ms.</p><p>Remember that you should only press the SPACEBAR when you see the shape presented at the beginning of the trial. </b> </p><p>Press enter to move on.</p>","13","","","","","","","","","","","","","","","","","",""
"","image-keyboard-response","9","91676","0.0-3.0-2.0-0.0","2971.60000000149","","","https://ziweizhang0304.github.io/Stats_learning_trig/img/Stim/FN_022_g.png","13","","","","","","","","","","","","","","","","","",""
"","animation","10","96098","0.0-3.0-2.0-1.0","","","","","","[{""stimulus"":""https://ziweizhang0304.github.io/Stats_learning_trig/img/Stim/FN_014_g.png"",""time"":342.30000000074506},{""stimulus"":""blank"",""time"":642.8999999985099},{""stimulus"":""https://ziweizhang0304.github.io/Stats_learning_trig/img/Stim/FN_015_g.png"",""time"":682},{""stimulus"":""blank"",""time"":983.6999999992549},{""stimulus"":""https://ziweizhang0304.github.io/Stats_learning_trig/img/Stim/FN_025_g.png"",""time"":1021.1999999992549},{""stimulus"":""blank"",""time"":1322.199999999255},{""stimulus"":""https://ziweizhang0304.github.io/Stats_learning_trig/img/Stim/FN_012_g.png"",""time"":1361.5},{""stimulus"":""blank"",""time"":1663.300000000745},{""stimulus"":""https://ziweizhang0304.github.io/Stats_learning_trig/img/Stim/FN_026_g.png"",""time"":1700.800000000745},{""stimulus"":""blank"",""time"":2002.5},{""stimulus"":""https://ziweizhang0304.github.io/Stats_learning_trig/img/Stim/FN_013_g.png"",""time"":2041.800000000745},{""stimulus"":""blank"",""time"":2343.699999999255},{""stimulus"":""https://ziweizhang0304.github.io/Stats_learning_trig/img/Stim/FN_022_g.png"",""time"":2381.800000000745},{""stimulus"":""blank"",""time"":2683.599999997765},{""stimulus"":""https://ziweizhang0304.github.io/Stats_learning_trig/img/Stim/FN_007_g.png"",""time"":2721.199999999255},{""stimulus"":""blank"",""time"":3022.39999999851},{""stimulus"":""https://ziweizhang0304.github.io/Stats_learning_trig/img/Stim/FN_017_g.png"",""time"":3060.599999997765},{""stimulus"":""blank"",""time"":3361.599999997765},{""stimulus"":""https://ziweizhang0304.github.io/Stats_learning_trig/img/Stim/FN_023_g.png"",""time"":3401.599999997765},{""stimulus"":""blank"",""time"":3702.699999999255},{""stimulus"":""https://ziweizhang0304.github.io/Stats_learning_trig/img/Stim/FN_006_g.png"",""time"":3742.199999999255},{""stimulus"":""blank"",""time"":4044},{""stimulus"":""https://ziweizhang0304.github.io/Stats_learning_trig/img/Stim/FN_011_g.png"",""time"":4082.5},{""stimulus"":""blank"",""time"":4383.599999997765}]","[{""key_press"":32,""rt"":2752.60000000149,""stimulus"":""https://ziweizhang0304.github.io/Stats_learning_trig/img/Stim/FN_007_g.png""}]","370.80000000074506","https://ziweizhang0304.github.io/Stats_learning_trig/img/Stim/FN_022_g.png","post_prac","","","","","","","","","","","","",""
"","html-keyboard-response","11","98669","0.0-3.0-2.0-2.0","2569.10000000149","","","<p>Your reaction time for this trial was 370.8 ms.</p><p>Remember that you should only press the SPACEBAR when you see the shape presented at the beginning of the trial. </b> </p><p>Press enter to move on.</p>","13","","","","","","","","","","","","","","","","","",""
"","instructions","12","100742","0.0-4.0","2072.60000000149","","[{""page_index"":0,""viewing_time"":2072.400000002235}]","","","","","","","","","","","","","","","","","","","",""
"","image-keyboard-response","13","102952","0.0-5.0-0.0-0.0","2209.699999999255","","","https://ziweizhang0304.github.io/Stats_learning_trig/img/Stim/FN_010_g.png","13","","","","","","","","","","","","","","","","","",""
"","animation","14","107375","0.0-5.0-0.0-1.0","","","","","","[{""stimulus"":""https://ziweizhang0304.github.io/Stats_learning_trig/img/Stim/FN_025_g.png"",""time"":342.30000000074506},{""stimulus"":""blank"",""time"":643.6999999992549},{""stimulus"":""https://ziweizhang0304.github.io/Stats_learning_trig/img/Stim/FN_011_g.png"",""time"":682.0999999977648},{""stimulus"":""blank"",""time"":983.3999999985099},{""stimulus"":""https://ziweizhang0304.github.io/Stats_learning_trig/img/Stim/FN_023_g.png"",""time"":1021.8000000007451},{""stimulus"":""blank"",""time"":1323.5999999977648},{""stimulus"":""https://ziweizhang0304.github.io/Stats_learning_trig/img/Stim/FN_014_g.png"",""time"":1361.800000000745},{""stimulus"":""blank"",""time"":1663.699999999255},{""stimulus"":""https://ziweizhang0304.github.io/Stats_learning_trig/img/Stim/FN_012_g.png"",""time"":1701.0999999977648},{""stimulus"":""blank"",""time"":2002.800000000745},{""stimulus"":""https://ziweizhang0304.github.io/Stats_learning_trig/img/Stim/FN_008_g.png"",""time"":2042.0999999977648},{""stimulus"":""blank"",""time"":2343.199999999255},{""stimulus"":""https://ziweizhang0304.github.io/Stats_learning_trig/img/Stim/FN_010_g.png"",""time"":2381.5},{""stimulus"":""blank"",""time"":2682.89999999851},{""stimulus"":""https://ziweizhang0304.github.io/Stats_learning_trig/img/Stim/FN_003_g.png"",""time"":2721.099999997765},{""stimulus"":""blank"",""time"":3023},{""stimulus"":""https://ziweizhang0304.github.io/Stats_learning_trig/img/Stim/FN_015_g.png"",""time"":3062.300000000745},{""stimulus"":""blank"",""time"":3363.5},{""stimulus"":""https://ziweizhang0304.github.io/Stats_learning_trig/img/Stim/FN_017_g.png"",""time"":3401.699999999255},{""stimulus"":""blank"",""time"":3703.5},{""stimulus"":""https://ziweizhang0304.github.io/Stats_learning_trig/img/Stim/FN_026_g.png"",""time"":3741.300000000745},{""stimulus"":""blank"",""time"":4043.199999999255},{""stimulus"":""https://ziweizhang0304.github.io/Stats_learning_trig/img/Stim/FN_006_g.png"",""time"":4082.39999999851},{""stimulus"":""blank"",""time"":4384}]","[{""key_press"":32,""rt"":2822.5,""stimulus"":""https://ziweizhang0304.github.io/Stats_learning_trig/img/Stim/FN_003_g.png""}]","441","https://ziweizhang0304.github.io/Stats_learning_trig/img/Stim/FN_010_g.png","post_TD","1","2381.5","2822.5","fast","7","2","5b48f2d0ff7497000125165e","","","","","",""
"","image-keyboard-response","15","108621","0.0-5.0-1.0-0.0","1244.800000000745","","","https://ziweizhang0304.github.io/Stats_learning_trig/img/Stim/FN_022_g.png","13","","","","","","","","","","","","","","","","","",""
"","animation","16","113042","0.0-5.0-1.0-1.0","","","","","","[{""stimulus"":""https://ziweizhang0304.github.io/Stats_learning_trig/img/Stim/FN_014_g.png"",""time"":342.20000000298023},{""stimulus"":""blank"",""time"":643.8000000007451},{""stimulus"":""https://ziweizhang0304.github.io/Stats_learning_trig/img/Stim/FN_015_g.png"",""time"":681.2000000029802},{""stimulus"":""blank"",""time"":982.9000000022352},{""stimulus"":""https://ziweizhang0304.github.io/Stats_learning_trig/img/Stim/FN_025_g.png"",""time"":1021.1000000014901},{""stimulus"":""blank"",""time"":1322.6000000014901},{""stimulus"":""https://ziweizhang0304.github.io/Stats_learning_trig/img/Stim/FN_012_g.png"",""time"":1361.800000000745},{""stimulus"":""blank"",""time"":1663.4000000022352},{""stimulus"":""https://ziweizhang0304.github.io/Stats_learning_trig/img/Stim/FN_026_g.png"",""time"":1701.5},{""stimulus"":""blank"",""time"":2002.800000000745},{""stimulus"":""https://ziweizhang0304.github.io/Stats_learning_trig/img/Stim/FN_013_g.png"",""time"":2042},{""stimulus"":""blank"",""time"":2343.800000000745},{""stimulus"":""https://ziweizhang0304.github.io/Stats_learning_trig/img/Stim/FN_022_g.png"",""time"":2382.2000000029802},{""stimulus"":""blank"",""time"":2684.10000000149},{""stimulus"":""https://ziweizhang0304.github.io/Stats_learning_trig/img/Stim/FN_007_g.png"",""time"":2721.2000000029802},{""stimulus"":""blank"",""time"":3023.10000000149},{""stimulus"":""https://ziweizhang0304.github.io/Stats_learning_trig/img/Stim/FN_017_g.png"",""time"":3062.400000002235},{""stimulus"":""blank"",""time"":3364},{""stimulus"":""https://ziweizhang0304.github.io/Stats_learning_trig/img/Stim/FN_023_g.png"",""time"":3402.60000000149},{""stimulus"":""blank"",""time"":3704.10000000149},{""stimulus"":""https://ziweizhang0304.github.io/Stats_learning_trig/img/Stim/FN_006_g.png"",""time"":3742.2000000029802},{""stimulus"":""blank"",""time"":4044.2000000029802},{""stimulus"":""https://ziweizhang0304.github.io/Stats_learning_trig/img/Stim/FN_011_g.png"",""time"":4082.300000000745},{""stimulus"":""blank"",""time"":4383.400000002235}]","[{""key_press"":32,""rt"":2768.39999999851,""stimulus"":""https://ziweizhang0304.github.io/Stats_learning_trig/img/Stim/FN_007_g.png""}]","386.19999999552965","https://ziweizhang0304.github.io/Stats_learning_trig/img/Stim/FN_022_g.png","post_TD","2","2382.2000000029802","2768.39999999851","slow","7","2","5b48f2d0ff7497000125165e","","","","","",""
"","image-keyboard-response","17","113863","0.0-5.0-2.0-0.0","818.3000000007451","","","https://ziweizhang0304.github.io/Stats_learning_trig/img/Stim/FN_013_g.png","13","","","","","","","","","","","","","","","","","",""
"","animation","18","118285","0.0-5.0-2.0-1.0","","","","","","[{""stimulus"":""https://ziweizhang0304.github.io/Stats_learning_trig/img/Stim/FN_012_g.png"",""time"":342.0999999977648},{""stimulus"":""blank"",""time"":643.5},{""stimulus"":""https://ziweizhang0304.github.io/Stats_learning_trig/img/Stim/FN_014_g.png"",""time"":681.6999999992549},{""stimulus"":""blank"",""time"":983.5},{""stimulus"":""https://ziweizhang0304.github.io/Stats_learning_trig/img/Stim/FN_017_g.png"",""time"":1021.5999999977648},{""stimulus"":""blank"",""time"":1322.800000000745},{""stimulus"":""https://ziweizhang0304.github.io/Stats_learning_trig/img/Stim/FN_025_g.png"",""time"":1361.199999999255},{""stimulus"":""blank"",""time"":1662.8999999985099},{""stimulus"":""https://ziweizhang0304.github.io/Stats_learning_trig/img/Stim/FN_011_g.png"",""time"":1702.0999999977648},{""stimulus"":""blank"",""time"":2003.0999999977648},{""stimulus"":""https://ziweizhang0304.github.io/Stats_learning_trig/img/Stim/FN_006_g.png"",""time"":2041.300000000745},{""stimulus"":""blank"",""time"":2343.300000000745},{""stimulus"":""https://ziweizhang0304.github.io/Stats_learning_trig/img/Stim/FN_013_g.png"",""time"":2381.599999997765},{""stimulus"":""blank"",""time"":2682.800000000745},{""stimulus"":""https://ziweizhang0304.github.io/Stats_learning_trig/img/Stim/FN_022_g.png"",""time"":2722.199999999255},{""stimulus"":""blank"",""time"":3023.699999999255},{""stimulus"":""https://ziweizhang0304.github.io/Stats_learning_trig/img/Stim/FN_007_g.png"",""time"":3062.5},{""stimulus"":""blank"",""time"":3364.39999999851},{""stimulus"":""https://ziweizhang0304.github.io/Stats_learning_trig/img/Stim/FN_015_g.png"",""time"":3401.599999997765},{""stimulus"":""blank"",""time"":3702.89999999851},{""stimulus"":""https://ziweizhang0304.github.io/Stats_learning_trig/img/Stim/FN_026_g.png"",""time"":3741.39999999851},{""stimulus"":""blank"",""time"":4042.89999999851},{""stimulus"":""https://ziweizhang0304.github.io/Stats_learning_trig/img/Stim/FN_023_g.png"",""time"":4082.199999999255},{""stimulus"":""blank"",""time"":4384.099999997765}]","[{""key_press"":32,""rt"":2740.7000000029802,""stimulus"":""https://ziweizhang0304.github.io/Stats_learning_trig/img/Stim/FN_022_g.png""}]","359.1000000052154","https://ziweizhang0304.github.io/Stats_learning_trig/img/Stim/FN_013_g.png","post_TD","3","2381.599999997765","2740.7000000029802","slow","7","1","5b48f2d0ff7497000125165e","","","","","",""
"","image-keyboard-response","19","118945","0.0-5.0-3.0-0.0","657.5999999977648","","","https://ziweizhang0304.github.io/Stats_learning_trig/img/Stim/FN_010_g.png","13","","","","","","","","","","","","","","","","","",""
"","animation","20","123367","0.0-5.0-3.0-1.0","","","","","","[{""stimulus"":""https://ziweizhang0304.github.io/Stats_learning_trig/img/Stim/FN_011_g.png"",""time"":342.1000000014901},{""stimulus"":""blank"",""time"":643.3000000007451},{""stimulus"":""https://ziweizhang0304.github.io/Stats_learning_trig/img/Stim/FN_015_g.png"",""time"":681.6000000014901},{""stimulus"":""blank"",""time"":983.3000000007451},{""stimulus"":""https://ziweizhang0304.github.io/Stats_learning_trig/img/Stim/FN_017_g.png"",""time"":1021.6000000014901},{""stimulus"":""blank"",""time"":1323.4000000022352},{""stimulus"":""https://ziweizhang0304.github.io/Stats_learning_trig/img/Stim/FN_008_g.png"",""time"":1361.6000000014901},{""stimulus"":""blank"",""time"":1663.5},{""stimulus"":""https://ziweizhang0304.github.io/Stats_learning_trig/img/Stim/FN_010_g.png"",""time"":1701.800000000745},{""stimulus"":""blank"",""time"":2003.199999999255},{""stimulus"":""https://ziweizhang0304.github.io/Stats_learning_trig/img/Stim/FN_003_g.png"",""time"":2042.300000000745},{""stimulus"":""blank"",""time"":2343.900000002235},{""stimulus"":""https://ziweizhang0304.github.io/Stats_learning_trig/img/Stim/FN_026_g.png"",""time"":2381.10000000149},{""stimulus"":""blank"",""time"":2682},{""stimulus"":""https://ziweizhang0304.github.io/Stats_learning_trig/img/Stim/FN_025_g.png"",""time"":2722.300000000745},{""stimulus"":""blank"",""time"":3024.10000000149},{""stimulus"":""https://ziweizhang0304.github.io/Stats_learning_trig/img/Stim/FN_023_g.png"",""time"":3062.10000000149},{""stimulus"":""blank"",""time"":3363.5},{""stimulus"":""https://ziweizhang0304.github.io/Stats_learning_trig/img/Stim/FN_014_g.png"",""time"":3400.5},{""stimulus"":""blank"",""time"":3702.300000000745},{""stimulus"":""https://ziweizhang0304.github.io/Stats_learning_trig/img/Stim/FN_006_g.png"",""time"":3741.60000000149},{""stimulus"":""blank"",""time"":4043.400000002235},{""stimulus"":""https://ziweizhang0304.github.io/Stats_learning_trig/img/Stim/FN_012_g.png"",""time"":4081.699999999255},{""stimulus"":""blank"",""time"":4383.5}]","[{""key_press"":32,""rt"":2094.599999997765,""stimulus"":""https://ziweizhang0304.github.io/Stats_learning_trig/img/Stim/FN_003_g.png""}]","392.79999999701977","https://ziweizhang0304.github.io/Stats_learning_trig/img/Stim/FN_010_g.png","post_TD","4","1701.800000000745","2094.599999997765","fast","5","2","5b48f2d0ff7497000125165e","","","","","",""
"","image-keyboard-response","21","123806","0.0-5.0-4.0-0.0","437.19999999925494","","","https://ziweizhang0304.github.io/Stats_learning_trig/img/Stim/FN_003_g.png","13","","","","","","","","","","","","","","","","","",""
"","animation","22","128229","0.0-5.0-4.0-1.0","","","","","","[{""stimulus"":""https://ziweizhang0304.github.io/Stats_learning_trig/img/Stim/FN_026_g.png"",""time"":341.3999999985099},{""stimulus"":""blank"",""time"":642.3000000007451},{""stimulus"":""https://ziweizhang0304.github.io/Stats_learning_trig/img/Stim/FN_014_g.png"",""time"":681.5},{""stimulus"":""blank"",""time"":983.3999999985099},{""stimulus"":""https://ziweizhang0304.github.io/Stats_learning_trig/img/Stim/FN_006_g.png"",""time"":1021.6999999992549},{""stimulus"":""blank"",""time"":1322.800000000745},{""stimulus"":""https://ziweizhang0304.github.io/Stats_learning_trig/img/Stim/FN_012_g.png"",""time"":1361.8999999985099},{""stimulus"":""blank"",""time"":1663.5999999977648},{""stimulus"":""https://ziweizhang0304.github.io/Stats_learning_trig/img/Stim/FN_017_g.png"",""time"":1701.800000000745},{""stimulus"":""blank"",""time"":2003.699999999255},{""stimulus"":""https://ziweizhang0304.github.io/Stats_learning_trig/img/Stim/FN_025_g.png"",""time"":2042},{""stimulus"":""blank"",""time"":2342.800000000745},{""stimulus"":""https://ziweizhang0304.github.io/Stats_learning_trig/img/Stim/FN_008_g.png"",""time"":2382.099999997765},{""stimulus"":""blank"",""time"":2683.800000000745},{""stimulus"":""https://ziweizhang0304.github.io/Stats_learning_trig/img/Stim/FN_010_g.png"",""time"":2722.199999999255},{""stimulus"":""blank"",""time"":3023.5},{""stimulus"":""https://ziweizhang0304.github.io/Stats_learning_trig/img/Stim/FN_003_g.png"",""time"":3061.5},{""stimulus"":""blank"",""time"":3363.300000000745},{""stimulus"":""https://ziweizhang0304.github.io/Stats_learning_trig/img/Stim/FN_015_g.png"",""time"":3401.199999999255},{""stimulus"":""blank"",""time"":3702.39999999851},{""stimulus"":""https://ziweizhang0304.github.io/Stats_learning_trig/img/Stim/FN_023_g.png"",""time"":3741.699999999255},{""stimulus"":""blank"",""time"":4043.5},{""stimulus"":""https://ziweizhang0304.github.io/Stats_learning_trig/img/Stim/FN_011_g.png"",""time"":4080.699999999255},{""stimulus"":""blank"",""time"":4382.599999997765}]","[{""key_press"":32,""rt"":2139.099999997765,""stimulus"":""https://ziweizhang0304.github.io/Stats_learning_trig/img/Stim/FN_025_g.png""},{""key_press"":32,""rt"":3400.599999997765,""stimulus"":""blank""}]","339.0999999977648","https://ziweizhang0304.github.io/Stats_learning_trig/img/Stim/FN_003_g.png","post_TD","5","3061.5","3400.599999997765","fast","9","3","5b48f2d0ff7497000125165e","","","","","",""
"","image-keyboard-response","23","129599","0.0-5.0-5.0-0.0","1368.5","","","https://ziweizhang0304.github.io/Stats_learning_trig/img/Stim/FN_022_g.png","13","","","","","","","","","","","","","","","","","",""
"","animation","24","134021","0.0-5.0-5.0-1.0","","","","","","[{""stimulus"":""https://ziweizhang0304.github.io/Stats_learning_trig/img/Stim/FN_017_g.png"",""time"":341.69999999925494},{""stimulus"":""blank"",""time"":643.5},{""stimulus"":""https://ziweizhang0304.github.io/Stats_learning_trig/img/Stim/FN_014_g.png"",""time"":681.6000000014901},{""stimulus"":""blank"",""time"":983},{""stimulus"":""https://ziweizhang0304.github.io/Stats_learning_trig/img/Stim/FN_026_g.png"",""time"":1021.6000000014901},{""stimulus"":""blank"",""time"":1322.1000000014901},{""stimulus"":""https://ziweizhang0304.github.io/Stats_learning_trig/img/Stim/FN_012_g.png"",""time"":1361.5},{""stimulus"":""blank"",""time"":1662.5},{""stimulus"":""https://ziweizhang0304.github.io/Stats_learning_trig/img/Stim/FN_013_g.png"",""time"":1701.699999999255},{""stimulus"":""blank"",""time"":2002.699999999255},{""stimulus"":""https://ziweizhang0304.github.io/Stats_learning_trig/img/Stim/FN_022_g.png"",""time"":2040.699999999255},{""stimulus"":""blank"",""time"":2341.800000000745},{""stimulus"":""https://ziweizhang0304.github.io/Stats_learning_trig/img/Stim/FN_007_g.png"",""time"":2381},{""stimulus"":""blank"",""time"":2682.199999999255},{""stimulus"":""https://ziweizhang0304.github.io/Stats_learning_trig/img/Stim/FN_015_g.png"",""time"":2722.5},{""stimulus"":""blank"",""time"":3024.300000000745},{""stimulus"":""https://ziweizhang0304.github.io/Stats_learning_trig/img/Stim/FN_025_g.png"",""time"":3061.39999999851},{""stimulus"":""blank"",""time"":3363.39999999851},{""stimulus"":""https://ziweizhang0304.github.io/Stats_learning_trig/img/Stim/FN_023_g.png"",""time"":3401.60000000149},{""stimulus"":""blank"",""time"":3702.5},{""stimulus"":""https://ziweizhang0304.github.io/Stats_learning_trig/img/Stim/FN_006_g.png"",""time"":3741.800000000745},{""stimulus"":""blank"",""time"":4043.5},{""stimulus"":""https://ziweizhang0304.github.io/Stats_learning_trig/img/Stim/FN_011_g.png"",""time"":4081.699999999255},{""stimulus"":""blank"",""time"":4382.800000000745}]","[{""key_press"":32,""rt"":2375.599999997765,""stimulus"":""blank""}]","334.8999999985099","https://ziweizhang0304.github.io/Stats_learning_trig/img/Stim/FN_022_g.png","post_TD","6","2040.699999999255","2375.599999997765","slow","6","2","5b48f2d0ff7497000125165e","","","","","",""
"","image-keyboard-response","25","134967","0.0-5.0-6.0-0.0","943.8000000007451","","","https://ziweizhang0304.github.io/Stats_learning_trig/img/Stim/FN_010_g.png","13","","","","","","","","","","","","","","","","","",""
"","animation","26","139389","0.0-5.0-6.0-1.0","","","","","","[{""stimulus"":""https://ziweizhang0304.github.io/Stats_learning_trig/img/Stim/FN_026_g.png"",""time"":342.5},{""stimulus"":""blank"",""time"":644.3000000007451},{""stimulus"":""https://ziweizhang0304.github.io/Stats_learning_trig/img/Stim/FN_014_g.png"",""time"":680.5},{""stimulus"":""blank"",""time"":982.3000000007451},{""stimulus"":""https://ziweizhang0304.github.io/Stats_learning_trig/img/Stim/FN_006_g.png"",""time"":1021.6000000014901},{""stimulus"":""blank"",""time"":1323.300000000745},{""stimulus"":""https://ziweizhang0304.github.io/Stats_learning_trig/img/Stim/FN_012_g.png"",""time"":1361.5},{""stimulus"":""blank"",""time"":1662.6000000014901},{""stimulus"":""https://ziweizhang0304.github.io/Stats_learning_trig/img/Stim/FN_017_g.png"",""time"":1701.6000000014901},{""stimulus"":""blank"",""time"":2002.699999999255},{""stimulus"":""https://ziweizhang0304.github.io/Stats_learning_trig/img/Stim/FN_025_g.png"",""time"":2041.800000000745},{""stimulus"":""blank"",""time"":2342.900000002235},{""stimulus"":""https://ziweizhang0304.github.io/Stats_learning_trig/img/Stim/FN_008_g.png"",""time"":2381},{""stimulus"":""blank"",""time"":2682.900000002235},{""stimulus"":""https://ziweizhang0304.github.io/Stats_learning_trig/img/Stim/FN_010_g.png"",""time"":2722.199999999255},{""stimulus"":""blank"",""time"":3023.60000000149},{""stimulus"":""https://ziweizhang0304.github.io/Stats_learning_trig/img/Stim/FN_003_g.png"",""time"":3061.900000002235},{""stimulus"":""blank"",""time"":3363.300000000745},{""stimulus"":""https://ziweizhang0304.github.io/Stats_learning_trig/img/Stim/FN_015_g.png"",""time"":3401.300000000745},{""stimulus"":""blank"",""time"":3701.400000002235},{""stimulus"":""https://ziweizhang0304.github.io/Stats_learning_trig/img/Stim/FN_023_g.png"",""time"":3741.800000000745},{""stimulus"":""blank"",""time"":4043.60000000149},{""stimulus"":""https://ziweizhang0304.github.io/Stats_learning_trig/img/Stim/FN_011_g.png"",""time"":4080.800000000745},{""stimulus"":""blank"",""time"":4382.699999999255}]","[{""key_press"":32,""rt"":3219.599999997765,""stimulus"":""https://ziweizhang0304.github.io/Stats_learning_trig/img/Stim/FN_003_g.png""}]","497.3999999985099","https://ziweizhang0304.github.io/Stats_learning_trig/img/Stim/FN_010_g.png","post_TD","7","2722.199999999255","3219.599999997765","fast","8","2","5b48f2d0ff7497000125165e","","","","","",""
"","image-keyboard-response","27","140026","0.0-5.0-7.0-0.0","634.8000000007451","","","https://ziweizhang0304.github.io/Stats_learning_trig/img/Stim/FN_008_g.png","13","","","","","","","","","","","","","","","","","",""
"","animation","28","144447","0.0-5.0-7.0-1.0","","","","","","[{""stimulus"":""https://ziweizhang0304.github.io/Stats_learning_trig/img/Stim/FN_011_g.png"",""time"":342},{""stimulus"":""blank"",""time"":642.8000000007451},{""stimulus"":""https://ziweizhang0304.github.io/Stats_learning_trig/img/Stim/FN_023_g.png"",""time"":682.1000000014901},{""stimulus"":""blank"",""time"":983.9000000022352},{""stimulus"":""https://ziweizhang0304.github.io/Stats_learning_trig/img/Stim/FN_017_g.png"",""time"":1022.1999999992549},{""stimulus"":""blank"",""time"":1324},{""stimulus"":""https://ziweizhang0304.github.io/Stats_learning_trig/img/Stim/FN_014_g.png"",""time"":1361.9000000022352},{""stimulus"":""blank"",""time"":1663.300000000745},{""stimulus"":""https://ziweizhang0304.github.io/Stats_learning_trig/img/Stim/FN_008_g.png"",""time"":1701.5},{""stimulus"":""blank"",""time"":2003},{""stimulus"":""https://ziweizhang0304.github.io/Stats_learning_trig/img/Stim/FN_010_g.png"",""time"":2042.1000000014901},{""stimulus"":""blank"",""time"":2344},{""stimulus"":""https://ziweizhang0304.github.io/Stats_learning_trig/img/Stim/FN_003_g.png"",""time"":2382.10000000149},{""stimulus"":""blank"",""time"":2684.199999999255},{""stimulus"":""https://ziweizhang0304.github.io/Stats_learning_trig/img/Stim/FN_015_g.png"",""time"":2721.300000000745},{""stimulus"":""blank"",""time"":3022.199999999255},{""stimulus"":""https://ziweizhang0304.github.io/Stats_learning_trig/img/Stim/FN_026_g.png"",""time"":3061.400000002235},{""stimulus"":""blank"",""time"":3362.60000000149},{""stimulus"":""https://ziweizhang0304.github.io/Stats_learning_trig/img/Stim/FN_025_g.png"",""time"":3401.60000000149},{""stimulus"":""blank"",""time"":3702.60000000149},{""stimulus"":""https://ziweizhang0304.github.io/Stats_learning_trig/img/Stim/FN_006_g.png"",""time"":3741.699999999255},{""stimulus"":""blank"",""time"":4043.699999999255},{""stimulus"":""https://ziweizhang0304.github.io/Stats_learning_trig/img/Stim/FN_012_g.png"",""time"":4082.10000000149},{""stimulus"":""blank"",""time"":4383.400000002235}]","[{""key_press"":32,""rt"":2079.099999997765,""stimulus"":""https://ziweizhang0304.github.io/Stats_learning_trig/img/Stim/FN_010_g.png""}]","377.5999999977648","https://ziweizhang0304.github.io/Stats_learning_trig/img/Stim/FN_008_g.png","post_TD","8","1701.5","2079.099999997765","fast","5","1","5b48f2d0ff7497000125165e","","","","","",""
"","image-keyboard-response","29","145174","0.0-5.0-8.0-0.0","726.3000000007451","","","https://ziweizhang0304.github.io/Stats_learning_trig/img/Stim/FN_007_g.png","13","","","","","","","","","","","","","","","","","",""
"","animation","30","149596","0.0-5.0-8.0-1.0","","","","","","[{""stimulus"":""https://ziweizhang0304.github.io/Stats_learning_trig/img/Stim/FN_014_g.png"",""time"":341.5999999977648},{""stimulus"":""blank"",""time"":642.6999999992549},{""stimulus"":""https://ziweizhang0304.github.io/Stats_learning_trig/img/Stim/FN_015_g.png"",""time"":682.0999999977648},{""stimulus"":""blank"",""time"":983.5999999977648},{""stimulus"":""https://ziweizhang0304.github.io/Stats_learning_trig/img/Stim/FN_025_g.png"",""time"":1021.8999999985099},{""stimulus"":""blank"",""time"":1322.8999999985099},{""stimulus"":""https://ziweizhang0304.github.io/Stats_learning_trig/img/Stim/FN_012_g.png"",""time"":1360.5999999977648},{""stimulus"":""blank"",""time"":1662.5},{""stimulus"":""https://ziweizhang0304.github.io/Stats_learning_trig/img/Stim/FN_026_g.png"",""time"":1701.7999999970198},{""stimulus"":""blank"",""time"":2003.5999999977648},{""stimulus"":""https://ziweizhang0304.github.io/Stats_learning_trig/img/Stim/FN_013_g.png"",""time"":2041.8999999985099},{""stimulus"":""blank"",""time"":2343.699999999255},{""stimulus"":""https://ziweizhang0304.github.io/Stats_learning_trig/img/Stim/FN_022_g.png"",""time"":2382},{""stimulus"":""blank"",""time"":2683.5},{""stimulus"":""https://ziweizhang0304.github.io/Stats_learning_trig/img/Stim/FN_007_g.png"",""time"":2721.7999999970198},{""stimulus"":""blank"",""time"":3022.7999999970198},{""stimulus"":""https://ziweizhang0304.github.io/Stats_learning_trig/img/Stim/FN_017_g.png"",""time"":3060.5},{""stimulus"":""blank"",""time"":3361.699999999255},{""stimulus"":""https://ziweizhang0304.github.io/Stats_learning_trig/img/Stim/FN_023_g.png"",""time"":3401},{""stimulus"":""blank"",""time"":3701.89999999851},{""stimulus"":""https://ziweizhang0304.github.io/Stats_learning_trig/img/Stim/FN_006_g.png"",""time"":3742.099999997765},{""stimulus"":""blank"",""time"":4043.89999999851},{""stimulus"":""https://ziweizhang0304.github.io/Stats_learning_trig/img/Stim/FN_011_g.png"",""time"":4082.199999999255},{""stimulus"":""blank"",""time"":4383.599999997765}]","[{""key_press"":32,""rt"":3104.10000000149,""stimulus"":""https://ziweizhang0304.github.io/Stats_learning_trig/img/Stim/FN_017_g.png""}]","382.30000000447035","https://ziweizhang0304.github.io/Stats_learning_trig/img/Stim/FN_007_g.png","post_TD","9","2721.7999999970198","3104.10000000149","slow","8","3","5b48f2d0ff7497000125165e","","","","","",""
"","image-keyboard-response","31","150168","0.0-5.0-9.0-0.0","570","","","https://ziweizhang0304.github.io/Stats_learning_trig/img/Stim/FN_008_g.png","13","","","","","","","","","","","","","","","","","",""
"","animation","32","154589","0.0-5.0-9.0-1.0","","","","","","[{""stimulus"":""https://ziweizhang0304.github.io/Stats_learning_trig/img/Stim/FN_025_g.png"",""time"":342.0999999977648},{""stimulus"":""blank"",""time"":643.2999999970198},{""stimulus"":""https://ziweizhang0304.github.io/Stats_learning_trig/img/Stim/FN_011_g.png"",""time"":681.6999999992549},{""stimulus"":""blank"",""time"":982.8999999985099},{""stimulus"":""https://ziweizhang0304.github.io/Stats_learning_trig/img/Stim/FN_023_g.png"",""time"":1022.1999999992549},{""stimulus"":""blank"",""time"":1323.5},{""stimulus"":""https://ziweizhang0304.github.io/Stats_learning_trig/img/Stim/FN_014_g.png"",""time"":1361.7999999970198},{""stimulus"":""blank"",""time"":1663},{""stimulus"":""https://ziweizhang0304.github.io/Stats_learning_trig/img/Stim/FN_012_g.png"",""time"":1702.199999999255},{""stimulus"":""blank"",""time"":2004},{""stimulus"":""https://ziweizhang0304.github.io/Stats_learning_trig/img/Stim/FN_008_g.png"",""time"":2042.2999999970198},{""stimulus"":""blank"",""time"":2343.099999997765},{""stimulus"":""https://ziweizhang0304.github.io/Stats_learning_trig/img/Stim/FN_010_g.png"",""time"":2381.199999999255},{""stimulus"":""blank"",""time"":2682.199999999255},{""stimulus"":""https://ziweizhang0304.github.io/Stats_learning_trig/img/Stim/FN_003_g.png"",""time"":2722},{""stimulus"":""blank"",""time"":3024},{""stimulus"":""https://ziweizhang0304.github.io/Stats_learning_trig/img/Stim/FN_015_g.png"",""time"":3061.2999999970198},{""stimulus"":""blank"",""time"":3363},{""stimulus"":""https://ziweizhang0304.github.io/Stats_learning_trig/img/Stim/FN_017_g.png"",""time"":3402.2999999970198},{""stimulus"":""blank"",""time"":3704.199999999255},{""stimulus"":""https://ziweizhang0304.github.io/Stats_learning_trig/img/Stim/FN_026_g.png"",""time"":3742.39999999851},{""stimulus"":""blank"",""time"":4043.699999999255},{""stimulus"":""https://ziweizhang0304.github.io/Stats_learning_trig/img/Stim/FN_006_g.png"",""time"":4081},{""stimulus"":""blank"",""time"":4382.39999999851}]","[{""key_press"":32,""rt"":2393.199999999255,""stimulus"":""https://ziweizhang0304.github.io/Stats_learning_trig/img/Stim/FN_010_g.png""}]","350.9000000022352","https://ziweizhang0304.github.io/Stats_learning_trig/img/Stim/FN_008_g.png","post_TD","10","2042.2999999970198","2393.199999999255","fast","6","1","5b48f2d0ff7497000125165e","","","","","",""
"","image-keyboard-response","33","155178","0.0-5.0-10.0-0.0","587","","","https://ziweizhang0304.github.io/Stats_learning_trig/img/Stim/FN_013_g.png","13","","","","","","","","","","","","","","","","","",""
"","animation","34","159600","0.0-5.0-10.0-1.0","","","","","","[{""stimulus"":""https://ziweizhang0304.github.io/Stats_learning_trig/img/Stim/FN_026_g.png"",""time"":342.69999999925494},{""stimulus"":""blank"",""time"":644.1000000014901},{""stimulus"":""https://ziweizhang0304.github.io/Stats_learning_trig/img/Stim/FN_015_g.png"",""time"":682.6000000014901},{""stimulus"":""blank"",""time"":984.3000000007451},{""stimulus"":""https://ziweizhang0304.github.io/Stats_learning_trig/img/Stim/FN_023_g.png"",""time"":1021.8000000007451},{""stimulus"":""blank"",""time"":1322.8999999985099},{""stimulus"":""https://ziweizhang0304.github.io/Stats_learning_trig/img/Stim/FN_013_g.png"",""time"":1362},{""stimulus"":""blank"",""time"":1663.8999999985099},{""stimulus"":""https://ziweizhang0304.github.io/Stats_learning_trig/img/Stim/FN_022_g.png"",""time"":1701.8999999985099},{""stimulus"":""blank"",""time"":2003},{""stimulus"":""https://ziweizhang0304.github.io/Stats_learning_trig/img/Stim/FN_007_g.png"",""time"":2042.300000000745},{""stimulus"":""blank"",""time"":2343.5},{""stimulus"":""https://ziweizhang0304.github.io/Stats_learning_trig/img/Stim/FN_017_g.png"",""time"":2381.800000000745},{""stimulus"":""blank"",""time"":2683.10000000149},{""stimulus"":""https://ziweizhang0304.github.io/Stats_learning_trig/img/Stim/FN_025_g.png"",""time"":2722.39999999851},{""stimulus"":""blank"",""time"":3022.60000000149},{""stimulus"":""https://ziweizhang0304.github.io/Stats_learning_trig/img/Stim/FN_014_g.png"",""time"":3061},{""stimulus"":""blank"",""time"":3362.60000000149},{""stimulus"":""https://ziweizhang0304.github.io/Stats_learning_trig/img/Stim/FN_006_g.png"",""time"":3402.199999999255},{""stimulus"":""blank"",""time"":3703.800000000745},{""stimulus"":""https://ziweizhang0304.github.io/Stats_learning_trig/img/Stim/FN_012_g.png"",""time"":3742.10000000149},{""stimulus"":""blank"",""time"":4043.10000000149},{""stimulus"":""https://ziweizhang0304.github.io/Stats_learning_trig/img/Stim/FN_011_g.png"",""time"":4082.39999999851},{""stimulus"":""blank"",""time"":4383.199999999255}]","[{""key_press"":32,""rt"":1692,""stimulus"":""blank""}]","330","https://ziweizhang0304.github.io/Stats_learning_trig/img/Stim/FN_013_g.png","post_TD","11","1362","1692","slow","4","1","5b48f2d0ff7497000125165e","","","","","",""
"","image-keyboard-response","35","160172","0.0-5.0-11.0-0.0","569.5999999977648","","","https://ziweizhang0304.github.io/Stats_learning_trig/img/Stim/FN_008_g.png","13","","","","","","","","","","","","","","","","","",""
"","animation","36","164594","0.0-5.0-11.0-1.0","","","","","","[{""stimulus"":""https://ziweizhang0304.github.io/Stats_learning_trig/img/Stim/FN_011_g.png"",""time"":342.30000000074506},{""stimulus"":""blank"",""time"":644},{""stimulus"":""https://ziweizhang0304.github.io/Stats_learning_trig/img/Stim/FN_015_g.png"",""time"":682.3999999985099},{""stimulus"":""blank"",""time"":983.6999999992549},{""stimulus"":""https://ziweizhang0304.github.io/Stats_learning_trig/img/Stim/FN_017_g.png"",""time"":1021.8999999985099},{""stimulus"":""blank"",""time"":1323.8999999985099},{""stimulus"":""https://ziweizhang0304.github.io/Stats_learning_trig/img/Stim/FN_008_g.png"",""time"":1362.1000000014901},{""stimulus"":""blank"",""time"":1663.3999999985099},{""stimulus"":""https://ziweizhang0304.github.io/Stats_learning_trig/img/Stim/FN_010_g.png"",""time"":1701.6000000014901},{""stimulus"":""blank"",""time"":2003.5},{""stimulus"":""https://ziweizhang0304.github.io/Stats_learning_trig/img/Stim/FN_003_g.png"",""time"":2041.800000000745},{""stimulus"":""blank"",""time"":2343.699999999255},{""stimulus"":""https://ziweizhang0304.github.io/Stats_learning_trig/img/Stim/FN_026_g.png"",""time"":2381.800000000745},{""stimulus"":""blank"",""time"":2683.699999999255},{""stimulus"":""https://ziweizhang0304.github.io/Stats_learning_trig/img/Stim/FN_025_g.png"",""time"":2722.10000000149},{""stimulus"":""blank"",""time"":3023.5},{""stimulus"":""https://ziweizhang0304.github.io/Stats_learning_trig/img/Stim/FN_023_g.png"",""time"":3061.5},{""stimulus"":""blank"",""time"":3363.199999999255},{""stimulus"":""https://ziweizhang0304.github.io/Stats_learning_trig/img/Stim/FN_014_g.png"",""time"":3401.60000000149},{""stimulus"":""blank"",""time"":3703.10000000149},{""stimulus"":""https://ziweizhang0304.github.io/Stats_learning_trig/img/Stim/FN_006_g.png"",""time"":3742.5},{""stimulus"":""blank"",""time"":4044.300000000745},{""stimulus"":""https://ziweizhang0304.github.io/Stats_learning_trig/img/Stim/FN_012_g.png"",""time"":4082.199999999255},{""stimulus"":""blank"",""time"":4383.699999999255}]","[{""key_press"":32,""rt"":1730.7999999970198,""stimulus"":""https://ziweizhang0304.github.io/Stats_learning_trig/img/Stim/FN_010_g.png""}]","368.69999999552965","https://ziweizhang0304.github.io/Stats_learning_trig/img/Stim/FN_008_g.png","post_TD","12","1362.1000000014901","1730.7999999970198","fast","4","1","5b48f2d0ff7497000125165e","","","","","",""
"","image-keyboard-response","37","165385","0.0-5.0-12.0-0.0","788.7000000029802","","","https://ziweizhang0304.github.io/Stats_learning_trig/img/Stim/FN_013_g.png","13","","","","","","","","","","","","","","","","","",""
"","animation","38","169808","0.0-5.0-12.0-1.0","","","","","","[{""stimulus"":""https://ziweizhang0304.github.io/Stats_learning_trig/img/Stim/FN_017_g.png"",""time"":342.30000000074506},{""stimulus"":""blank"",""time"":644.1999999992549},{""stimulus"":""https://ziweizhang0304.github.io/Stats_learning_trig/img/Stim/FN_014_g.png"",""time"":681.3999999985099},{""stimulus"":""blank"",""time"":982},{""stimulus"":""https://ziweizhang0304.github.io/Stats_learning_trig/img/Stim/FN_026_g.png"",""time"":1022.3000000007451},{""stimulus"":""blank"",""time"":1323.6000000014901},{""stimulus"":""https://ziweizhang0304.github.io/Stats_learning_trig/img/Stim/FN_012_g.png"",""time"":1362},{""stimulus"":""blank"",""time"":1663.699999999255},{""stimulus"":""https://ziweizhang0304.github.io/Stats_learning_trig/img/Stim/FN_013_g.png"",""time"":1701.8999999985099},{""stimulus"":""blank"",""time"":2003.800000000745},{""stimulus"":""https://ziweizhang0304.github.io/Stats_learning_trig/img/Stim/FN_022_g.png"",""time"":2041.199999999255},{""stimulus"":""blank"",""time"":2343.10000000149},{""stimulus"":""https://ziweizhang0304.github.io/Stats_learning_trig/img/Stim/FN_007_g.png"",""time"":2382.5},{""stimulus"":""blank"",""time"":2683.60000000149},{""stimulus"":""https://ziweizhang0304.github.io/Stats_learning_trig/img/Stim/FN_015_g.png"",""time"":2722},{""stimulus"":""blank"",""time"":3023.699999999255},{""stimulus"":""https://ziweizhang0304.github.io/Stats_learning_trig/img/Stim/FN_025_g.png"",""time"":3061},{""stimulus"":""blank"",""time"":3362.699999999255},{""stimulus"":""https://ziweizhang0304.github.io/Stats_learning_trig/img/Stim/FN_023_g.png"",""time"":3402.199999999255},{""stimulus"":""blank"",""time"":3703.39999999851},{""stimulus"":""https://ziweizhang0304.github.io/Stats_learning_trig/img/Stim/FN_006_g.png"",""time"":3741.800000000745},{""stimulus"":""blank"",""time"":4043.300000000745},{""stimulus"":""https://ziweizhang0304.github.io/Stats_learning_trig/img/Stim/FN_011_g.png"",""time"":4081.5},{""stimulus"":""blank"",""time"":4382.199999999255}]","[{""key_press"":32,""rt"":2138.800000000745,""stimulus"":""https://ziweizhang0304.github.io/Stats_learning_trig/img/Stim/FN_022_g.png""}]","436.9000000022352","https://ziweizhang0304.github.io/Stats_learning_trig/img/Stim/FN_013_g.png","post_TD","13","1701.8999999985099","2138.800000000745","slow","5","1","5b48f2d0ff7497000125165e","","","","","",""
"","image-keyboard-response","39","170415","0.0-5.0-13.0-0.0","605.4000000022352","","","https://ziweizhang0304.github.io/Stats_learning_trig/img/Stim/FN_022_g.png","13","","","","","","","","","","","","","","","","","",""
"","animation","40","174836","0.0-5.0-13.0-1.0","","","","","","[{""stimulus"":""https://ziweizhang0304.github.io/Stats_learning_trig/img/Stim/FN_012_g.png"",""time"":342.5999999977648},{""stimulus"":""blank"",""time"":644.1999999992549},{""stimulus"":""https://ziweizhang0304.github.io/Stats_learning_trig/img/Stim/FN_014_g.png"",""time"":681.5},{""stimulus"":""blank"",""time"":982.8000000007451},{""stimulus"":""https://ziweizhang0304.github.io/Stats_learning_trig/img/Stim/FN_017_g.png"",""time"":1021},{""stimulus"":""blank"",""time"":1321.8999999985099},{""stimulus"":""https://ziweizhang0304.github.io/Stats_learning_trig/img/Stim/FN_025_g.png"",""time"":1361.300000000745},{""stimulus"":""blank"",""time"":1663.0999999977648},{""stimulus"":""https://ziweizhang0304.github.io/Stats_learning_trig/img/Stim/FN_011_g.png"",""time"":1702.3999999985099},{""stimulus"":""blank"",""time"":2003.699999999255},{""stimulus"":""https://ziweizhang0304.github.io/Stats_learning_trig/img/Stim/FN_006_g.png"",""time"":2041.8999999985099},{""stimulus"":""blank"",""time"":2343.300000000745},{""stimulus"":""https://ziweizhang0304.github.io/Stats_learning_trig/img/Stim/FN_013_g.png"",""time"":2381.699999999255},{""stimulus"":""blank"",""time"":2683.5},{""stimulus"":""https://ziweizhang0304.github.io/Stats_learning_trig/img/Stim/FN_022_g.png"",""time"":2721.800000000745},{""stimulus"":""blank"",""time"":3023.5},{""stimulus"":""https://ziweizhang0304.github.io/Stats_learning_trig/img/Stim/FN_007_g.png"",""time"":3060.800000000745},{""stimulus"":""blank"",""time"":3362.800000000745},{""stimulus"":""https://ziweizhang0304.github.io/Stats_learning_trig/img/Stim/FN_015_g.png"",""time"":3401.699999999255},{""stimulus"":""blank"",""time"":3702.89999999851},{""stimulus"":""https://ziweizhang0304.github.io/Stats_learning_trig/img/Stim/FN_026_g.png"",""time"":3742.39999999851},{""stimulus"":""blank"",""time"":4044.099999997765},{""stimulus"":""https://ziweizhang0304.github.io/Stats_learning_trig/img/Stim/FN_023_g.png"",""time"":4082.199999999255},{""stimulus"":""blank"",""time"":4383.599999997765}]","[{""key_press"":32,""rt"":3074.60000000149,""stimulus"":""https://ziweizhang0304.github.io/Stats_learning_trig/img/Stim/FN_007_g.png""}]","352.80000000074506","https://ziweizhang0304.github.io/Stats_learning_trig/img/Stim/FN_022_g.png","post_TD","14","2721.800000000745","3074.60000000149","slow","8","2","5b48f2d0ff7497000125165e","","","","","",""
"","image-keyboard-response","41","175375","0.0-5.0-14.0-0.0","536.2999999970198","","","https://ziweizhang0304.github.io/Stats_learning_trig/img/Stim/FN_007_g.png","13","","","","","","","","","","","","","","","","","",""
"","animation","42","179797","0.0-5.0-14.0-1.0","","","","","","[{""stimulus"":""https://ziweizhang0304.github.io/Stats_learning_trig/img/Stim/FN_012_g.png"",""time"":341.6000000014901},{""stimulus"":""blank"",""time"":643},{""stimulus"":""https://ziweizhang0304.github.io/Stats_learning_trig/img/Stim/FN_014_g.png"",""time"":682.4000000022352},{""stimulus"":""blank"",""time"":984.1000000014901},{""stimulus"":""https://ziweizhang0304.github.io/Stats_learning_trig/img/Stim/FN_017_g.png"",""time"":1022.4000000022352},{""stimulus"":""blank"",""time"":1324.4000000022352},{""stimulus"":""https://ziweizhang0304.github.io/Stats_learning_trig/img/Stim/FN_025_g.png"",""time"":1361.6000000014901},{""stimulus"":""blank"",""time"":1663.300000000745},{""stimulus"":""https://ziweizhang0304.github.io/Stats_learning_trig/img/Stim/FN_011_g.png"",""time"":1700.5},{""stimulus"":""blank"",""time"":2000.800000000745},{""stimulus"":""https://ziweizhang0304.github.io/Stats_learning_trig/img/Stim/FN_006_g.png"",""time"":2042},{""stimulus"":""blank"",""time"":2343.800000000745},{""stimulus"":""https://ziweizhang0304.github.io/Stats_learning_trig/img/Stim/FN_013_g.png"",""time"":2381.800000000745},{""stimulus"":""blank"",""time"":2683.800000000745},{""stimulus"":""https://ziweizhang0304.github.io/Stats_learning_trig/img/Stim/FN_022_g.png"",""time"":2720.900000002235},{""stimulus"":""blank"",""time"":3022.699999999255},{""stimulus"":""https://ziweizhang0304.github.io/Stats_learning_trig/img/Stim/FN_007_g.png"",""time"":3061.800000000745},{""stimulus"":""blank"",""time"":3362.60000000149},{""stimulus"":""https://ziweizhang0304.github.io/Stats_learning_trig/img/Stim/FN_015_g.png"",""time"":3400.800000000745},{""stimulus"":""blank"",""time"":3702.800000000745},{""stimulus"":""https://ziweizhang0304.github.io/Stats_learning_trig/img/Stim/FN_026_g.png"",""time"":3741.900000002235},{""stimulus"":""blank"",""time"":4043.900000002235},{""stimulus"":""https://ziweizhang0304.github.io/Stats_learning_trig/img/Stim/FN_023_g.png"",""time"":4082},{""stimulus"":""blank"",""time"":4383.900000002235}]","[{""key_press"":32,""rt"":2994.099999997765,""stimulus"":""https://ziweizhang0304.github.io/Stats_learning_trig/img/Stim/FN_022_g.png""}]","NaN","https://ziweizhang0304.github.io/Stats_learning_trig/img/Stim/FN_007_g.png","post_TD","15","3061.800000000745","","slow","9","3","5b48f2d0ff7497000125165e","","","","","",""
"","image-keyboard-response","43","180343","0.0-5.0-15.0-0.0","544.0999999977648","","","https://ziweizhang0304.github.io/Stats_learning_trig/img/Stim/FN_003_g.png","13","","","","","","","","","","","","","","","","","",""
"","animation","44","184765","0.0-5.0-15.0-1.0","","","","","","[{""stimulus"":""https://ziweizhang0304.github.io/Stats_learning_trig/img/Stim/FN_011_g.png"",""time"":342.30000000074506},{""stimulus"":""blank"",""time"":644.1000000014901},{""stimulus"":""https://ziweizhang0304.github.io/Stats_learning_trig/img/Stim/FN_015_g.png"",""time"":682.5},{""stimulus"":""blank"",""time"":983.9000000022352},{""stimulus"":""https://ziweizhang0304.github.io/Stats_learning_trig/img/Stim/FN_017_g.png"",""time"":1022.3000000007451},{""stimulus"":""blank"",""time"":1323},{""stimulus"":""https://ziweizhang0304.github.io/Stats_learning_trig/img/Stim/FN_008_g.png"",""time"":1362.2000000029802},{""stimulus"":""blank"",""time"":1664.1000000014901},{""stimulus"":""https://ziweizhang0304.github.io/Stats_learning_trig/img/Stim/FN_010_g.png"",""time"":1700.7000000029802},{""stimulus"":""blank"",""time"":2001.800000000745},{""stimulus"":""https://ziweizhang0304.github.io/Stats_learning_trig/img/Stim/FN_003_g.png"",""time"":2042},{""stimulus"":""blank"",""time"":2343.800000000745},{""stimulus"":""https://ziweizhang0304.github.io/Stats_learning_trig/img/Stim/FN_026_g.png"",""time"":2381.2000000029802},{""stimulus"":""blank"",""time"":2682.400000002235},{""stimulus"":""https://ziweizhang0304.github.io/Stats_learning_trig/img/Stim/FN_025_g.png"",""time"":2721.60000000149},{""stimulus"":""blank"",""time"":3023.10000000149},{""stimulus"":""https://ziweizhang0304.github.io/Stats_learning_trig/img/Stim/FN_023_g.png"",""time"":3062.5},{""stimulus"":""blank"",""time"":3364.300000000745},{""stimulus"":""https://ziweizhang0304.github.io/Stats_learning_trig/img/Stim/FN_014_g.png"",""time"":3401.5},{""stimulus"":""blank"",""time"":3703.5},{""stimulus"":""https://ziweizhang0304.github.io/Stats_learning_trig/img/Stim/FN_006_g.png"",""time"":3741.7000000029802},{""stimulus"":""blank"",""time"":4043.10000000149},{""stimulus"":""https://ziweizhang0304.github.io/Stats_learning_trig/img/Stim/FN_012_g.png"",""time"":4081.400000002235},{""stimulus"":""blank"",""time"":4383.20000000298}]","[{""key_press"":32,""rt"":2377.39999999851,""stimulus"":""blank""}]","335.3999999985099","https://ziweizhang0304.github.io/Stats_learning_trig/img/Stim/FN_003_g.png","post_TD","16","2042","2377.39999999851","fast","6","3","5b48f2d0ff7497000125165e","","","","","",""
"","image-keyboard-response","45","185128","0.0-5.0-16.0-0.0","360.3999999985099","","","https://ziweizhang0304.github.io/Stats_learning_trig/img/Stim/FN_007_g.png","13","","","","","","","","","","","","","","","","","",""
"","animation","46","189550","0.0-5.0-16.0-1.0","","","","","","[{""stimulus"":""https://ziweizhang0304.github.io/Stats_learning_trig/img/Stim/FN_026_g.png"",""time"":341.3999999985099},{""stimulus"":""blank"",""time"":642.0999999977648},{""stimulus"":""https://ziweizhang0304.github.io/Stats_learning_trig/img/Stim/FN_015_g.png"",""time"":682.5},{""stimulus"":""blank"",""time"":984.0999999977648},{""stimulus"":""https://ziweizhang0304.github.io/Stats_learning_trig/img/Stim/FN_023_g.png"",""time"":1022.3999999985099},{""stimulus"":""blank"",""time"":1324.0999999977648},{""stimulus"":""https://ziweizhang0304.github.io/Stats_learning_trig/img/Stim/FN_013_g.png"",""time"":1362.300000000745},{""stimulus"":""blank"",""time"":1663.800000000745},{""stimulus"":""https://ziweizhang0304.github.io/Stats_learning_trig/img/Stim/FN_022_g.png"",""time"":1701},{""stimulus"":""blank"",""time"":2002.800000000745},{""stimulus"":""https://ziweizhang0304.github.io/Stats_learning_trig/img/Stim/FN_007_g.png"",""time"":2042.199999999255},{""stimulus"":""blank"",""time"":2343.800000000745},{""stimulus"":""https://ziweizhang0304.github.io/Stats_learning_trig/img/Stim/FN_017_g.png"",""time"":2381.89999999851},{""stimulus"":""blank"",""time"":2683.800000000745},{""stimulus"":""https://ziweizhang0304.github.io/Stats_learning_trig/img/Stim/FN_025_g.png"",""time"":2721},{""stimulus"":""blank"",""time"":3022},{""stimulus"":""https://ziweizhang0304.github.io/Stats_learning_trig/img/Stim/FN_014_g.png"",""time"":3061.39999999851},{""stimulus"":""blank"",""time"":3362.699999999255},{""stimulus"":""https://ziweizhang0304.github.io/Stats_learning_trig/img/Stim/FN_006_g.png"",""time"":3400.89999999851},{""stimulus"":""blank"",""time"":3702.5},{""stimulus"":""https://ziweizhang0304.github.io/Stats_learning_trig/img/Stim/FN_012_g.png"",""time"":3741.699999999255},{""stimulus"":""blank"",""time"":4043.699999999255},{""stimulus"":""https://ziweizhang0304.github.io/Stats_learning_trig/img/Stim/FN_011_g.png"",""time"":4082.599999997765},{""stimulus"":""blank"",""time"":4384.199999999255}]","[{""key_press"":32,""rt"":2396.5,""stimulus"":""https://ziweizhang0304.github.io/Stats_learning_trig/img/Stim/FN_017_g.png""}]","354.30000000074506","https://ziweizhang0304.github.io/Stats_learning_trig/img/Stim/FN_007_g.png","post_TD","17","2042.199999999255","2396.5","slow","6","3","5b48f2d0ff7497000125165e","","","","","",""
"","image-keyboard-response","47","189960","0.0-5.0-17.0-0.0","409.0999999977648","","","https://ziweizhang0304.github.io/Stats_learning_trig/img/Stim/FN_003_g.png","13","","","","","","","","","","","","","","","","","",""
"","animation","48","194383","0.0-5.0-17.0-1.0","","","","","","[{""stimulus"":""https://ziweizhang0304.github.io/Stats_learning_trig/img/Stim/FN_025_g.png"",""time"":342.4000000022352},{""stimulus"":""blank"",""time"":643.5},{""stimulus"":""https://ziweizhang0304.github.io/Stats_learning_trig/img/Stim/FN_011_g.png"",""time"":681.9000000022352},{""stimulus"":""blank"",""time"":982.4000000022352},{""stimulus"":""https://ziweizhang0304.github.io/Stats_learning_trig/img/Stim/FN_023_g.png"",""time"":1021.6999999992549},{""stimulus"":""blank"",""time"":1323.6000000014901},{""stimulus"":""https://ziweizhang0304.github.io/Stats_learning_trig/img/Stim/FN_014_g.png"",""time"":1361.800000000745},{""stimulus"":""blank"",""time"":1663.6000000014901},{""stimulus"":""https://ziweizhang0304.github.io/Stats_learning_trig/img/Stim/FN_012_g.png"",""time"":1702},{""stimulus"":""blank"",""time"":2003.6000000014901},{""stimulus"":""https://ziweizhang0304.github.io/Stats_learning_trig/img/Stim/FN_008_g.png"",""time"":2040.800000000745},{""stimulus"":""blank"",""time"":2342.800000000745},{""stimulus"":""https://ziweizhang0304.github.io/Stats_learning_trig/img/Stim/FN_010_g.png"",""time"":2382},{""stimulus"":""blank"",""time"":2683.400000002235},{""stimulus"":""https://ziweizhang0304.github.io/Stats_learning_trig/img/Stim/FN_003_g.png"",""time"":2721.699999999255},{""stimulus"":""blank"",""time"":3023.400000002235},{""stimulus"":""https://ziweizhang0304.github.io/Stats_learning_trig/img/Stim/FN_015_g.png"",""time"":3061.5},{""stimulus"":""blank"",""time"":3362.5},{""stimulus"":""https://ziweizhang0304.github.io/Stats_learning_trig/img/Stim/FN_017_g.png"",""time"":3401.800000000745},{""stimulus"":""blank"",""time"":3703.900000002235},{""stimulus"":""https://ziweizhang0304.github.io/Stats_learning_trig/img/Stim/FN_026_g.png"",""time"":3741.10000000149},{""stimulus"":""blank"",""time"":4042.699999999255},{""stimulus"":""https://ziweizhang0304.github.io/Stats_learning_trig/img/Stim/FN_006_g.png"",""time"":4081.5},{""stimulus"":""blank"",""time"":4382.900000002235}]","[{""key_press"":32,""rt"":1793.5,""stimulus"":""https://ziweizhang0304.github.io/Stats_learning_trig/img/Stim/FN_012_g.png""},{""key_press"":32,""rt"":3017.400000002235,""stimulus"":""https://ziweizhang0304.github.io/Stats_learning_trig/img/Stim/FN_003_g.png""}]","295.70000000298023","https://ziweizhang0304.github.io/Stats_learning_trig/img/Stim/FN_003_g.png","post_TD","18","2721.699999999255","3017.400000002235","fast","8","3","5b48f2d0ff7497000125165e","","","","","",""
"","image-keyboard-response","49","194897","0.0-5.0-18.0-0.0","511.9000000022352","","","https://ziweizhang0304.github.io/Stats_learning_trig/img/Stim/FN_003_g.png","13","","","","","","","","","","","","","","","","","",""
"","animation","50","199320","0.0-5.0-18.0-1.0","","","","","","[{""stimulus"":""https://ziweizhang0304.github.io/Stats_learning_trig/img/Stim/FN_011_g.png"",""time"":342.6000000014901},{""stimulus"":""blank"",""time"":643.8000000007451},{""stimulus"":""https://ziweizhang0304.github.io/Stats_learning_trig/img/Stim/FN_023_g.png"",""time"":682.3000000007451},{""stimulus"":""blank"",""time"":984.1999999992549},{""stimulus"":""https://ziweizhang0304.github.io/Stats_learning_trig/img/Stim/FN_017_g.png"",""time"":1022.3999999985099},{""stimulus"":""blank"",""time"":1324.300000000745},{""stimulus"":""https://ziweizhang0304.github.io/Stats_learning_trig/img/Stim/FN_014_g.png"",""time"":1362.3999999985099},{""stimulus"":""blank"",""time"":1664.199999999255},{""stimulus"":""https://ziweizhang0304.github.io/Stats_learning_trig/img/Stim/FN_008_g.png"",""time"":1701.5},{""stimulus"":""blank"",""time"":2002.699999999255},{""stimulus"":""https://ziweizhang0304.github.io/Stats_learning_trig/img/Stim/FN_010_g.png"",""time"":2041.699999999255},{""stimulus"":""blank"",""time"":2342.699999999255},{""stimulus"":""https://ziweizhang0304.github.io/Stats_learning_trig/img/Stim/FN_003_g.png"",""time"":2381.89999999851},{""stimulus"":""blank"",""time"":2683.199999999255},{""stimulus"":""https://ziweizhang0304.github.io/Stats_learning_trig/img/Stim/FN_015_g.png"",""time"":2721.60000000149},{""stimulus"":""blank"",""time"":3023.39999999851},{""stimulus"":""https://ziweizhang0304.github.io/Stats_learning_trig/img/Stim/FN_026_g.png"",""time"":3061.800000000745},{""stimulus"":""blank"",""time"":3362.89999999851},{""stimulus"":""https://ziweizhang0304.github.io/Stats_learning_trig/img/Stim/FN_025_g.png"",""time"":3401.300000000745},{""stimulus"":""blank"",""time"":3702.800000000745},{""stimulus"":""https://ziweizhang0304.github.io/Stats_learning_trig/img/Stim/FN_006_g.png"",""time"":3740.699999999255},{""stimulus"":""blank"",""time"":4042.5},{""stimulus"":""https://ziweizhang0304.github.io/Stats_learning_trig/img/Stim/FN_012_g.png"",""time"":4081.800000000745},{""stimulus"":""blank"",""time"":4383.5}]","[{""key_press"":32,""rt"":2773.39999999851,""stimulus"":""https://ziweizhang0304.github.io/Stats_learning_trig/img/Stim/FN_015_g.png""}]","391.5","https://ziweizhang0304.github.io/Stats_learning_trig/img/Stim/FN_003_g.png","post_TD","19","2381.89999999851","2773.39999999851","fast","7","3","5b48f2d0ff7497000125165e","","","","","",""
"","image-keyboard-response","51","199710","0.0-5.0-19.0-0.0","389","","","https://ziweizhang0304.github.io/Stats_learning_trig/img/Stim/FN_007_g.png","13","","","","","","","","","","","","","","","","","",""
"","animation","52","204133","0.0-5.0-19.0-1.0","","","","","","[{""stimulus"":""https://ziweizhang0304.github.io/Stats_learning_trig/img/Stim/FN_017_g.png"",""time"":340.80000000074506},{""stimulus"":""blank"",""time"":642.3000000007451},{""stimulus"":""https://ziweizhang0304.github.io/Stats_learning_trig/img/Stim/FN_014_g.png"",""time"":681.6000000014901},{""stimulus"":""blank"",""time"":983.3000000007451},{""stimulus"":""https://ziweizhang0304.github.io/Stats_learning_trig/img/Stim/FN_026_g.png"",""time"":1021.4000000022352},{""stimulus"":""blank"",""time"":1322.7000000029802},{""stimulus"":""https://ziweizhang0304.github.io/Stats_learning_trig/img/Stim/FN_012_g.png"",""time"":1362.1000000014901},{""stimulus"":""blank"",""time"":1663.2000000029802},{""stimulus"":""https://ziweizhang0304.github.io/Stats_learning_trig/img/Stim/FN_013_g.png"",""time"":1701.4000000022352},{""stimulus"":""blank"",""time"":2003.300000000745},{""stimulus"":""https://ziweizhang0304.github.io/Stats_learning_trig/img/Stim/FN_022_g.png"",""time"":2040.6000000014901},{""stimulus"":""blank"",""time"":2341.10000000149},{""stimulus"":""https://ziweizhang0304.github.io/Stats_learning_trig/img/Stim/FN_007_g.png"",""time"":2382.400000002235},{""stimulus"":""blank"",""time"":2684.300000000745},{""stimulus"":""https://ziweizhang0304.github.io/Stats_learning_trig/img/Stim/FN_015_g.png"",""time"":2721.400000002235},{""stimulus"":""blank"",""time"":3023.300000000745},{""stimulus"":""https://ziweizhang0304.github.io/Stats_learning_trig/img/Stim/FN_025_g.png"",""time"":3061.60000000149},{""stimulus"":""blank"",""time"":3363.5},{""stimulus"":""https://ziweizhang0304.github.io/Stats_learning_trig/img/Stim/FN_023_g.png"",""time"":3401.7000000029802},{""stimulus"":""blank"",""time"":3702.800000000745},{""stimulus"":""https://ziweizhang0304.github.io/Stats_learning_trig/img/Stim/FN_006_g.png"",""time"":3742},{""stimulus"":""blank"",""time"":4043.400000002235},{""stimulus"":""https://ziweizhang0304.github.io/Stats_learning_trig/img/Stim/FN_011_g.png"",""time"":4081.900000002235},{""stimulus"":""blank"",""time"":4383.5}]","[{""key_press"":32,""rt"":2742.39999999851,""stimulus"":""https://ziweizhang0304.github.io/Stats_learning_trig/img/Stim/FN_015_g.png""}]","359.9999999962747","https://ziweizhang0304.github.io/Stats_learning_trig/img/Stim/FN_007_g.png","post_TD","20","2382.400000002235","2742.39999999851","slow","7","3","5b48f2d0ff7497000125165e","","","","","",""
"","image-keyboard-response","53","204518","0.0-5.0-20.0-0.0","382.9000000022352","","","https://ziweizhang0304.github.io/Stats_learning_trig/img/Stim/FN_008_g.png","13","","","","","","","","","","","","","","","","","",""
"","animation","54","208940","0.0-5.0-20.0-1.0","","","","","","[{""stimulus"":""https://ziweizhang0304.github.io/Stats_learning_trig/img/Stim/FN_026_g.png"",""time"":341.80000000074506},{""stimulus"":""blank"",""time"":643.1999999992549},{""stimulus"":""https://ziweizhang0304.github.io/Stats_learning_trig/img/Stim/FN_014_g.png"",""time"":681.6000000014901},{""stimulus"":""blank"",""time"":983},{""stimulus"":""https://ziweizhang0304.github.io/Stats_learning_trig/img/Stim/FN_006_g.png"",""time"":1021.1000000014901},{""stimulus"":""blank"",""time"":1322.3999999985099},{""stimulus"":""https://ziweizhang0304.github.io/Stats_learning_trig/img/Stim/FN_012_g.png"",""time"":1361.5},{""stimulus"":""blank"",""time"":1663.1000000014901},{""stimulus"":""https://ziweizhang0304.github.io/Stats_learning_trig/img/Stim/FN_017_g.png"",""time"":1702.3999999985099},{""stimulus"":""blank"",""time"":2004.1000000014901},{""stimulus"":""https://ziweizhang0304.github.io/Stats_learning_trig/img/Stim/FN_025_g.png"",""time"":2042.3999999985099},{""stimulus"":""blank"",""time"":2344.199999999255},{""stimulus"":""https://ziweizhang0304.github.io/Stats_learning_trig/img/Stim/FN_008_g.png"",""time"":2381.60000000149},{""stimulus"":""blank"",""time"":2683.300000000745},{""stimulus"":""https://ziweizhang0304.github.io/Stats_learning_trig/img/Stim/FN_010_g.png"",""time"":2721.5},{""stimulus"":""blank"",""time"":3022.89999999851},{""stimulus"":""https://ziweizhang0304.github.io/Stats_learning_trig/img/Stim/FN_003_g.png"",""time"":3062.199999999255},{""stimulus"":""blank"",""time"":3363.89999999851},{""stimulus"":""https://ziweizhang0304.github.io/Stats_learning_trig/img/Stim/FN_015_g.png"",""time"":3402.199999999255},{""stimulus"":""blank"",""time"":3704},{""stimulus"":""https://ziweizhang0304.github.io/Stats_learning_trig/img/Stim/FN_023_g.png"",""time"":3742.39999999851},{""stimulus"":""blank"",""time"":4043.699999999255},{""stimulus"":""https://ziweizhang0304.github.io/Stats_learning_trig/img/Stim/FN_011_g.png"",""time"":4081.60000000149},{""stimulus"":""blank"",""time"":4382.300000000745}]","[{""key_press"":32,""rt"":2741.60000000149,""stimulus"":""https://ziweizhang0304.github.io/Stats_learning_trig/img/Stim/FN_010_g.png""}]","360","https://ziweizhang0304.github.io/Stats_learning_trig/img/Stim/FN_008_g.png","post_TD","21","2381.60000000149","2741.60000000149","fast","7","1","5b48f2d0ff7497000125165e","","","","","",""
"","image-keyboard-response","55","209404","0.0-5.0-21.0-0.0","462","","","https://ziweizhang0304.github.io/Stats_learning_trig/img/Stim/FN_010_g.png","13","","","","","","","","","","","","","","","","","",""
"","animation","56","213826","0.0-5.0-21.0-1.0","","","","","","[{""stimulus"":""https://ziweizhang0304.github.io/Stats_learning_trig/img/Stim/FN_011_g.png"",""time"":341.8999999985099},{""stimulus"":""blank"",""time"":643.5999999977648},{""stimulus"":""https://ziweizhang0304.github.io/Stats_learning_trig/img/Stim/FN_023_g.png"",""time"":681.6999999992549},{""stimulus"":""blank"",""time"":983.6999999992549},{""stimulus"":""https://ziweizhang0304.github.io/Stats_learning_trig/img/Stim/FN_017_g.png"",""time"":1021.6999999992549},{""stimulus"":""blank"",""time"":1322.800000000745},{""stimulus"":""https://ziweizhang0304.github.io/Stats_learning_trig/img/Stim/FN_014_g.png"",""time"":1362.199999999255},{""stimulus"":""blank"",""time"":1664.199999999255},{""stimulus"":""https://ziweizhang0304.github.io/Stats_learning_trig/img/Stim/FN_008_g.png"",""time"":1702.300000000745},{""stimulus"":""blank"",""time"":2003.800000000745},{""stimulus"":""https://ziweizhang0304.github.io/Stats_learning_trig/img/Stim/FN_010_g.png"",""time"":2042.199999999255},{""stimulus"":""blank"",""time"":2344},{""stimulus"":""https://ziweizhang0304.github.io/Stats_learning_trig/img/Stim/FN_003_g.png"",""time"":2382.39999999851},{""stimulus"":""blank"",""time"":2684.099999997765},{""stimulus"":""https://ziweizhang0304.github.io/Stats_learning_trig/img/Stim/FN_015_g.png"",""time"":2720.599999997765},{""stimulus"":""blank"",""time"":3022.099999997765},{""stimulus"":""https://ziweizhang0304.github.io/Stats_learning_trig/img/Stim/FN_026_g.png"",""time"":3062.39999999851},{""stimulus"":""blank"",""time"":3363.39999999851},{""stimulus"":""https://ziweizhang0304.github.io/Stats_learning_trig/img/Stim/FN_025_g.png"",""time"":3400.699999999255},{""stimulus"":""blank"",""time"":3702.599999997765},{""stimulus"":""https://ziweizhang0304.github.io/Stats_learning_trig/img/Stim/FN_006_g.png"",""time"":3741.800000000745},{""stimulus"":""blank"",""time"":4043.599999997765},{""stimulus"":""https://ziweizhang0304.github.io/Stats_learning_trig/img/Stim/FN_012_g.png"",""time"":4081.89999999851},{""stimulus"":""blank"",""time"":4383.699999999255}]","[{""key_press"":32,""rt"":2128.400000002235,""stimulus"":""https://ziweizhang0304.github.io/Stats_learning_trig/img/Stim/FN_010_g.png""}]","86.20000000298023","https://ziweizhang0304.github.io/Stats_learning_trig/img/Stim/FN_010_g.png","post_TD","22","2042.199999999255","2128.400000002235","fast","6","2","5b48f2d0ff7497000125165e","","","","","",""
"","image-keyboard-response","57","214246","0.0-5.0-22.0-0.0","417","","","https://ziweizhang0304.github.io/Stats_learning_trig/img/Stim/FN_022_g.png","13","","","","","","","","","","","","","","","","","",""
"","animation","58","218667","0.0-5.0-22.0-1.0","","","","","","[{""stimulus"":""https://ziweizhang0304.github.io/Stats_learning_trig/img/Stim/FN_026_g.png"",""time"":342.0999999977648},{""stimulus"":""blank"",""time"":643.6999999992549},{""stimulus"":""https://ziweizhang0304.github.io/Stats_learning_trig/img/Stim/FN_015_g.png"",""time"":681.1999999992549},{""stimulus"":""blank"",""time"":982.3999999985099},{""stimulus"":""https://ziweizhang0304.github.io/Stats_learning_trig/img/Stim/FN_023_g.png"",""time"":1021.3999999985099},{""stimulus"":""blank"",""time"":1322.5},{""stimulus"":""https://ziweizhang0304.github.io/Stats_learning_trig/img/Stim/FN_013_g.png"",""time"":1361.800000000745},{""stimulus"":""blank"",""time"":1663.699999999255},{""stimulus"":""https://ziweizhang0304.github.io/Stats_learning_trig/img/Stim/FN_022_g.png"",""time"":1701.300000000745},{""stimulus"":""blank"",""time"":2002.8999999985099},{""stimulus"":""https://ziweizhang0304.github.io/Stats_learning_trig/img/Stim/FN_007_g.png"",""time"":2042.0999999977648},{""stimulus"":""blank"",""time"":2344},{""stimulus"":""https://ziweizhang0304.github.io/Stats_learning_trig/img/Stim/FN_017_g.png"",""time"":2381.39999999851},{""stimulus"":""blank"",""time"":2682.599999997765},{""stimulus"":""https://ziweizhang0304.github.io/Stats_learning_trig/img/Stim/FN_025_g.png"",""time"":2721.89999999851},{""stimulus"":""blank"",""time"":3023.800000000745},{""stimulus"":""https://ziweizhang0304.github.io/Stats_learning_trig/img/Stim/FN_014_g.png"",""time"":3061.89999999851},{""stimulus"":""blank"",""time"":3363.300000000745},{""stimulus"":""https://ziweizhang0304.github.io/Stats_learning_trig/img/Stim/FN_006_g.png"",""time"":3401.599999997765},{""stimulus"":""blank"",""time"":3703.5},{""stimulus"":""https://ziweizhang0304.github.io/Stats_learning_trig/img/Stim/FN_012_g.png"",""time"":3741.699999999255},{""stimulus"":""blank"",""time"":4043.599999997765},{""stimulus"":""https://ziweizhang0304.github.io/Stats_learning_trig/img/Stim/FN_011_g.png"",""time"":4080.800000000745},{""stimulus"":""blank"",""time"":4382.5}]","[{""key_press"":32,""rt"":2161.5,""stimulus"":""https://ziweizhang0304.github.io/Stats_learning_trig/img/Stim/FN_007_g.png""}]","460.19999999925494","https://ziweizhang0304.github.io/Stats_learning_trig/img/Stim/FN_022_g.png","post_TD","23","1701.300000000745","2161.5","slow","5","2","5b48f2d0ff7497000125165e","","","","","",""
"","image-keyboard-response","59","219019","0.0-5.0-23.0-0.0","349.79999999701977","","","https://ziweizhang0304.github.io/Stats_learning_trig/img/Stim/FN_013_g.png","13","","","","","","","","","","","","","","","","","",""
"","animation","60","223441","0.0-5.0-23.0-1.0","","","","","","[{""stimulus"":""https://ziweizhang0304.github.io/Stats_learning_trig/img/Stim/FN_014_g.png"",""time"":342.19999999925494},{""stimulus"":""blank"",""time"":643.6999999992549},{""stimulus"":""https://ziweizhang0304.github.io/Stats_learning_trig/img/Stim/FN_015_g.png"",""time"":681.9000000022352},{""stimulus"":""blank"",""time"":982.3000000007451},{""stimulus"":""https://ziweizhang0304.github.io/Stats_learning_trig/img/Stim/FN_025_g.png"",""time"":1021.6000000014901},{""stimulus"":""blank"",""time"":1323.1000000014901},{""stimulus"":""https://ziweizhang0304.github.io/Stats_learning_trig/img/Stim/FN_012_g.png"",""time"":1362.5},{""stimulus"":""blank"",""time"":1663.9000000022352},{""stimulus"":""https://ziweizhang0304.github.io/Stats_learning_trig/img/Stim/FN_026_g.png"",""time"":1701.199999999255},{""stimulus"":""blank"",""time"":2002.6000000014901},{""stimulus"":""https://ziweizhang0304.github.io/Stats_learning_trig/img/Stim/FN_013_g.png"",""time"":2041.800000000745},{""stimulus"":""blank"",""time"":2343.199999999255},{""stimulus"":""https://ziweizhang0304.github.io/Stats_learning_trig/img/Stim/FN_022_g.png"",""time"":2382.60000000149},{""stimulus"":""blank"",""time"":2684.199999999255},{""stimulus"":""https://ziweizhang0304.github.io/Stats_learning_trig/img/Stim/FN_007_g.png"",""time"":2721.400000002235},{""stimulus"":""blank"",""time"":3023.199999999255},{""stimulus"":""https://ziweizhang0304.github.io/Stats_learning_trig/img/Stim/FN_017_g.png"",""time"":3062.5},{""stimulus"":""blank"",""time"":3364.300000000745},{""stimulus"":""https://ziweizhang0304.github.io/Stats_learning_trig/img/Stim/FN_023_g.png"",""time"":3401.5},{""stimulus"":""blank"",""time"":3703.400000002235},{""stimulus"":""https://ziweizhang0304.github.io/Stats_learning_trig/img/Stim/FN_006_g.png"",""time"":3741.60000000149},{""stimulus"":""blank"",""time"":4042.60000000149},{""stimulus"":""https://ziweizhang0304.github.io/Stats_learning_trig/img/Stim/FN_011_g.png"",""time"":4081.10000000149},{""stimulus"":""blank"",""time"":4382.900000002235}]","[{""key_press"":32,""rt"":2409.300000000745,""stimulus"":""https://ziweizhang0304.github.io/Stats_learning_trig/img/Stim/FN_022_g.png""}]","367.5","https://ziweizhang0304.github.io/Stats_learning_trig/img/Stim/FN_013_g.png","post_TD","24","2041.800000000745","2409.300000000745","slow","6","1","5b48f2d0ff7497000125165e","05bfb","","","","",""
"","survey-text","61","233673","0.0-6.0","10220.199999999255","","","","","","","","","","","","","","","","","","{""Q0"":""I just tried to focus as best as I could.""}","","","",""
"","survey-text","62","253296","0.0-7.0","19619.800000000745","","","","","","","","","","","","","","","","","","{""[object Object]"":""Some shapes were similar like the play/pause button and the diamond.""}","","","",""
"","instructions","63","268470","0.0-8.0","15174","","[{""page_index"":0,""viewing_time"":15173.699999999255}]","","","","","","","","","","","","","","","","","","","",""
"","free-sort","64","305420","0.0-9.0","36948.599999997765","","","","","","","","","post_drag","","","","fast","","","","","","[{""src"":""https://ziweizhang0304.github.io/Stats_learning_trig/img/Stim/FN_003_g.png"",""x"":475,""y"":0},{""src"":""https://ziweizhang0304.github.io/Stats_learning_trig/img/Stim/FN_008_g.png"",""x"":-225,""y"":50},{""src"":""https://ziweizhang0304.github.io/Stats_learning_trig/img/Stim/FN_010_g.png"",""x"":475,""y"":50}]","[{""src"":""https://ziweizhang0304.github.io/Stats_learning_trig/img/Stim/FN_010_g.png"",""x"":141,""y"":21},{""src"":""https://ziweizhang0304.github.io/Stats_learning_trig/img/Stim/FN_003_g.png"",""x"":227,""y"":18},{""src"":""https://ziweizhang0304.github.io/Stats_learning_trig/img/Stim/FN_003_g.png"",""x"":33,""y"":15},{""src"":""https://ziweizhang0304.github.io/Stats_learning_trig/img/Stim/FN_003_g.png"",""x"":214,""y"":10},{""src"":""https://ziweizhang0304.github.io/Stats_learning_trig/img/Stim/FN_010_g.png"",""x"":31,""y"":23},{""src"":""https://ziweizhang0304.github.io/Stats_learning_trig/img/Stim/FN_003_g.png"",""x"":127,""y"":11},{""src"":""https://ziweizhang0304.github.io/Stats_learning_trig/img/Stim/FN_008_g.png"",""x"":229,""y"":33}]","[{""src"":""https://ziweizhang0304.github.io/Stats_learning_trig/img/Stim/FN_003_g.png"",""x"":127,""y"":11},{""src"":""https://ziweizhang0304.github.io/Stats_learning_trig/img/Stim/FN_008_g.png"",""x"":229,""y"":33},{""src"":""https://ziweizhang0304.github.io/Stats_learning_trig/img/Stim/FN_010_g.png"",""x"":31,""y"":23}]",""
"","free-sort","65","318305","0.0-10.0","12883.5","","","","","","","","","post_drag","","","","slow","","","","","","[{""src"":""https://ziweizhang0304.github.io/Stats_learning_trig/img/Stim/FN_013_g.png"",""x"":475,""y"":0},{""src"":""https://ziweizhang0304.github.io/Stats_learning_trig/img/Stim/FN_007_g.png"",""x"":-225,""y"":50},{""src"":""https://ziweizhang0304.github.io/Stats_learning_trig/img/Stim/FN_022_g.png"",""x"":475,""y"":50}]","[{""src"":""https://ziweizhang0304.github.io/Stats_learning_trig/img/Stim/FN_007_g.png"",""x"":148,""y"":22},{""src"":""https://ziweizhang0304.github.io/Stats_learning_trig/img/Stim/FN_022_g.png"",""x"":33,""y"":18},{""src"":""https://ziweizhang0304.github.io/Stats_learning_trig/img/Stim/FN_007_g.png"",""x"":236,""y"":28},{""src"":""https://ziweizhang0304.github.io/Stats_learning_trig/img/Stim/FN_013_g.png"",""x"":147,""y"":15}]","[{""src"":""https://ziweizhang0304.github.io/Stats_learning_trig/img/Stim/FN_013_g.png"",""x"":147,""y"":15},{""src"":""https://ziweizhang0304.github.io/Stats_learning_trig/img/Stim/FN_007_g.png"",""x"":236,""y"":28},{""src"":""https://ziweizhang0304.github.io/Stats_learning_trig/img/Stim/FN_022_g.png"",""x"":33,""y"":18}]",""
"","survey-multi-choice","66","329047","0.0-11.0","10739","","","","","","","","","","","","","","","","5b48f2d0ff7497000125165e","","{""awareness"":""Yes"",""attention_check"":""Press SPACEBAR to a target""}","","","","[0,1]"
