"success","trial_type","trial_index","time_elapsed","internal_node_id","rt","url","view_history","stimulus","key_press","animation_sequence","response","TD_rt","TD_target","test_part","TD_trial_number","onset","offset","attention_state","TD_target_position","TD_within_triplet_counter","participant","yoke_participant","responses","init_locations","moves","final_locations","question_order"
"true","fullscreen","0","3159","0.0-0.0","","","","","","","","","","","","","","","","","","","","","","",""
"","external-html","1","16029","0.0-1.0","12727.60000000149","https://ziweizhang0304.github.io/Stats_learning_trig/content/consent.html","","","","","","","","","","","","","","","","","","","","",""
"","instructions","2","44510","0.0-2.0","28475.80000000447","","[{""page_index"":0,""viewing_time"":2307.8000000044703},{""page_index"":1,""viewing_time"":14001.10000000149},{""page_index"":2,""viewing_time"":10400.29999999702},{""page_index"":3,""viewing_time"":1765.2000000029802}]","","","","","","","","","","","","","","","","","","","",""
"","image-keyboard-response","3","49701","0.0-3.0-0.0-0.0","5189.19999999553","","","https://ziweizhang0304.github.io/Stats_learning_trig/img/Stim/FN_025_g.png","13","","","","","","","","","","","","","","","","","",""
"","animation","4","54124","0.0-3.0-0.0-1.0","","","","","","[{""stimulus"":""https://ziweizhang0304.github.io/Stats_learning_trig/img/Stim/FN_002_g.png"",""time"":373.1000000014901},{""stimulus"":""blank"",""time"":683.3999999985099},{""stimulus"":""https://ziweizhang0304.github.io/Stats_learning_trig/img/Stim/FN_016_g.png"",""time"":684.5},{""stimulus"":""blank"",""time"":992.7999999970198},{""stimulus"":""https://ziweizhang0304.github.io/Stats_learning_trig/img/Stim/FN_011_g.png"",""time"":1021.2999999970198},{""stimulus"":""blank"",""time"":1335.7999999970198},{""stimulus"":""https://ziweizhang0304.github.io/Stats_learning_trig/img/Stim/FN_021_g.png"",""time"":1367.8999999985099},{""stimulus"":""blank"",""time"":1678.1999999955297},{""stimulus"":""https://ziweizhang0304.github.io/Stats_learning_trig/img/Stim/FN_010_g.png"",""time"":1702},{""stimulus"":""blank"",""time"":2004.6999999955297},{""stimulus"":""https://ziweizhang0304.github.io/Stats_learning_trig/img/Stim/FN_019_g.png"",""time"":2043.1999999955297},{""stimulus"":""blank"",""time"":2346.2999999970198},{""stimulus"":""https://ziweizhang0304.github.io/Stats_learning_trig/img/Stim/FN_007_g.png"",""time"":2385},{""stimulus"":""blank"",""time"":2687.39999999851},{""stimulus"":""https://ziweizhang0304.github.io/Stats_learning_trig/img/Stim/FN_023_g.png"",""time"":2725.7999999970198},{""stimulus"":""blank"",""time"":3041},{""stimulus"":""https://ziweizhang0304.github.io/Stats_learning_trig/img/Stim/FN_004_g.png"",""time"":3062.1999999955297},{""stimulus"":""blank"",""time"":3369.2999999970198},{""stimulus"":""https://ziweizhang0304.github.io/Stats_learning_trig/img/Stim/FN_018_g.png"",""time"":3401},{""stimulus"":""blank"",""time"":3711.2999999970198},{""stimulus"":""https://ziweizhang0304.github.io/Stats_learning_trig/img/Stim/FN_026_g.png"",""time"":3743.10000000149},{""stimulus"":""blank"",""time"":4052.6999999955297},{""stimulus"":""https://ziweizhang0304.github.io/Stats_learning_trig/img/Stim/FN_025_g.png"",""time"":4083.7999999970198},{""stimulus"":""blank"",""time"":4393.29999999702}]","[{""key_press"":32,""rt"":4407.80000000447,""stimulus"":""blank""}]","324.0000000074506","https://ziweizhang0304.github.io/Stats_learning_trig/img/Stim/FN_025_g.png","post_prac","","","","","","","","","","","","",""
"","html-keyboard-response","5","58843","0.0-3.0-0.0-2.0","4711.70000000298","","","<p>Your reaction time for this trial was 324 ms.</p><p>Remember that you should only press the SPACEBAR when you see the shape presented at the beginning of the trial. </b> </p><p>Press enter to move on.</p>","13","","","","","","","","","","","","","","","","","",""
"","image-keyboard-response","6","61187","0.0-3.0-1.0-0.0","2342.7000000029802","","","https://ziweizhang0304.github.io/Stats_learning_trig/img/Stim/FN_005_g.png","13","","","","","","","","","","","","","","","","","",""
"","animation","7","65610","0.0-3.0-1.0-1.0","","","","","","[{""stimulus"":""https://ziweizhang0304.github.io/Stats_learning_trig/img/Stim/FN_021_g.png"",""time"":354.70000000298023},{""stimulus"":""blank"",""time"":666.2000000029802},{""stimulus"":""https://ziweizhang0304.github.io/Stats_learning_trig/img/Stim/FN_019_g.png"",""time"":681},{""stimulus"":""blank"",""time"":992.2999999970198},{""stimulus"":""https://ziweizhang0304.github.io/Stats_learning_trig/img/Stim/FN_007_g.png"",""time"":1021.1000000014901},{""stimulus"":""blank"",""time"":1333.1000000014901},{""stimulus"":""https://ziweizhang0304.github.io/Stats_learning_trig/img/Stim/FN_018_g.png"",""time"":1361.5},{""stimulus"":""blank"",""time"":1673.3999999985099},{""stimulus"":""https://ziweizhang0304.github.io/Stats_learning_trig/img/Stim/FN_026_g.png"",""time"":1701.3999999985099},{""stimulus"":""blank"",""time"":2002.2000000029802},{""stimulus"":""https://ziweizhang0304.github.io/Stats_learning_trig/img/Stim/FN_010_g.png"",""time"":2049.5},{""stimulus"":""blank"",""time"":2360},{""stimulus"":""https://ziweizhang0304.github.io/Stats_learning_trig/img/Stim/FN_014_g.png"",""time"":2381.60000000149},{""stimulus"":""blank"",""time"":2686.10000000149},{""stimulus"":""https://ziweizhang0304.github.io/Stats_learning_trig/img/Stim/FN_017_g.png"",""time"":2721.39999999851},{""stimulus"":""blank"",""time"":3027.7000000029802},{""stimulus"":""https://ziweizhang0304.github.io/Stats_learning_trig/img/Stim/FN_005_g.png"",""time"":3066.2999999970198},{""stimulus"":""blank"",""time"":3367.10000000149},{""stimulus"":""https://ziweizhang0304.github.io/Stats_learning_trig/img/Stim/FN_004_g.png"",""time"":3406.10000000149},{""stimulus"":""blank"",""time"":3711.10000000149},{""stimulus"":""https://ziweizhang0304.github.io/Stats_learning_trig/img/Stim/FN_016_g.png"",""time"":3740.7000000029802},{""stimulus"":""blank"",""time"":4056},{""stimulus"":""https://ziweizhang0304.github.io/Stats_learning_trig/img/Stim/FN_011_g.png"",""time"":4081.10000000149},{""stimulus"":""blank"",""time"":4396.5}]","[{""key_press"":32,""rt"":3447.5,""stimulus"":""https://ziweizhang0304.github.io/Stats_learning_trig/img/Stim/FN_004_g.png""}]","381.20000000298023","https://ziweizhang0304.github.io/Stats_learning_trig/img/Stim/FN_005_g.png","post_prac","","","","","","","","","","","","",""
"","html-keyboard-response","8","71243","0.0-3.0-1.0-2.0","5631.20000000298","","","<p>Your reaction time for this trial was 381.2 ms.</p><p>Remember that you should only press the SPACEBAR when you see the shape presented at the beginning of the trial. </b> </p><p>Press enter to move on.</p>","13","","","","","","","","","","","","","","","","","",""
"","image-keyboard-response","9","72781","0.0-3.0-2.0-0.0","1536.8999999985099","","","https://ziweizhang0304.github.io/Stats_learning_trig/img/Stim/FN_017_g.png","13","","","","","","","","","","","","","","","","","",""
"","animation","10","77203","0.0-3.0-2.0-1.0","","","","","","[{""stimulus"":""https://ziweizhang0304.github.io/Stats_learning_trig/img/Stim/FN_019_g.png"",""time"":346.3999999985099},{""stimulus"":""blank"",""time"":658.3999999985099},{""stimulus"":""https://ziweizhang0304.github.io/Stats_learning_trig/img/Stim/FN_016_g.png"",""time"":689.8999999985099},{""stimulus"":""blank"",""time"":1002.3999999985099},{""stimulus"":""https://ziweizhang0304.github.io/Stats_learning_trig/img/Stim/FN_021_g.png"",""time"":1021.3999999985099},{""stimulus"":""blank"",""time"":1332.5},{""stimulus"":""https://ziweizhang0304.github.io/Stats_learning_trig/img/Stim/FN_007_g.png"",""time"":1363.1000000014901},{""stimulus"":""blank"",""time"":1673.1999999955297},{""stimulus"":""https://ziweizhang0304.github.io/Stats_learning_trig/img/Stim/FN_010_g.png"",""time"":1704.3999999985099},{""stimulus"":""blank"",""time"":2015.1000000014901},{""stimulus"":""https://ziweizhang0304.github.io/Stats_learning_trig/img/Stim/FN_014_g.png"",""time"":2040.8999999985099},{""stimulus"":""blank"",""time"":2343.7999999970198},{""stimulus"":""https://ziweizhang0304.github.io/Stats_learning_trig/img/Stim/FN_017_g.png"",""time"":2382.10000000149},{""stimulus"":""blank"",""time"":2687.1999999955297},{""stimulus"":""https://ziweizhang0304.github.io/Stats_learning_trig/img/Stim/FN_005_g.png"",""time"":2726},{""stimulus"":""blank"",""time"":3030.60000000149},{""stimulus"":""https://ziweizhang0304.github.io/Stats_learning_trig/img/Stim/FN_004_g.png"",""time"":3062.7999999970198},{""stimulus"":""blank"",""time"":3375.1999999955297},{""stimulus"":""https://ziweizhang0304.github.io/Stats_learning_trig/img/Stim/FN_011_g.png"",""time"":3405.89999999851},{""stimulus"":""blank"",""time"":3716.39999999851},{""stimulus"":""https://ziweizhang0304.github.io/Stats_learning_trig/img/Stim/FN_026_g.png"",""time"":3740.7999999970198},{""stimulus"":""blank"",""time"":4042.39999999851},{""stimulus"":""https://ziweizhang0304.github.io/Stats_learning_trig/img/Stim/FN_018_g.png"",""time"":4088.5},{""stimulus"":""blank"",""time"":4400.79999999702}]","[{""key_press"":32,""rt"":2746.39999999851,""stimulus"":""https://ziweizhang0304.github.io/Stats_learning_trig/img/Stim/FN_005_g.png""}]","364.29999999701977","https://ziweizhang0304.github.io/Stats_learning_trig/img/Stim/FN_017_g.png","post_prac","","","","","","","","","","","","",""
"","html-keyboard-response","11","78794","0.0-3.0-2.0-2.0","1587.9000000059605","","","<p>Your reaction time for this trial was 364.3 ms.</p><p>Remember that you should only press the SPACEBAR when you see the shape presented at the beginning of the trial. </b> </p><p>Press enter to move on.</p>","13","","","","","","","","","","","","","","","","","",""
"","instructions","12","80358","0.0-4.0","1563.8999999985099","","[{""page_index"":0,""viewing_time"":1563.5}]","","","","","","","","","","","","","","","","","","","",""
"","image-keyboard-response","13","81504","0.0-5.0-0.0-0.0","1144.3999999985099","","","https://ziweizhang0304.github.io/Stats_learning_trig/img/Stim/FN_002_g.png","13","","","","","","","","","","","","","","","","","",""
"","animation","14","85927","0.0-5.0-0.0-1.0","","","","","","[{""stimulus"":""https://ziweizhang0304.github.io/Stats_learning_trig/img/Stim/FN_011_g.png"",""time"":348.5},{""stimulus"":""blank"",""time"":657.8000000044703},{""stimulus"":""https://ziweizhang0304.github.io/Stats_learning_trig/img/Stim/FN_016_g.png"",""time"":681.2000000029802},{""stimulus"":""blank"",""time"":984.6000000014901},{""stimulus"":""https://ziweizhang0304.github.io/Stats_learning_trig/img/Stim/FN_018_g.png"",""time"":1022},{""stimulus"":""blank"",""time"":1328.1000000014901},{""stimulus"":""https://ziweizhang0304.github.io/Stats_learning_trig/img/Stim/FN_021_g.png"",""time"":1361.5},{""stimulus"":""blank"",""time"":1672.1000000014901},{""stimulus"":""https://ziweizhang0304.github.io/Stats_learning_trig/img/Stim/FN_002_g.png"",""time"":1701.7000000029802},{""stimulus"":""blank"",""time"":2013.3000000044703},{""stimulus"":""https://ziweizhang0304.github.io/Stats_learning_trig/img/Stim/FN_023_g.png"",""time"":2044.3000000044703},{""stimulus"":""blank"",""time"":2354.5},{""stimulus"":""https://ziweizhang0304.github.io/Stats_learning_trig/img/Stim/FN_025_g.png"",""time"":2381.60000000149},{""stimulus"":""blank"",""time"":2696.7000000029802},{""stimulus"":""https://ziweizhang0304.github.io/Stats_learning_trig/img/Stim/FN_004_g.png"",""time"":2720.8000000044703},{""stimulus"":""blank"",""time"":3024.10000000149},{""stimulus"":""https://ziweizhang0304.github.io/Stats_learning_trig/img/Stim/FN_010_g.png"",""time"":3061.8000000044703},{""stimulus"":""blank"",""time"":3365.39999999851},{""stimulus"":""https://ziweizhang0304.github.io/Stats_learning_trig/img/Stim/FN_026_g.png"",""time"":3403.5},{""stimulus"":""blank"",""time"":3706.2000000029802},{""stimulus"":""https://ziweizhang0304.github.io/Stats_learning_trig/img/Stim/FN_019_g.png"",""time"":3744.5},{""stimulus"":""blank"",""time"":4050.10000000149},{""stimulus"":""https://ziweizhang0304.github.io/Stats_learning_trig/img/Stim/FN_007_g.png"",""time"":4081.10000000149},{""stimulus"":""blank"",""time"":4389.70000000298}]","[{""key_press"":32,""rt"":2054.10000000149,""stimulus"":""https://ziweizhang0304.github.io/Stats_learning_trig/img/Stim/FN_023_g.png""},{""key_press"":32,""rt"":4126.60000000149,""stimulus"":""https://ziweizhang0304.github.io/Stats_learning_trig/img/Stim/FN_007_g.png""}]","352.3999999985099","https://ziweizhang0304.github.io/Stats_learning_trig/img/Stim/FN_002_g.png","post_TD","1","1701.7000000029802","2054.10000000149","slow","5","1","61363ce02e6022a741d63a6e","","","","","",""
"","image-keyboard-response","15","88109","0.0-5.0-1.0-0.0","2179.2000000029802","","","https://ziweizhang0304.github.io/Stats_learning_trig/img/Stim/FN_014_g.png","13","","","","","","","","","","","","","","","","","",""
"","animation","16","92532","0.0-5.0-1.0-1.0","","","","","","[{""stimulus"":""https://ziweizhang0304.github.io/Stats_learning_trig/img/Stim/FN_011_g.png"",""time"":347},{""stimulus"":""blank"",""time"":654.8999999985099},{""stimulus"":""https://ziweizhang0304.github.io/Stats_learning_trig/img/Stim/FN_016_g.png"",""time"":680.7999999970198},{""stimulus"":""blank"",""time"":982.6000000014901},{""stimulus"":""https://ziweizhang0304.github.io/Stats_learning_trig/img/Stim/FN_004_g.png"",""time"":1021.3999999985099},{""stimulus"":""blank"",""time"":1325.8999999985099},{""stimulus"":""https://ziweizhang0304.github.io/Stats_learning_trig/img/Stim/FN_014_g.png"",""time"":1361},{""stimulus"":""blank"",""time"":1666},{""stimulus"":""https://ziweizhang0304.github.io/Stats_learning_trig/img/Stim/FN_017_g.png"",""time"":1701.7999999970198},{""stimulus"":""blank"",""time"":2009.1000000014901},{""stimulus"":""https://ziweizhang0304.github.io/Stats_learning_trig/img/Stim/FN_005_g.png"",""time"":2041.1000000014901},{""stimulus"":""blank"",""time"":2350.10000000149},{""stimulus"":""https://ziweizhang0304.github.io/Stats_learning_trig/img/Stim/FN_021_g.png"",""time"":2381.1999999955297},{""stimulus"":""blank"",""time"":2689.5},{""stimulus"":""https://ziweizhang0304.github.io/Stats_learning_trig/img/Stim/FN_010_g.png"",""time"":2721.2999999970198},{""stimulus"":""blank"",""time"":3031.7999999970198},{""stimulus"":""https://ziweizhang0304.github.io/Stats_learning_trig/img/Stim/FN_026_g.png"",""time"":3063.89999999851},{""stimulus"":""blank"",""time"":3371.60000000149},{""stimulus"":""https://ziweizhang0304.github.io/Stats_learning_trig/img/Stim/FN_019_g.png"",""time"":3401.6999999955297},{""stimulus"":""blank"",""time"":3714.6999999955297},{""stimulus"":""https://ziweizhang0304.github.io/Stats_learning_trig/img/Stim/FN_007_g.png"",""time"":3741.60000000149},{""stimulus"":""blank"",""time"":4056.2999999970198},{""stimulus"":""https://ziweizhang0304.github.io/Stats_learning_trig/img/Stim/FN_018_g.png"",""time"":4081.60000000149},{""stimulus"":""blank"",""time"":4385}]","[{""key_press"":32,""rt"":1757.8000000044703,""stimulus"":""https://ziweizhang0304.github.io/Stats_learning_trig/img/Stim/FN_017_g.png""}]","396.80000000447035","https://ziweizhang0304.github.io/Stats_learning_trig/img/Stim/FN_014_g.png","post_TD","2","1361","1757.8000000044703","fast","4","1","61363ce02e6022a741d63a6e","","","","","",""
"","image-keyboard-response","17","93786","0.0-5.0-2.0-0.0","1251.8999999985099","","","https://ziweizhang0304.github.io/Stats_learning_trig/img/Stim/FN_002_g.png","13","","","","","","","","","","","","","","","","","",""
"","animation","18","98209","0.0-5.0-2.0-1.0","","","","","","[{""stimulus"":""https://ziweizhang0304.github.io/Stats_learning_trig/img/Stim/FN_007_g.png"",""time"":356.1000000014901},{""stimulus"":""blank"",""time"":669.7000000029802},{""stimulus"":""https://ziweizhang0304.github.io/Stats_learning_trig/img/Stim/FN_011_g.png"",""time"":681.3000000044703},{""stimulus"":""blank"",""time"":997.2000000029802},{""stimulus"":""https://ziweizhang0304.github.io/Stats_learning_trig/img/Stim/FN_010_g.png"",""time"":1021.2000000029802},{""stimulus"":""blank"",""time"":1324.1000000014901},{""stimulus"":""https://ziweizhang0304.github.io/Stats_learning_trig/img/Stim/FN_018_g.png"",""time"":1362.6000000014901},{""stimulus"":""blank"",""time"":1665.3000000044703},{""stimulus"":""https://ziweizhang0304.github.io/Stats_learning_trig/img/Stim/FN_021_g.png"",""time"":1703.6000000014901},{""stimulus"":""blank"",""time"":2005.3000000044703},{""stimulus"":""https://ziweizhang0304.github.io/Stats_learning_trig/img/Stim/FN_019_g.png"",""time"":2043.5},{""stimulus"":""blank"",""time"":2343.8000000044703},{""stimulus"":""https://ziweizhang0304.github.io/Stats_learning_trig/img/Stim/FN_002_g.png"",""time"":2384.7000000029802},{""stimulus"":""blank"",""time"":2687.39999999851},{""stimulus"":""https://ziweizhang0304.github.io/Stats_learning_trig/img/Stim/FN_023_g.png"",""time"":2721.3000000044703},{""stimulus"":""blank"",""time"":3028.39999999851},{""stimulus"":""https://ziweizhang0304.github.io/Stats_learning_trig/img/Stim/FN_025_g.png"",""time"":3066.8000000044703},{""stimulus"":""blank"",""time"":3370},{""stimulus"":""https://ziweizhang0304.github.io/Stats_learning_trig/img/Stim/FN_004_g.png"",""time"":3401.3000000044703},{""stimulus"":""blank"",""time"":3708.7000000029802},{""stimulus"":""https://ziweizhang0304.github.io/Stats_learning_trig/img/Stim/FN_016_g.png"",""time"":3746.8000000044703},{""stimulus"":""blank"",""time"":4062.10000000149},{""stimulus"":""https://ziweizhang0304.github.io/Stats_learning_trig/img/Stim/FN_026_g.png"",""time"":4093.10000000149},{""stimulus"":""blank"",""time"":4405}]","[{""key_press"":32,""rt"":2328.7000000029802,""stimulus"":""https://ziweizhang0304.github.io/Stats_learning_trig/img/Stim/FN_019_g.png""}]","NaN","https://ziweizhang0304.github.io/Stats_learning_trig/img/Stim/FN_002_g.png","post_TD","3","2384.7000000029802","","slow","7","1","61363ce02e6022a741d63a6e","","","","","",""
"","image-keyboard-response","19","99887","0.0-5.0-3.0-0.0","1675.5","","","https://ziweizhang0304.github.io/Stats_learning_trig/img/Stim/FN_023_g.png","13","","","","","","","","","","","","","","","","","",""
"","animation","20","104309","0.0-5.0-3.0-1.0","","","","","","[{""stimulus"":""https://ziweizhang0304.github.io/Stats_learning_trig/img/Stim/FN_011_g.png"",""time"":348},{""stimulus"":""blank"",""time"":655.2000000029802},{""stimulus"":""https://ziweizhang0304.github.io/Stats_learning_trig/img/Stim/FN_016_g.png"",""time"":686},{""stimulus"":""blank"",""time"":997.8999999985099},{""stimulus"":""https://ziweizhang0304.github.io/Stats_learning_trig/img/Stim/FN_018_g.png"",""time"":1021.2000000029802},{""stimulus"":""blank"",""time"":1324.2999999970198},{""stimulus"":""https://ziweizhang0304.github.io/Stats_learning_trig/img/Stim/FN_021_g.png"",""time"":1362.2000000029802},{""stimulus"":""blank"",""time"":1665.7999999970198},{""stimulus"":""https://ziweizhang0304.github.io/Stats_learning_trig/img/Stim/FN_002_g.png"",""time"":1704.2000000029802},{""stimulus"":""blank"",""time"":2006.1000000014901},{""stimulus"":""https://ziweizhang0304.github.io/Stats_learning_trig/img/Stim/FN_023_g.png"",""time"":2041.8999999985099},{""stimulus"":""blank"",""time"":2350},{""stimulus"":""https://ziweizhang0304.github.io/Stats_learning_trig/img/Stim/FN_025_g.png"",""time"":2381.7999999970198},{""stimulus"":""blank"",""time"":2689.5},{""stimulus"":""https://ziweizhang0304.github.io/Stats_learning_trig/img/Stim/FN_004_g.png"",""time"":2721.7000000029802},{""stimulus"":""blank"",""time"":3032.60000000149},{""stimulus"":""https://ziweizhang0304.github.io/Stats_learning_trig/img/Stim/FN_010_g.png"",""time"":3064.2999999970198},{""stimulus"":""blank"",""time"":3375.7000000029802},{""stimulus"":""https://ziweizhang0304.github.io/Stats_learning_trig/img/Stim/FN_026_g.png"",""time"":3402.2000000029802},{""stimulus"":""blank"",""time"":3704.2999999970198},{""stimulus"":""https://ziweizhang0304.github.io/Stats_learning_trig/img/Stim/FN_019_g.png"",""time"":3741},{""stimulus"":""blank"",""time"":4047.2000000029802},{""stimulus"":""https://ziweizhang0304.github.io/Stats_learning_trig/img/Stim/FN_007_g.png"",""time"":4085.7000000029802},{""stimulus"":""blank"",""time"":4391.29999999702}]","[{""key_press"":32,""rt"":2421.4000000059605,""stimulus"":""https://ziweizhang0304.github.io/Stats_learning_trig/img/Stim/FN_025_g.png""}]","379.5000000074506","https://ziweizhang0304.github.io/Stats_learning_trig/img/Stim/FN_023_g.png","post_TD","4","2041.8999999985099","2421.4000000059605","slow","6","2","61363ce02e6022a741d63a6e","","","","","",""
"","image-keyboard-response","21","105308","0.0-5.0-4.0-0.0","996.1999999955297","","","https://ziweizhang0304.github.io/Stats_learning_trig/img/Stim/FN_025_g.png","13","","","","","","","","","","","","","","","","","",""
"","animation","22","109729","0.0-5.0-4.0-1.0","","","","","","[{""stimulus"":""https://ziweizhang0304.github.io/Stats_learning_trig/img/Stim/FN_011_g.png"",""time"":343.30000000447035},{""stimulus"":""blank"",""time"":652.3000000044703},{""stimulus"":""https://ziweizhang0304.github.io/Stats_learning_trig/img/Stim/FN_016_g.png"",""time"":681.6000000014901},{""stimulus"":""blank"",""time"":991.5},{""stimulus"":""https://ziweizhang0304.github.io/Stats_learning_trig/img/Stim/FN_018_g.png"",""time"":1023.2000000029802},{""stimulus"":""blank"",""time"":1331},{""stimulus"":""https://ziweizhang0304.github.io/Stats_learning_trig/img/Stim/FN_021_g.png"",""time"":1360.8000000044703},{""stimulus"":""blank"",""time"":1675.3999999985099},{""stimulus"":""https://ziweizhang0304.github.io/Stats_learning_trig/img/Stim/FN_002_g.png"",""time"":1701.1000000014901},{""stimulus"":""blank"",""time"":2003.3999999985099},{""stimulus"":""https://ziweizhang0304.github.io/Stats_learning_trig/img/Stim/FN_023_g.png"",""time"":2041.6000000014901},{""stimulus"":""blank"",""time"":2347.3000000044703},{""stimulus"":""https://ziweizhang0304.github.io/Stats_learning_trig/img/Stim/FN_025_g.png"",""time"":2385.8000000044703},{""stimulus"":""blank"",""time"":2686.5},{""stimulus"":""https://ziweizhang0304.github.io/Stats_learning_trig/img/Stim/FN_004_g.png"",""time"":2721.2000000029802},{""stimulus"":""blank"",""time"":3032.7000000029802},{""stimulus"":""https://ziweizhang0304.github.io/Stats_learning_trig/img/Stim/FN_010_g.png"",""time"":3061.5},{""stimulus"":""blank"",""time"":3372.2000000029802},{""stimulus"":""https://ziweizhang0304.github.io/Stats_learning_trig/img/Stim/FN_026_g.png"",""time"":3401.60000000149},{""stimulus"":""blank"",""time"":3715.7000000029802},{""stimulus"":""https://ziweizhang0304.github.io/Stats_learning_trig/img/Stim/FN_019_g.png"",""time"":3741.8000000044703},{""stimulus"":""blank"",""time"":4043.89999999851},{""stimulus"":""https://ziweizhang0304.github.io/Stats_learning_trig/img/Stim/FN_007_g.png"",""time"":4081.89999999851},{""stimulus"":""blank"",""time"":4384.39999999851}]","[{""key_press"":32,""rt"":2684.6999999955297,""stimulus"":""https://ziweizhang0304.github.io/Stats_learning_trig/img/Stim/FN_025_g.png""}]","298.8999999910593","https://ziweizhang0304.github.io/Stats_learning_trig/img/Stim/FN_025_g.png","post_TD","5","2385.8000000044703","2684.6999999955297","slow","7","3","61363ce02e6022a741d63a6e","","","","","",""
"","image-keyboard-response","23","110603","0.0-5.0-5.0-0.0","871.4000000059605","","","https://ziweizhang0304.github.io/Stats_learning_trig/img/Stim/FN_002_g.png","13","","","","","","","","","","","","","","","","","",""
"","animation","24","115024","0.0-5.0-5.0-1.0","","","","","","[{""stimulus"":""https://ziweizhang0304.github.io/Stats_learning_trig/img/Stim/FN_018_g.png"",""time"":352.5},{""stimulus"":""blank"",""time"":663.6000000014901},{""stimulus"":""https://ziweizhang0304.github.io/Stats_learning_trig/img/Stim/FN_021_g.png"",""time"":681.6000000014901},{""stimulus"":""blank"",""time"":988.2000000029802},{""stimulus"":""https://ziweizhang0304.github.io/Stats_learning_trig/img/Stim/FN_010_g.png"",""time"":1020.8999999985099},{""stimulus"":""blank"",""time"":1329.2999999970198},{""stimulus"":""https://ziweizhang0304.github.io/Stats_learning_trig/img/Stim/FN_004_g.png"",""time"":1361.6000000014901},{""stimulus"":""blank"",""time"":1669.2000000029802},{""stimulus"":""https://ziweizhang0304.github.io/Stats_learning_trig/img/Stim/FN_011_g.png"",""time"":1708},{""stimulus"":""blank"",""time"":2010.1000000014901},{""stimulus"":""https://ziweizhang0304.github.io/Stats_learning_trig/img/Stim/FN_002_g.png"",""time"":2048.2000000029802},{""stimulus"":""blank"",""time"":2353.5},{""stimulus"":""https://ziweizhang0304.github.io/Stats_learning_trig/img/Stim/FN_023_g.png"",""time"":2382.5},{""stimulus"":""blank"",""time"":2695.7000000029802},{""stimulus"":""https://ziweizhang0304.github.io/Stats_learning_trig/img/Stim/FN_025_g.png"",""time"":2727.2000000029802},{""stimulus"":""blank"",""time"":3037.7999999970198},{""stimulus"":""https://ziweizhang0304.github.io/Stats_learning_trig/img/Stim/FN_016_g.png"",""time"":3062.10000000149},{""stimulus"":""blank"",""time"":3367.2000000029802},{""stimulus"":""https://ziweizhang0304.github.io/Stats_learning_trig/img/Stim/FN_026_g.png"",""time"":3406},{""stimulus"":""blank"",""time"":3707.5},{""stimulus"":""https://ziweizhang0304.github.io/Stats_learning_trig/img/Stim/FN_019_g.png"",""time"":3746.39999999851},{""stimulus"":""blank"",""time"":4061.89999999851},{""stimulus"":""https://ziweizhang0304.github.io/Stats_learning_trig/img/Stim/FN_007_g.png"",""time"":4081.2000000029802},{""stimulus"":""blank"",""time"":4388.20000000298}]","[{""key_press"":32,""rt"":2357.39999999851,""stimulus"":""blank""}]","309.19999999552965","https://ziweizhang0304.github.io/Stats_learning_trig/img/Stim/FN_002_g.png","post_TD","6","2048.2000000029802","2357.39999999851","slow","6","1","61363ce02e6022a741d63a6e","","","","","",""
"","image-keyboard-response","25","115729","0.0-5.0-6.0-0.0","702.6000000014901","","","https://ziweizhang0304.github.io/Stats_learning_trig/img/Stim/FN_014_g.png","13","","","","","","","","","","","","","","","","","",""
"","animation","26","120153","0.0-5.0-6.0-1.0","","","","","","[{""stimulus"":""https://ziweizhang0304.github.io/Stats_learning_trig/img/Stim/FN_019_g.png"",""time"":345.79999999701977},{""stimulus"":""blank"",""time"":655.1000000014901},{""stimulus"":""https://ziweizhang0304.github.io/Stats_learning_trig/img/Stim/FN_016_g.png"",""time"":681},{""stimulus"":""blank"",""time"":983.2999999970198},{""stimulus"":""https://ziweizhang0304.github.io/Stats_learning_trig/img/Stim/FN_021_g.png"",""time"":1022.1999999955297},{""stimulus"":""blank"",""time"":1325.6999999955297},{""stimulus"":""https://ziweizhang0304.github.io/Stats_learning_trig/img/Stim/FN_007_g.png"",""time"":1363.3999999985099},{""stimulus"":""blank"",""time"":1669.1999999955297},{""stimulus"":""https://ziweizhang0304.github.io/Stats_learning_trig/img/Stim/FN_010_g.png"",""time"":1708},{""stimulus"":""blank"",""time"":2013.5},{""stimulus"":""https://ziweizhang0304.github.io/Stats_learning_trig/img/Stim/FN_014_g.png"",""time"":2041.7999999970198},{""stimulus"":""blank"",""time"":2353.60000000149},{""stimulus"":""https://ziweizhang0304.github.io/Stats_learning_trig/img/Stim/FN_017_g.png"",""time"":2380.7999999970198},{""stimulus"":""blank"",""time"":2695.89999999851},{""stimulus"":""https://ziweizhang0304.github.io/Stats_learning_trig/img/Stim/FN_005_g.png"",""time"":2721.39999999851},{""stimulus"":""blank"",""time"":3036.60000000149},{""stimulus"":""https://ziweizhang0304.github.io/Stats_learning_trig/img/Stim/FN_004_g.png"",""time"":3061.39999999851},{""stimulus"":""blank"",""time"":3363.5},{""stimulus"":""https://ziweizhang0304.github.io/Stats_learning_trig/img/Stim/FN_011_g.png"",""time"":3401.7999999970198},{""stimulus"":""blank"",""time"":3703.39999999851},{""stimulus"":""https://ziweizhang0304.github.io/Stats_learning_trig/img/Stim/FN_026_g.png"",""time"":3741.60000000149},{""stimulus"":""blank"",""time"":4045.7999999970198},{""stimulus"":""https://ziweizhang0304.github.io/Stats_learning_trig/img/Stim/FN_018_g.png"",""time"":4081.89999999851},{""stimulus"":""blank"",""time"":4385}]","[{""key_press"":32,""rt"":2407.3000000044703,""stimulus"":""https://ziweizhang0304.github.io/Stats_learning_trig/img/Stim/FN_017_g.png""}]","365.5000000074506","https://ziweizhang0304.github.io/Stats_learning_trig/img/Stim/FN_014_g.png","post_TD","7","2041.7999999970198","2407.3000000044703","fast","6","1","61363ce02e6022a741d63a6e","","","","","",""
"","image-keyboard-response","27","120947","0.0-5.0-7.0-0.0","791.6000000014901","","","https://ziweizhang0304.github.io/Stats_learning_trig/img/Stim/FN_017_g.png","13","","","","","","","","","","","","","","","","","",""
"","animation","28","125368","0.0-5.0-7.0-1.0","","","","","","[{""stimulus"":""https://ziweizhang0304.github.io/Stats_learning_trig/img/Stim/FN_019_g.png"",""time"":343.8999999985099},{""stimulus"":""blank"",""time"":653.8999999985099},{""stimulus"":""https://ziweizhang0304.github.io/Stats_learning_trig/img/Stim/FN_016_g.png"",""time"":685.1000000014901},{""stimulus"":""blank"",""time"":995.8999999985099},{""stimulus"":""https://ziweizhang0304.github.io/Stats_learning_trig/img/Stim/FN_021_g.png"",""time"":1022.1000000014901},{""stimulus"":""blank"",""time"":1324.6999999955297},{""stimulus"":""https://ziweizhang0304.github.io/Stats_learning_trig/img/Stim/FN_007_g.png"",""time"":1361},{""stimulus"":""blank"",""time"":1667.1999999955297},{""stimulus"":""https://ziweizhang0304.github.io/Stats_learning_trig/img/Stim/FN_010_g.png"",""time"":1705.6000000014901},{""stimulus"":""blank"",""time"":2014.3999999985099},{""stimulus"":""https://ziweizhang0304.github.io/Stats_learning_trig/img/Stim/FN_014_g.png"",""time"":2041.6000000014901},{""stimulus"":""blank"",""time"":2355.6999999955297},{""stimulus"":""https://ziweizhang0304.github.io/Stats_learning_trig/img/Stim/FN_017_g.png"",""time"":2386.89999999851},{""stimulus"":""blank"",""time"":2695.89999999851},{""stimulus"":""https://ziweizhang0304.github.io/Stats_learning_trig/img/Stim/FN_005_g.png"",""time"":2721.2999999970198},{""stimulus"":""blank"",""time"":3023.5},{""stimulus"":""https://ziweizhang0304.github.io/Stats_learning_trig/img/Stim/FN_004_g.png"",""time"":3061.60000000149},{""stimulus"":""blank"",""time"":3366.60000000149},{""stimulus"":""https://ziweizhang0304.github.io/Stats_learning_trig/img/Stim/FN_011_g.png"",""time"":3405.5},{""stimulus"":""blank"",""time"":3706.60000000149},{""stimulus"":""https://ziweizhang0304.github.io/Stats_learning_trig/img/Stim/FN_026_g.png"",""time"":3745.10000000149},{""stimulus"":""blank"",""time"":4047.1999999955297},{""stimulus"":""https://ziweizhang0304.github.io/Stats_learning_trig/img/Stim/FN_018_g.png"",""time"":4080.60000000149},{""stimulus"":""blank"",""time"":4388.60000000149}]","[{""key_press"":32,""rt"":2696.1999999955297,""stimulus"":""blank""}]","309.29999999701977","https://ziweizhang0304.github.io/Stats_learning_trig/img/Stim/FN_017_g.png","post_TD","8","2386.89999999851","2696.1999999955297","fast","7","2","61363ce02e6022a741d63a6e","","","","","",""
"","image-keyboard-response","29","126030","0.0-5.0-8.0-0.0","659.6999999955297","","","https://ziweizhang0304.github.io/Stats_learning_trig/img/Stim/FN_023_g.png","13","","","","","","","","","","","","","","","","","",""
"","animation","30","130457","0.0-5.0-8.0-1.0","","","","","","[{""stimulus"":""https://ziweizhang0304.github.io/Stats_learning_trig/img/Stim/FN_004_g.png"",""time"":357},{""stimulus"":""blank"",""time"":665.6000000014901},{""stimulus"":""https://ziweizhang0304.github.io/Stats_learning_trig/img/Stim/FN_021_g.png"",""time"":681.7000000029802},{""stimulus"":""blank"",""time"":990.6000000014901},{""stimulus"":""https://ziweizhang0304.github.io/Stats_learning_trig/img/Stim/FN_018_g.png"",""time"":1021},{""stimulus"":""blank"",""time"":1333.8999999985099},{""stimulus"":""https://ziweizhang0304.github.io/Stats_learning_trig/img/Stim/FN_002_g.png"",""time"":1365},{""stimulus"":""blank"",""time"":1674},{""stimulus"":""https://ziweizhang0304.github.io/Stats_learning_trig/img/Stim/FN_023_g.png"",""time"":1706.3000000044703},{""stimulus"":""blank"",""time"":2015.8000000044703},{""stimulus"":""https://ziweizhang0304.github.io/Stats_learning_trig/img/Stim/FN_025_g.png"",""time"":2042.2000000029802},{""stimulus"":""blank"",""time"":2353.8000000044703},{""stimulus"":""https://ziweizhang0304.github.io/Stats_learning_trig/img/Stim/FN_016_g.png"",""time"":2383.89999999851},{""stimulus"":""blank"",""time"":2694.3000000044703},{""stimulus"":""https://ziweizhang0304.github.io/Stats_learning_trig/img/Stim/FN_010_g.png"",""time"":2726.10000000149},{""stimulus"":""blank"",""time"":3037},{""stimulus"":""https://ziweizhang0304.github.io/Stats_learning_trig/img/Stim/FN_011_g.png"",""time"":3069.10000000149},{""stimulus"":""blank"",""time"":3378.60000000149},{""stimulus"":""https://ziweizhang0304.github.io/Stats_learning_trig/img/Stim/FN_026_g.png"",""time"":3401.5},{""stimulus"":""blank"",""time"":3705.89999999851},{""stimulus"":""https://ziweizhang0304.github.io/Stats_learning_trig/img/Stim/FN_019_g.png"",""time"":3741.8000000044703},{""stimulus"":""blank"",""time"":4048.8000000044703},{""stimulus"":""https://ziweizhang0304.github.io/Stats_learning_trig/img/Stim/FN_007_g.png"",""time"":4081.89999999851},{""stimulus"":""blank"",""time"":4387.80000000447}]","[{""key_press"":32,""rt"":2016.7999999970198,""stimulus"":""blank""}]","310.4999999925494","https://ziweizhang0304.github.io/Stats_learning_trig/img/Stim/FN_023_g.png","post_TD","9","1706.3000000044703","2016.7999999970198","slow","5","2","61363ce02e6022a741d63a6e","","","","","",""
"","image-keyboard-response","31","131200","0.0-5.0-9.0-0.0","740","","","https://ziweizhang0304.github.io/Stats_learning_trig/img/Stim/FN_014_g.png","13","","","","","","","","","","","","","","","","","",""
"","animation","32","135621","0.0-5.0-9.0-1.0","","","","","","[{""stimulus"":""https://ziweizhang0304.github.io/Stats_learning_trig/img/Stim/FN_021_g.png"",""time"":354.1000000014901},{""stimulus"":""blank"",""time"":661.3000000044703},{""stimulus"":""https://ziweizhang0304.github.io/Stats_learning_trig/img/Stim/FN_019_g.png"",""time"":682.3000000044703},{""stimulus"":""blank"",""time"":988.7000000029802},{""stimulus"":""https://ziweizhang0304.github.io/Stats_learning_trig/img/Stim/FN_007_g.png"",""time"":1021.5},{""stimulus"":""blank"",""time"":1328.8000000044703},{""stimulus"":""https://ziweizhang0304.github.io/Stats_learning_trig/img/Stim/FN_018_g.png"",""time"":1361.1000000014901},{""stimulus"":""blank"",""time"":1669.8999999985099},{""stimulus"":""https://ziweizhang0304.github.io/Stats_learning_trig/img/Stim/FN_026_g.png"",""time"":1702.3000000044703},{""stimulus"":""blank"",""time"":2013},{""stimulus"":""https://ziweizhang0304.github.io/Stats_learning_trig/img/Stim/FN_010_g.png"",""time"":2040.7000000029802},{""stimulus"":""blank"",""time"":2355.60000000149},{""stimulus"":""https://ziweizhang0304.github.io/Stats_learning_trig/img/Stim/FN_014_g.png"",""time"":2388.2000000029802},{""stimulus"":""blank"",""time"":2699.2000000029802},{""stimulus"":""https://ziweizhang0304.github.io/Stats_learning_trig/img/Stim/FN_017_g.png"",""time"":2721.3000000044703},{""stimulus"":""blank"",""time"":3027.2000000029802},{""stimulus"":""https://ziweizhang0304.github.io/Stats_learning_trig/img/Stim/FN_005_g.png"",""time"":3062.10000000149},{""stimulus"":""blank"",""time"":3366},{""stimulus"":""https://ziweizhang0304.github.io/Stats_learning_trig/img/Stim/FN_004_g.png"",""time"":3404.5},{""stimulus"":""blank"",""time"":3706.2000000029802},{""stimulus"":""https://ziweizhang0304.github.io/Stats_learning_trig/img/Stim/FN_016_g.png"",""time"":3745.10000000149},{""stimulus"":""blank"",""time"":4060.2000000029802},{""stimulus"":""https://ziweizhang0304.github.io/Stats_learning_trig/img/Stim/FN_011_g.png"",""time"":4081.8000000044703},{""stimulus"":""blank"",""time"":4388.60000000149}]","[{""key_press"":32,""rt"":2738.2000000029802,""stimulus"":""https://ziweizhang0304.github.io/Stats_learning_trig/img/Stim/FN_017_g.png""}]","350","https://ziweizhang0304.github.io/Stats_learning_trig/img/Stim/FN_014_g.png","post_TD","10","2388.2000000029802","2738.2000000029802","fast","7","1","61363ce02e6022a741d63a6e","","","","","",""
"","image-keyboard-response","33","136372","0.0-5.0-10.0-0.0","748","","","https://ziweizhang0304.github.io/Stats_learning_trig/img/Stim/FN_017_g.png","13","","","","","","","","","","","","","","","","","",""
"","animation","34","140796","0.0-5.0-10.0-1.0","","","","","","[{""stimulus"":""https://ziweizhang0304.github.io/Stats_learning_trig/img/Stim/FN_011_g.png"",""time"":352.70000000298023},{""stimulus"":""blank"",""time"":661.6000000014901},{""stimulus"":""https://ziweizhang0304.github.io/Stats_learning_trig/img/Stim/FN_016_g.png"",""time"":680.8999999985099},{""stimulus"":""blank"",""time"":987},{""stimulus"":""https://ziweizhang0304.github.io/Stats_learning_trig/img/Stim/FN_004_g.png"",""time"":1025.3999999985099},{""stimulus"":""blank"",""time"":1330},{""stimulus"":""https://ziweizhang0304.github.io/Stats_learning_trig/img/Stim/FN_014_g.png"",""time"":1368.5},{""stimulus"":""blank"",""time"":1669.7000000029802},{""stimulus"":""https://ziweizhang0304.github.io/Stats_learning_trig/img/Stim/FN_017_g.png"",""time"":1701.2000000029802},{""stimulus"":""blank"",""time"":2009.1000000014901},{""stimulus"":""https://ziweizhang0304.github.io/Stats_learning_trig/img/Stim/FN_005_g.png"",""time"":2040.8000000044703},{""stimulus"":""blank"",""time"":2349.8000000044703},{""stimulus"":""https://ziweizhang0304.github.io/Stats_learning_trig/img/Stim/FN_021_g.png"",""time"":2381.10000000149},{""stimulus"":""blank"",""time"":2692.8000000044703},{""stimulus"":""https://ziweizhang0304.github.io/Stats_learning_trig/img/Stim/FN_010_g.png"",""time"":2721.2000000029802},{""stimulus"":""blank"",""time"":3035.7000000029802},{""stimulus"":""https://ziweizhang0304.github.io/Stats_learning_trig/img/Stim/FN_026_g.png"",""time"":3067.10000000149},{""stimulus"":""blank"",""time"":3381.7000000029802},{""stimulus"":""https://ziweizhang0304.github.io/Stats_learning_trig/img/Stim/FN_019_g.png"",""time"":3401.89999999851},{""stimulus"":""blank"",""time"":3707.60000000149},{""stimulus"":""https://ziweizhang0304.github.io/Stats_learning_trig/img/Stim/FN_007_g.png"",""time"":3741.7000000029802},{""stimulus"":""blank"",""time"":4050.10000000149},{""stimulus"":""https://ziweizhang0304.github.io/Stats_learning_trig/img/Stim/FN_018_g.png"",""time"":4081.3000000044703},{""stimulus"":""blank"",""time"":4393}]","[{""key_press"":32,""rt"":2138.60000000149,""stimulus"":""https://ziweizhang0304.github.io/Stats_learning_trig/img/Stim/FN_005_g.png""}]","437.3999999985099","https://ziweizhang0304.github.io/Stats_learning_trig/img/Stim/FN_017_g.png","post_TD","11","1701.2000000029802","2138.60000000149","fast","5","2","61363ce02e6022a741d63a6e","","","","","",""
"","image-keyboard-response","35","141660","0.0-5.0-11.0-0.0","861.3000000044703","","","https://ziweizhang0304.github.io/Stats_learning_trig/img/Stim/FN_017_g.png","13","","","","","","","","","","","","","","","","","",""
"","animation","36","146085","0.0-5.0-11.0-1.0","","","","","","[{""stimulus"":""https://ziweizhang0304.github.io/Stats_learning_trig/img/Stim/FN_016_g.png"",""time"":351.3999999985099},{""stimulus"":""blank"",""time"":662.5},{""stimulus"":""https://ziweizhang0304.github.io/Stats_learning_trig/img/Stim/FN_026_g.png"",""time"":682.1999999955297},{""stimulus"":""blank"",""time"":988},{""stimulus"":""https://ziweizhang0304.github.io/Stats_learning_trig/img/Stim/FN_004_g.png"",""time"":1026},{""stimulus"":""blank"",""time"":1329.2999999970198},{""stimulus"":""https://ziweizhang0304.github.io/Stats_learning_trig/img/Stim/FN_010_g.png"",""time"":1361.8999999985099},{""stimulus"":""blank"",""time"":1671.1000000014901},{""stimulus"":""https://ziweizhang0304.github.io/Stats_learning_trig/img/Stim/FN_014_g.png"",""time"":1701},{""stimulus"":""blank"",""time"":2011.1000000014901},{""stimulus"":""https://ziweizhang0304.github.io/Stats_learning_trig/img/Stim/FN_017_g.png"",""time"":2040.8999999985099},{""stimulus"":""blank"",""time"":2354.60000000149},{""stimulus"":""https://ziweizhang0304.github.io/Stats_learning_trig/img/Stim/FN_005_g.png"",""time"":2381.60000000149},{""stimulus"":""blank"",""time"":2696.2999999970198},{""stimulus"":""https://ziweizhang0304.github.io/Stats_learning_trig/img/Stim/FN_021_g.png"",""time"":2721.5},{""stimulus"":""blank"",""time"":3023},{""stimulus"":""https://ziweizhang0304.github.io/Stats_learning_trig/img/Stim/FN_011_g.png"",""time"":3061.10000000149},{""stimulus"":""blank"",""time"":3376.39999999851},{""stimulus"":""https://ziweizhang0304.github.io/Stats_learning_trig/img/Stim/FN_019_g.png"",""time"":3408},{""stimulus"":""blank"",""time"":3718.10000000149},{""stimulus"":""https://ziweizhang0304.github.io/Stats_learning_trig/img/Stim/FN_007_g.png"",""time"":3741.89999999851},{""stimulus"":""blank"",""time"":4045.60000000149},{""stimulus"":""https://ziweizhang0304.github.io/Stats_learning_trig/img/Stim/FN_018_g.png"",""time"":4083.39999999851},{""stimulus"":""blank"",""time"":4386.69999999553}]","[{""key_press"":32,""rt"":2380.2999999970198,""stimulus"":""blank""}]","339.3999999985099","https://ziweizhang0304.github.io/Stats_learning_trig/img/Stim/FN_017_g.png","post_TD","12","2040.8999999985099","2380.2999999970198","fast","6","2","61363ce02e6022a741d63a6e","","","","","",""
"","image-keyboard-response","37","146952","0.0-5.0-12.0-0.0","863.7000000029802","","","https://ziweizhang0304.github.io/Stats_learning_trig/img/Stim/FN_025_g.png","13","","","","","","","","","","","","","","","","","",""
"","animation","38","151373","0.0-5.0-12.0-1.0","","","","","","[{""stimulus"":""https://ziweizhang0304.github.io/Stats_learning_trig/img/Stim/FN_018_g.png"",""time"":351.29999999701977},{""stimulus"":""blank"",""time"":663.2999999970198},{""stimulus"":""https://ziweizhang0304.github.io/Stats_learning_trig/img/Stim/FN_021_g.png"",""time"":681.5999999940395},{""stimulus"":""blank"",""time"":989.6999999955297},{""stimulus"":""https://ziweizhang0304.github.io/Stats_learning_trig/img/Stim/FN_010_g.png"",""time"":1028.0999999940395},{""stimulus"":""blank"",""time"":1330.1999999955297},{""stimulus"":""https://ziweizhang0304.github.io/Stats_learning_trig/img/Stim/FN_004_g.png"",""time"":1362.0999999940395},{""stimulus"":""blank"",""time"":1671.6999999955297},{""stimulus"":""https://ziweizhang0304.github.io/Stats_learning_trig/img/Stim/FN_011_g.png"",""time"":1701.3999999985099},{""stimulus"":""blank"",""time"":2011.5999999940395},{""stimulus"":""https://ziweizhang0304.github.io/Stats_learning_trig/img/Stim/FN_002_g.png"",""time"":2043.2999999970198},{""stimulus"":""blank"",""time"":2357},{""stimulus"":""https://ziweizhang0304.github.io/Stats_learning_trig/img/Stim/FN_023_g.png"",""time"":2380.6999999955297},{""stimulus"":""blank"",""time"":2683.0999999940395},{""stimulus"":""https://ziweizhang0304.github.io/Stats_learning_trig/img/Stim/FN_025_g.png"",""time"":2721.6999999955297},{""stimulus"":""blank"",""time"":3024.7999999970198},{""stimulus"":""https://ziweizhang0304.github.io/Stats_learning_trig/img/Stim/FN_016_g.png"",""time"":3060.89999999851},{""stimulus"":""blank"",""time"":3366.89999999851},{""stimulus"":""https://ziweizhang0304.github.io/Stats_learning_trig/img/Stim/FN_026_g.png"",""time"":3401},{""stimulus"":""blank"",""time"":3708.89999999851},{""stimulus"":""https://ziweizhang0304.github.io/Stats_learning_trig/img/Stim/FN_019_g.png"",""time"":3747.2999999970198},{""stimulus"":""blank"",""time"":4053.0999999940395},{""stimulus"":""https://ziweizhang0304.github.io/Stats_learning_trig/img/Stim/FN_007_g.png"",""time"":4085.1999999955297},{""stimulus"":""blank"",""time"":4394.39999999851}]","[{""key_press"":32,""rt"":2270.2000000029802,""stimulus"":""https://ziweizhang0304.github.io/Stats_learning_trig/img/Stim/FN_002_g.png""},{""key_press"":32,""rt"":3115,""stimulus"":""https://ziweizhang0304.github.io/Stats_learning_trig/img/Stim/FN_016_g.png""}]","393.30000000447035","https://ziweizhang0304.github.io/Stats_learning_trig/img/Stim/FN_025_g.png","post_TD","13","2721.6999999955297","3115","slow","8","3","61363ce02e6022a741d63a6e","","","","","",""
"","image-keyboard-response","39","151979","0.0-5.0-13.0-0.0","604.4000000059605","","","https://ziweizhang0304.github.io/Stats_learning_trig/img/Stim/FN_005_g.png","13","","","","","","","","","","","","","","","","","",""
"","animation","40","156407","0.0-5.0-13.0-1.0","","","","","","[{""stimulus"":""https://ziweizhang0304.github.io/Stats_learning_trig/img/Stim/FN_011_g.png"",""time"":346.3999999985099},{""stimulus"":""blank"",""time"":655.7000000029802},{""stimulus"":""https://ziweizhang0304.github.io/Stats_learning_trig/img/Stim/FN_016_g.png"",""time"":681.6000000014901},{""stimulus"":""blank"",""time"":995.7000000029802},{""stimulus"":""https://ziweizhang0304.github.io/Stats_learning_trig/img/Stim/FN_004_g.png"",""time"":1021.7000000029802},{""stimulus"":""blank"",""time"":1336.6000000014901},{""stimulus"":""https://ziweizhang0304.github.io/Stats_learning_trig/img/Stim/FN_014_g.png"",""time"":1367.7999999970198},{""stimulus"":""blank"",""time"":1677.8999999985099},{""stimulus"":""https://ziweizhang0304.github.io/Stats_learning_trig/img/Stim/FN_017_g.png"",""time"":1709.2999999970198},{""stimulus"":""blank"",""time"":2016.6000000014901},{""stimulus"":""https://ziweizhang0304.github.io/Stats_learning_trig/img/Stim/FN_005_g.png"",""time"":2041},{""stimulus"":""blank"",""time"":2342.60000000149},{""stimulus"":""https://ziweizhang0304.github.io/Stats_learning_trig/img/Stim/FN_021_g.png"",""time"":2380.7999999970198},{""stimulus"":""blank"",""time"":2687.7999999970198},{""stimulus"":""https://ziweizhang0304.github.io/Stats_learning_trig/img/Stim/FN_010_g.png"",""time"":2726.39999999851},{""stimulus"":""blank"",""time"":3028.39999999851},{""stimulus"":""https://ziweizhang0304.github.io/Stats_learning_trig/img/Stim/FN_026_g.png"",""time"":3061.60000000149},{""stimulus"":""blank"",""time"":3371},{""stimulus"":""https://ziweizhang0304.github.io/Stats_learning_trig/img/Stim/FN_019_g.png"",""time"":3402.7999999970198},{""stimulus"":""blank"",""time"":3714.89999999851},{""stimulus"":""https://ziweizhang0304.github.io/Stats_learning_trig/img/Stim/FN_007_g.png"",""time"":3741.2000000029802},{""stimulus"":""blank"",""time"":4056.39999999851},{""stimulus"":""https://ziweizhang0304.github.io/Stats_learning_trig/img/Stim/FN_018_g.png"",""time"":4081.10000000149},{""stimulus"":""blank"",""time"":4381.60000000149}]","[{""key_press"":32,""rt"":2364.7999999970198,""stimulus"":""blank""}]","323.79999999701977","https://ziweizhang0304.github.io/Stats_learning_trig/img/Stim/FN_005_g.png","post_TD","14","2041","2364.7999999970198","fast","6","3","61363ce02e6022a741d63a6e","","","","","",""
"","image-keyboard-response","41","157263","0.0-5.0-14.0-0.0","853.5","","","https://ziweizhang0304.github.io/Stats_learning_trig/img/Stim/FN_005_g.png","13","","","","","","","","","","","","","","","","","",""
"","animation","42","161689","0.0-5.0-14.0-1.0","","","","","","[{""stimulus"":""https://ziweizhang0304.github.io/Stats_learning_trig/img/Stim/FN_016_g.png"",""time"":341.79999999701977},{""stimulus"":""blank"",""time"":650.8999999985099},{""stimulus"":""https://ziweizhang0304.github.io/Stats_learning_trig/img/Stim/FN_026_g.png"",""time"":682.2999999970198},{""stimulus"":""blank"",""time"":994},{""stimulus"":""https://ziweizhang0304.github.io/Stats_learning_trig/img/Stim/FN_004_g.png"",""time"":1021.1000000014901},{""stimulus"":""blank"",""time"":1322.1000000014901},{""stimulus"":""https://ziweizhang0304.github.io/Stats_learning_trig/img/Stim/FN_010_g.png"",""time"":1369},{""stimulus"":""blank"",""time"":1679.3999999985099},{""stimulus"":""https://ziweizhang0304.github.io/Stats_learning_trig/img/Stim/FN_014_g.png"",""time"":1701.3999999985099},{""stimulus"":""blank"",""time"":2006.8999999985099},{""stimulus"":""https://ziweizhang0304.github.io/Stats_learning_trig/img/Stim/FN_017_g.png"",""time"":2041.8999999985099},{""stimulus"":""blank"",""time"":2351.10000000149},{""stimulus"":""https://ziweizhang0304.github.io/Stats_learning_trig/img/Stim/FN_005_g.png"",""time"":2381.60000000149},{""stimulus"":""blank"",""time"":2691.2999999970198},{""stimulus"":""https://ziweizhang0304.github.io/Stats_learning_trig/img/Stim/FN_021_g.png"",""time"":2722.7999999970198},{""stimulus"":""blank"",""time"":3033.7000000029802},{""stimulus"":""https://ziweizhang0304.github.io/Stats_learning_trig/img/Stim/FN_011_g.png"",""time"":3061.60000000149},{""stimulus"":""blank"",""time"":3376.10000000149},{""stimulus"":""https://ziweizhang0304.github.io/Stats_learning_trig/img/Stim/FN_019_g.png"",""time"":3401.2999999970198},{""stimulus"":""blank"",""time"":3716.2000000029802},{""stimulus"":""https://ziweizhang0304.github.io/Stats_learning_trig/img/Stim/FN_007_g.png"",""time"":3742},{""stimulus"":""blank"",""time"":4057.7000000029802},{""stimulus"":""https://ziweizhang0304.github.io/Stats_learning_trig/img/Stim/FN_018_g.png"",""time"":4081.7999999970198},{""stimulus"":""blank"",""time"":4386.5}]","[{""key_press"":32,""rt"":2753.6999999955297,""stimulus"":""https://ziweizhang0304.github.io/Stats_learning_trig/img/Stim/FN_021_g.png""}]","372.09999999403954","https://ziweizhang0304.github.io/Stats_learning_trig/img/Stim/FN_005_g.png","post_TD","15","2381.60000000149","2753.6999999955297","fast","7","3","61363ce02e6022a741d63a6e","","","","","",""
"","image-keyboard-response","43","163213","0.0-5.0-15.0-0.0","1521.9000000059605","","","https://ziweizhang0304.github.io/Stats_learning_trig/img/Stim/FN_005_g.png","13","","","","","","","","","","","","","","","","","",""
"","animation","44","167641","0.0-5.0-15.0-1.0","","","","","","[{""stimulus"":""https://ziweizhang0304.github.io/Stats_learning_trig/img/Stim/FN_019_g.png"",""time"":343.3999999985099},{""stimulus"":""blank"",""time"":653.3999999985099},{""stimulus"":""https://ziweizhang0304.github.io/Stats_learning_trig/img/Stim/FN_016_g.png"",""time"":684},{""stimulus"":""blank"",""time"":994.2000000029802},{""stimulus"":""https://ziweizhang0304.github.io/Stats_learning_trig/img/Stim/FN_021_g.png"",""time"":1020.8000000044703},{""stimulus"":""blank"",""time"":1321.2000000029802},{""stimulus"":""https://ziweizhang0304.github.io/Stats_learning_trig/img/Stim/FN_007_g.png"",""time"":1368},{""stimulus"":""blank"",""time"":1674.3000000044703},{""stimulus"":""https://ziweizhang0304.github.io/Stats_learning_trig/img/Stim/FN_010_g.png"",""time"":1705.6000000014901},{""stimulus"":""blank"",""time"":2015.8000000044703},{""stimulus"":""https://ziweizhang0304.github.io/Stats_learning_trig/img/Stim/FN_014_g.png"",""time"":2041.8000000044703},{""stimulus"":""blank"",""time"":2343.60000000149},{""stimulus"":""https://ziweizhang0304.github.io/Stats_learning_trig/img/Stim/FN_017_g.png"",""time"":2384.5},{""stimulus"":""blank"",""time"":2698.8000000044703},{""stimulus"":""https://ziweizhang0304.github.io/Stats_learning_trig/img/Stim/FN_005_g.png"",""time"":2729.8000000044703},{""stimulus"":""blank"",""time"":3040.89999999851},{""stimulus"":""https://ziweizhang0304.github.io/Stats_learning_trig/img/Stim/FN_004_g.png"",""time"":3061.7000000029802},{""stimulus"":""blank"",""time"":3363.39999999851},{""stimulus"":""https://ziweizhang0304.github.io/Stats_learning_trig/img/Stim/FN_011_g.png"",""time"":3400.8000000044703},{""stimulus"":""blank"",""time"":3704.10000000149},{""stimulus"":""https://ziweizhang0304.github.io/Stats_learning_trig/img/Stim/FN_026_g.png"",""time"":3742.7000000029802},{""stimulus"":""blank"",""time"":4047.2000000029802},{""stimulus"":""https://ziweizhang0304.github.io/Stats_learning_trig/img/Stim/FN_018_g.png"",""time"":4085.7000000029802},{""stimulus"":""blank"",""time"":4388.89999999851}]","[{""key_press"":32,""rt"":3059.7999999970198,""stimulus"":""blank""}]","329.9999999925494","https://ziweizhang0304.github.io/Stats_learning_trig/img/Stim/FN_005_g.png","post_TD","16","2729.8000000044703","3059.7999999970198","fast","8","3","61363ce02e6022a741d63a6e","","","","","",""
"","image-keyboard-response","45","168455","0.0-5.0-16.0-0.0","811.1000000014901","","","https://ziweizhang0304.github.io/Stats_learning_trig/img/Stim/FN_002_g.png","13","","","","","","","","","","","","","","","","","",""
"","animation","46","172878","0.0-5.0-16.0-1.0","","","","","","[{""stimulus"":""https://ziweizhang0304.github.io/Stats_learning_trig/img/Stim/FN_004_g.png"",""time"":356.09999999403954},{""stimulus"":""blank"",""time"":663.2999999970198},{""stimulus"":""https://ziweizhang0304.github.io/Stats_learning_trig/img/Stim/FN_021_g.png"",""time"":681.1999999955297},{""stimulus"":""blank"",""time"":991.2999999970198},{""stimulus"":""https://ziweizhang0304.github.io/Stats_learning_trig/img/Stim/FN_018_g.png"",""time"":1021.0999999940395},{""stimulus"":""blank"",""time"":1335.5},{""stimulus"":""https://ziweizhang0304.github.io/Stats_learning_trig/img/Stim/FN_002_g.png"",""time"":1361.6999999955297},{""stimulus"":""blank"",""time"":1675.3999999985099},{""stimulus"":""https://ziweizhang0304.github.io/Stats_learning_trig/img/Stim/FN_023_g.png"",""time"":1701.3999999985099},{""stimulus"":""blank"",""time"":2014.6999999955297},{""stimulus"":""https://ziweizhang0304.github.io/Stats_learning_trig/img/Stim/FN_025_g.png"",""time"":2046},{""stimulus"":""blank"",""time"":2356.2999999970198},{""stimulus"":""https://ziweizhang0304.github.io/Stats_learning_trig/img/Stim/FN_016_g.png"",""time"":2381.7999999970198},{""stimulus"":""blank"",""time"":2683.89999999851},{""stimulus"":""https://ziweizhang0304.github.io/Stats_learning_trig/img/Stim/FN_010_g.png"",""time"":2721},{""stimulus"":""blank"",""time"":3026.5},{""stimulus"":""https://ziweizhang0304.github.io/Stats_learning_trig/img/Stim/FN_011_g.png"",""time"":3061.5},{""stimulus"":""blank"",""time"":3370.5},{""stimulus"":""https://ziweizhang0304.github.io/Stats_learning_trig/img/Stim/FN_026_g.png"",""time"":3401.5},{""stimulus"":""blank"",""time"":3713.7999999970198},{""stimulus"":""https://ziweizhang0304.github.io/Stats_learning_trig/img/Stim/FN_019_g.png"",""time"":3745.2999999970198},{""stimulus"":""blank"",""time"":4056.5999999940395},{""stimulus"":""https://ziweizhang0304.github.io/Stats_learning_trig/img/Stim/FN_007_g.png"",""time"":4081.0999999940395},{""stimulus"":""blank"",""time"":4384.5}]","[{""key_press"":32,""rt"":1764,""stimulus"":""https://ziweizhang0304.github.io/Stats_learning_trig/img/Stim/FN_023_g.png""}]","402.30000000447035","https://ziweizhang0304.github.io/Stats_learning_trig/img/Stim/FN_002_g.png","post_TD","17","1361.6999999955297","1764","slow","4","1","61363ce02e6022a741d63a6e","","","","","",""
"","image-keyboard-response","47","173466","0.0-5.0-17.0-0.0","584.7999999970198","","","https://ziweizhang0304.github.io/Stats_learning_trig/img/Stim/FN_023_g.png","13","","","","","","","","","","","","","","","","","",""
"","animation","48","177892","0.0-5.0-17.0-1.0","","","","","","[{""stimulus"":""https://ziweizhang0304.github.io/Stats_learning_trig/img/Stim/FN_018_g.png"",""time"":352.09999999403954},{""stimulus"":""blank"",""time"":659.3999999985099},{""stimulus"":""https://ziweizhang0304.github.io/Stats_learning_trig/img/Stim/FN_021_g.png"",""time"":681.1999999955297},{""stimulus"":""blank"",""time"":984.5},{""stimulus"":""https://ziweizhang0304.github.io/Stats_learning_trig/img/Stim/FN_010_g.png"",""time"":1023.3999999985099},{""stimulus"":""blank"",""time"":1328},{""stimulus"":""https://ziweizhang0304.github.io/Stats_learning_trig/img/Stim/FN_004_g.png"",""time"":1361.1999999955297},{""stimulus"":""blank"",""time"":1668.8999999985099},{""stimulus"":""https://ziweizhang0304.github.io/Stats_learning_trig/img/Stim/FN_011_g.png"",""time"":1702.1999999955297},{""stimulus"":""blank"",""time"":2008.5999999940395},{""stimulus"":""https://ziweizhang0304.github.io/Stats_learning_trig/img/Stim/FN_002_g.png"",""time"":2041.5},{""stimulus"":""blank"",""time"":2352.0999999940395},{""stimulus"":""https://ziweizhang0304.github.io/Stats_learning_trig/img/Stim/FN_023_g.png"",""time"":2383.39999999851},{""stimulus"":""blank"",""time"":2692.0999999940395},{""stimulus"":""https://ziweizhang0304.github.io/Stats_learning_trig/img/Stim/FN_025_g.png"",""time"":2721.6999999955297},{""stimulus"":""blank"",""time"":3031.2999999970198},{""stimulus"":""https://ziweizhang0304.github.io/Stats_learning_trig/img/Stim/FN_016_g.png"",""time"":3061.0999999940395},{""stimulus"":""blank"",""time"":3373.6999999955297},{""stimulus"":""https://ziweizhang0304.github.io/Stats_learning_trig/img/Stim/FN_026_g.png"",""time"":3406.2999999970198},{""stimulus"":""blank"",""time"":3718},{""stimulus"":""https://ziweizhang0304.github.io/Stats_learning_trig/img/Stim/FN_019_g.png"",""time"":3740.6999999955297},{""stimulus"":""blank"",""time"":4045.1999999955297},{""stimulus"":""https://ziweizhang0304.github.io/Stats_learning_trig/img/Stim/FN_007_g.png"",""time"":4083.5},{""stimulus"":""blank"",""time"":4386.79999999702}]","[{""key_press"":32,""rt"":2823.8000000044703,""stimulus"":""https://ziweizhang0304.github.io/Stats_learning_trig/img/Stim/FN_025_g.png""}]","440.40000000596046","https://ziweizhang0304.github.io/Stats_learning_trig/img/Stim/FN_023_g.png","post_TD","18","2383.39999999851","2823.8000000044703","slow","7","2","61363ce02e6022a741d63a6e","","","","","",""
"","image-keyboard-response","49","178438","0.0-5.0-18.0-0.0","542.8000000044703","","","https://ziweizhang0304.github.io/Stats_learning_trig/img/Stim/FN_025_g.png","13","","","","","","","","","","","","","","","","","",""
"","animation","50","182859","0.0-5.0-18.0-1.0","","","","","","[{""stimulus"":""https://ziweizhang0304.github.io/Stats_learning_trig/img/Stim/FN_004_g.png"",""time"":347.29999999701977},{""stimulus"":""blank"",""time"":657.7999999970198},{""stimulus"":""https://ziweizhang0304.github.io/Stats_learning_trig/img/Stim/FN_021_g.png"",""time"":681.2999999970198},{""stimulus"":""blank"",""time"":984.6999999955297},{""stimulus"":""https://ziweizhang0304.github.io/Stats_learning_trig/img/Stim/FN_018_g.png"",""time"":1021.5999999940395},{""stimulus"":""blank"",""time"":1325.7999999970198},{""stimulus"":""https://ziweizhang0304.github.io/Stats_learning_trig/img/Stim/FN_002_g.png"",""time"":1364.5999999940395},{""stimulus"":""blank"",""time"":1665.5999999940395},{""stimulus"":""https://ziweizhang0304.github.io/Stats_learning_trig/img/Stim/FN_023_g.png"",""time"":1703.8999999985099},{""stimulus"":""blank"",""time"":2007.5},{""stimulus"":""https://ziweizhang0304.github.io/Stats_learning_trig/img/Stim/FN_025_g.png"",""time"":2041.7999999970198},{""stimulus"":""blank"",""time"":2349.6999999955297},{""stimulus"":""https://ziweizhang0304.github.io/Stats_learning_trig/img/Stim/FN_016_g.png"",""time"":2382.0999999940395},{""stimulus"":""blank"",""time"":2690.6999999955297},{""stimulus"":""https://ziweizhang0304.github.io/Stats_learning_trig/img/Stim/FN_010_g.png"",""time"":2722},{""stimulus"":""blank"",""time"":3033.5999999940395},{""stimulus"":""https://ziweizhang0304.github.io/Stats_learning_trig/img/Stim/FN_011_g.png"",""time"":3061.1999999955297},{""stimulus"":""blank"",""time"":3376.89999999851},{""stimulus"":""https://ziweizhang0304.github.io/Stats_learning_trig/img/Stim/FN_026_g.png"",""time"":3400.89999999851},{""stimulus"":""blank"",""time"":3702},{""stimulus"":""https://ziweizhang0304.github.io/Stats_learning_trig/img/Stim/FN_019_g.png"",""time"":3748.1999999955297},{""stimulus"":""blank"",""time"":4061},{""stimulus"":""https://ziweizhang0304.github.io/Stats_learning_trig/img/Stim/FN_007_g.png"",""time"":4081},{""stimulus"":""blank"",""time"":4388}]","[{""key_press"":32,""rt"":2380.8000000044703,""stimulus"":""blank""}]","339.0000000074506","https://ziweizhang0304.github.io/Stats_learning_trig/img/Stim/FN_025_g.png","post_TD","19","2041.7999999970198","2380.8000000044703","slow","6","3","61363ce02e6022a741d63a6e","","","","","",""
"","image-keyboard-response","51","184555","0.0-5.0-19.0-0.0","1692.6999999955297","","","https://ziweizhang0304.github.io/Stats_learning_trig/img/Stim/FN_025_g.png","13","","","","","","","","","","","","","","","","","",""
"","animation","52","188977","0.0-5.0-19.0-1.0","","","","","","[{""stimulus"":""https://ziweizhang0304.github.io/Stats_learning_trig/img/Stim/FN_007_g.png"",""time"":344.8999999985099},{""stimulus"":""blank"",""time"":652.8999999985099},{""stimulus"":""https://ziweizhang0304.github.io/Stats_learning_trig/img/Stim/FN_011_g.png"",""time"":681.6999999955297},{""stimulus"":""blank"",""time"":982.6000000014901},{""stimulus"":""https://ziweizhang0304.github.io/Stats_learning_trig/img/Stim/FN_010_g.png"",""time"":1021.2999999970198},{""stimulus"":""blank"",""time"":1322.8999999985099},{""stimulus"":""https://ziweizhang0304.github.io/Stats_learning_trig/img/Stim/FN_018_g.png"",""time"":1361.1000000014901},{""stimulus"":""blank"",""time"":1666},{""stimulus"":""https://ziweizhang0304.github.io/Stats_learning_trig/img/Stim/FN_021_g.png"",""time"":1700.8999999985099},{""stimulus"":""blank"",""time"":2009.3999999985099},{""stimulus"":""https://ziweizhang0304.github.io/Stats_learning_trig/img/Stim/FN_019_g.png"",""time"":2041.2999999970198},{""stimulus"":""blank"",""time"":2349.89999999851},{""stimulus"":""https://ziweizhang0304.github.io/Stats_learning_trig/img/Stim/FN_002_g.png"",""time"":2381},{""stimulus"":""blank"",""time"":2692.2999999970198},{""stimulus"":""https://ziweizhang0304.github.io/Stats_learning_trig/img/Stim/FN_023_g.png"",""time"":2724.39999999851},{""stimulus"":""blank"",""time"":3035.5},{""stimulus"":""https://ziweizhang0304.github.io/Stats_learning_trig/img/Stim/FN_025_g.png"",""time"":3062},{""stimulus"":""blank"",""time"":3377.1999999955297},{""stimulus"":""https://ziweizhang0304.github.io/Stats_learning_trig/img/Stim/FN_004_g.png"",""time"":3402},{""stimulus"":""blank"",""time"":3705.60000000149},{""stimulus"":""https://ziweizhang0304.github.io/Stats_learning_trig/img/Stim/FN_016_g.png"",""time"":3743.1999999955297},{""stimulus"":""blank"",""time"":4050.2999999970198},{""stimulus"":""https://ziweizhang0304.github.io/Stats_learning_trig/img/Stim/FN_026_g.png"",""time"":4082.7999999970198},{""stimulus"":""blank"",""time"":4390.69999999553}]","[{""key_press"":32,""rt"":2729,""stimulus"":""https://ziweizhang0304.github.io/Stats_learning_trig/img/Stim/FN_023_g.png""},{""key_press"":32,""rt"":3407.2999999970198,""stimulus"":""https://ziweizhang0304.github.io/Stats_learning_trig/img/Stim/FN_004_g.png""}]","345.29999999701977","https://ziweizhang0304.github.io/Stats_learning_trig/img/Stim/FN_025_g.png","post_TD","20","3062","3407.2999999970198","slow","9","3","61363ce02e6022a741d63a6e","","","","","",""
"","image-keyboard-response","53","189581","0.0-5.0-20.0-0.0","600.6000000014901","","","https://ziweizhang0304.github.io/Stats_learning_trig/img/Stim/FN_005_g.png","13","","","","","","","","","","","","","","","","","",""
"","animation","54","194005","0.0-5.0-20.0-1.0","","","","","","[{""stimulus"":""https://ziweizhang0304.github.io/Stats_learning_trig/img/Stim/FN_021_g.png"",""time"":346.29999999701977},{""stimulus"":""blank"",""time"":656.1999999955297},{""stimulus"":""https://ziweizhang0304.github.io/Stats_learning_trig/img/Stim/FN_019_g.png"",""time"":681.1999999955297},{""stimulus"":""blank"",""time"":981.8999999985099},{""stimulus"":""https://ziweizhang0304.github.io/Stats_learning_trig/img/Stim/FN_007_g.png"",""time"":1028.2999999970198},{""stimulus"":""blank"",""time"":1337.7999999970198},{""stimulus"":""https://ziweizhang0304.github.io/Stats_learning_trig/img/Stim/FN_018_g.png"",""time"":1360.8999999985099},{""stimulus"":""blank"",""time"":1664.2999999970198},{""stimulus"":""https://ziweizhang0304.github.io/Stats_learning_trig/img/Stim/FN_026_g.png"",""time"":1702.8999999985099},{""stimulus"":""blank"",""time"":2005.3999999985099},{""stimulus"":""https://ziweizhang0304.github.io/Stats_learning_trig/img/Stim/FN_010_g.png"",""time"":2041.5},{""stimulus"":""blank"",""time"":2348.5},{""stimulus"":""https://ziweizhang0304.github.io/Stats_learning_trig/img/Stim/FN_014_g.png"",""time"":2381.5},{""stimulus"":""blank"",""time"":2682.7999999970198},{""stimulus"":""https://ziweizhang0304.github.io/Stats_learning_trig/img/Stim/FN_017_g.png"",""time"":2722.10000000149},{""stimulus"":""blank"",""time"":3031.89999999851},{""stimulus"":""https://ziweizhang0304.github.io/Stats_learning_trig/img/Stim/FN_005_g.png"",""time"":3063.60000000149},{""stimulus"":""blank"",""time"":3374.6999999955297},{""stimulus"":""https://ziweizhang0304.github.io/Stats_learning_trig/img/Stim/FN_004_g.png"",""time"":3406.2999999970198},{""stimulus"":""blank"",""time"":3714.7999999970198},{""stimulus"":""https://ziweizhang0304.github.io/Stats_learning_trig/img/Stim/FN_016_g.png"",""time"":3741.39999999851},{""stimulus"":""blank"",""time"":4043},{""stimulus"":""https://ziweizhang0304.github.io/Stats_learning_trig/img/Stim/FN_011_g.png"",""time"":4081.2999999970198},{""stimulus"":""blank"",""time"":4385.19999999553}]","[{""key_press"":32,""rt"":2643,""stimulus"":""https://ziweizhang0304.github.io/Stats_learning_trig/img/Stim/FN_014_g.png""},{""key_press"":32,""rt"":3424,""stimulus"":""https://ziweizhang0304.github.io/Stats_learning_trig/img/Stim/FN_004_g.png""}]","360.3999999985099","https://ziweizhang0304.github.io/Stats_learning_trig/img/Stim/FN_005_g.png","post_TD","21","3063.60000000149","3424","fast","9","3","61363ce02e6022a741d63a6e","","","","","",""
"","image-keyboard-response","55","194796","0.0-5.0-21.0-0.0","788.5","","","https://ziweizhang0304.github.io/Stats_learning_trig/img/Stim/FN_023_g.png","13","","","","","","","","","","","","","","","","","",""
"","animation","56","199217","0.0-5.0-21.0-1.0","","","","","","[{""stimulus"":""https://ziweizhang0304.github.io/Stats_learning_trig/img/Stim/FN_007_g.png"",""time"":354.6000000014901},{""stimulus"":""blank"",""time"":664.8000000044703},{""stimulus"":""https://ziweizhang0304.github.io/Stats_learning_trig/img/Stim/FN_011_g.png"",""time"":681},{""stimulus"":""blank"",""time"":993.3000000044703},{""stimulus"":""https://ziweizhang0304.github.io/Stats_learning_trig/img/Stim/FN_010_g.png"",""time"":1025.2000000029802},{""stimulus"":""blank"",""time"":1337.8000000044703},{""stimulus"":""https://ziweizhang0304.github.io/Stats_learning_trig/img/Stim/FN_018_g.png"",""time"":1361.1000000014901},{""stimulus"":""blank"",""time"":1661.7000000029802},{""stimulus"":""https://ziweizhang0304.github.io/Stats_learning_trig/img/Stim/FN_021_g.png"",""time"":1708.6000000014901},{""stimulus"":""blank"",""time"":2016.9000000059605},{""stimulus"":""https://ziweizhang0304.github.io/Stats_learning_trig/img/Stim/FN_019_g.png"",""time"":2041.4000000059605},{""stimulus"":""blank"",""time"":2345.4000000059605},{""stimulus"":""https://ziweizhang0304.github.io/Stats_learning_trig/img/Stim/FN_002_g.png"",""time"":2381.4000000059605},{""stimulus"":""blank"",""time"":2686.5},{""stimulus"":""https://ziweizhang0304.github.io/Stats_learning_trig/img/Stim/FN_023_g.png"",""time"":2721.2000000029802},{""stimulus"":""blank"",""time"":3027},{""stimulus"":""https://ziweizhang0304.github.io/Stats_learning_trig/img/Stim/FN_025_g.png"",""time"":3062.4000000059605},{""stimulus"":""blank"",""time"":3370.10000000149},{""stimulus"":""https://ziweizhang0304.github.io/Stats_learning_trig/img/Stim/FN_004_g.png"",""time"":3408.10000000149},{""stimulus"":""blank"",""time"":3712.8000000044703},{""stimulus"":""https://ziweizhang0304.github.io/Stats_learning_trig/img/Stim/FN_016_g.png"",""time"":3741.60000000149},{""stimulus"":""blank"",""time"":4056.8000000044703},{""stimulus"":""https://ziweizhang0304.github.io/Stats_learning_trig/img/Stim/FN_026_g.png"",""time"":4088.7000000029802},{""stimulus"":""blank"",""time"":4400.5}]","[{""key_press"":32,""rt"":3134.2000000029802,""stimulus"":""https://ziweizhang0304.github.io/Stats_learning_trig/img/Stim/FN_025_g.png""}]","413","https://ziweizhang0304.github.io/Stats_learning_trig/img/Stim/FN_023_g.png","post_TD","22","2721.2000000029802","3134.2000000029802","slow","8","2","61363ce02e6022a741d63a6e","","","","","",""
"","image-keyboard-response","57","199894","0.0-5.0-22.0-0.0","674.2000000029802","","","https://ziweizhang0304.github.io/Stats_learning_trig/img/Stim/FN_017_g.png","13","","","","","","","","","","","","","","","","","",""
"","animation","58","204315","0.0-5.0-22.0-1.0","","","","","","[{""stimulus"":""https://ziweizhang0304.github.io/Stats_learning_trig/img/Stim/FN_021_g.png"",""time"":351.3999999985099},{""stimulus"":""blank"",""time"":659.3999999985099},{""stimulus"":""https://ziweizhang0304.github.io/Stats_learning_trig/img/Stim/FN_019_g.png"",""time"":681.1999999955297},{""stimulus"":""blank"",""time"":984.7999999970198},{""stimulus"":""https://ziweizhang0304.github.io/Stats_learning_trig/img/Stim/FN_007_g.png"",""time"":1021.2999999970198},{""stimulus"":""blank"",""time"":1327.3999999985099},{""stimulus"":""https://ziweizhang0304.github.io/Stats_learning_trig/img/Stim/FN_018_g.png"",""time"":1365.7999999970198},{""stimulus"":""blank"",""time"":1668.8999999985099},{""stimulus"":""https://ziweizhang0304.github.io/Stats_learning_trig/img/Stim/FN_026_g.png"",""time"":1707.3999999985099},{""stimulus"":""blank"",""time"":2011},{""stimulus"":""https://ziweizhang0304.github.io/Stats_learning_trig/img/Stim/FN_010_g.png"",""time"":2041.7999999970198},{""stimulus"":""blank"",""time"":2352.10000000149},{""stimulus"":""https://ziweizhang0304.github.io/Stats_learning_trig/img/Stim/FN_014_g.png"",""time"":2380.89999999851},{""stimulus"":""blank"",""time"":2695.10000000149},{""stimulus"":""https://ziweizhang0304.github.io/Stats_learning_trig/img/Stim/FN_017_g.png"",""time"":2721.39999999851},{""stimulus"":""blank"",""time"":3037},{""stimulus"":""https://ziweizhang0304.github.io/Stats_learning_trig/img/Stim/FN_005_g.png"",""time"":3068.6999999955297},{""stimulus"":""blank"",""time"":3382},{""stimulus"":""https://ziweizhang0304.github.io/Stats_learning_trig/img/Stim/FN_004_g.png"",""time"":3401},{""stimulus"":""blank"",""time"":3707.7999999970198},{""stimulus"":""https://ziweizhang0304.github.io/Stats_learning_trig/img/Stim/FN_016_g.png"",""time"":3745.5},{""stimulus"":""blank"",""time"":4050.5},{""stimulus"":""https://ziweizhang0304.github.io/Stats_learning_trig/img/Stim/FN_011_g.png"",""time"":4081.5},{""stimulus"":""blank"",""time"":4392}]","[{""key_press"":32,""rt"":3096.7000000029802,""stimulus"":""https://ziweizhang0304.github.io/Stats_learning_trig/img/Stim/FN_005_g.png""}]","375.30000000447035","https://ziweizhang0304.github.io/Stats_learning_trig/img/Stim/FN_017_g.png","post_TD","23","2721.39999999851","3096.7000000029802","fast","8","2","61363ce02e6022a741d63a6e","","","","","",""
"","image-keyboard-response","59","204872","0.0-5.0-23.0-0.0","554.7000000029802","","","https://ziweizhang0304.github.io/Stats_learning_trig/img/Stim/FN_014_g.png","13","","","","","","","","","","","","","","","","","",""
"","animation","60","209297","0.0-5.0-23.0-1.0","","","","","","[{""stimulus"":""https://ziweizhang0304.github.io/Stats_learning_trig/img/Stim/FN_016_g.png"",""time"":350.19999999552965},{""stimulus"":""blank"",""time"":658.5999999940395},{""stimulus"":""https://ziweizhang0304.github.io/Stats_learning_trig/img/Stim/FN_026_g.png"",""time"":681.5999999940395},{""stimulus"":""blank"",""time"":986.5999999940395},{""stimulus"":""https://ziweizhang0304.github.io/Stats_learning_trig/img/Stim/FN_004_g.png"",""time"":1024.7999999970198},{""stimulus"":""blank"",""time"":1329},{""stimulus"":""https://ziweizhang0304.github.io/Stats_learning_trig/img/Stim/FN_010_g.png"",""time"":1367.6999999955297},{""stimulus"":""blank"",""time"":1670.5},{""stimulus"":""https://ziweizhang0304.github.io/Stats_learning_trig/img/Stim/FN_014_g.png"",""time"":1700.8999999985099},{""stimulus"":""blank"",""time"":2014.7999999970198},{""stimulus"":""https://ziweizhang0304.github.io/Stats_learning_trig/img/Stim/FN_017_g.png"",""time"":2041.3999999985099},{""stimulus"":""blank"",""time"":2342},{""stimulus"":""https://ziweizhang0304.github.io/Stats_learning_trig/img/Stim/FN_005_g.png"",""time"":2389.7999999970198},{""stimulus"":""blank"",""time"":2701.2999999970198},{""stimulus"":""https://ziweizhang0304.github.io/Stats_learning_trig/img/Stim/FN_021_g.png"",""time"":2721.2999999970198},{""stimulus"":""blank"",""time"":3026},{""stimulus"":""https://ziweizhang0304.github.io/Stats_learning_trig/img/Stim/FN_011_g.png"",""time"":3064.1999999955297},{""stimulus"":""blank"",""time"":3364.89999999851},{""stimulus"":""https://ziweizhang0304.github.io/Stats_learning_trig/img/Stim/FN_019_g.png"",""time"":3401.2999999970198},{""stimulus"":""blank"",""time"":3706},{""stimulus"":""https://ziweizhang0304.github.io/Stats_learning_trig/img/Stim/FN_007_g.png"",""time"":3741.0999999940395},{""stimulus"":""blank"",""time"":4045.2999999970198},{""stimulus"":""https://ziweizhang0304.github.io/Stats_learning_trig/img/Stim/FN_018_g.png"",""time"":4083.6999999955297},{""stimulus"":""blank"",""time"":4386.19999999553}]","[{""key_press"":32,""rt"":2113,""stimulus"":""https://ziweizhang0304.github.io/Stats_learning_trig/img/Stim/FN_017_g.png""}]","412.1000000014901","https://ziweizhang0304.github.io/Stats_learning_trig/img/Stim/FN_014_g.png","post_TD","24","1700.8999999985099","2113","fast","5","1","61363ce02e6022a741d63a6e","b3193","","","","",""
"","survey-text","61","223858","0.0-6.0","14540.20000000298","","","","","","","","","","","","","","","","","","{""Q0"":""If there was a fixed pattern""}","","","",""
"","survey-text","62","239880","0.0-7.0","16015.79999999702","","","","","","","","","","","","","","","","","","{""[object Object]"":""I think they are in the same order""}","","","",""
"","instructions","63","249562","0.0-8.0","9681.39999999851","","[{""page_index"":0,""viewing_time"":9681}]","","","","","","","","","","","","","","","","","","","",""
"","free-sort","64","270856","0.0-9.0","21291.20000000298","","","","","","","","","post_drag","","","","fast","","","","","","[{""src"":""https://ziweizhang0304.github.io/Stats_learning_trig/img/Stim/FN_014_g.png"",""x"":475,""y"":0},{""src"":""https://ziweizhang0304.github.io/Stats_learning_trig/img/Stim/FN_005_g.png"",""x"":-225,""y"":50},{""src"":""https://ziweizhang0304.github.io/Stats_learning_trig/img/Stim/FN_017_g.png"",""x"":475,""y"":50}]","[{""src"":""https://ziweizhang0304.github.io/Stats_learning_trig/img/Stim/FN_005_g.png"",""x"":127,""y"":15},{""src"":""https://ziweizhang0304.github.io/Stats_learning_trig/img/Stim/FN_014_g.png"",""x"":66,""y"":24},{""src"":""https://ziweizhang0304.github.io/Stats_learning_trig/img/Stim/FN_017_g.png"",""x"":220,""y"":16}]","[{""src"":""https://ziweizhang0304.github.io/Stats_learning_trig/img/Stim/FN_014_g.png"",""x"":66,""y"":24},{""src"":""https://ziweizhang0304.github.io/Stats_learning_trig/img/Stim/FN_005_g.png"",""x"":127,""y"":15},{""src"":""https://ziweizhang0304.github.io/Stats_learning_trig/img/Stim/FN_017_g.png"",""x"":220,""y"":16}]",""
"","free-sort","65","281697","0.0-10.0","10838.29999999702","","","","","","","","","post_drag","","","","slow","","","","","","[{""src"":""https://ziweizhang0304.github.io/Stats_learning_trig/img/Stim/FN_023_g.png"",""x"":475,""y"":0},{""src"":""https://ziweizhang0304.github.io/Stats_learning_trig/img/Stim/FN_025_g.png"",""x"":-225,""y"":50},{""src"":""https://ziweizhang0304.github.io/Stats_learning_trig/img/Stim/FN_002_g.png"",""x"":475,""y"":50}]","[{""src"":""https://ziweizhang0304.github.io/Stats_learning_trig/img/Stim/FN_023_g.png"",""x"":135,""y"":19},{""src"":""https://ziweizhang0304.github.io/Stats_learning_trig/img/Stim/FN_002_g.png"",""x"":49,""y"":12},{""src"":""https://ziweizhang0304.github.io/Stats_learning_trig/img/Stim/FN_023_g.png"",""x"":215,""y"":21},{""src"":""https://ziweizhang0304.github.io/Stats_learning_trig/img/Stim/FN_025_g.png"",""x"":94,""y"":24}]","[{""src"":""https://ziweizhang0304.github.io/Stats_learning_trig/img/Stim/FN_023_g.png"",""x"":215,""y"":21},{""src"":""https://ziweizhang0304.github.io/Stats_learning_trig/img/Stim/FN_025_g.png"",""x"":94,""y"":24},{""src"":""https://ziweizhang0304.github.io/Stats_learning_trig/img/Stim/FN_002_g.png"",""x"":49,""y"":12}]",""
"","survey-multi-choice","66","304818","0.0-11.0","23114.80000000447","","","","","","","","","","","","","","","","61363ce02e6022a741d63a6e","","{""awareness"":""Not sure"",""attention_check"":""Press SPACEBAR to a target""}","","","","[0,1]"
