"success","trial_type","trial_index","time_elapsed","internal_node_id","rt","url","view_history","stimulus","key_press","animation_sequence","response","TD_rt","TD_target","test_part","TD_trial_number","onset","offset","attention_state","TD_target_position","TD_within_triplet_counter","participant","yoke_participant","responses","init_locations","moves","final_locations","question_order"
"true","fullscreen","0","2945","0.0-0.0","","","","","","","","","","","","","","","","","","","","","","",""
"","external-html","1","49169","0.0-1.0","45346.2999997139","https://ziweizhang0304.github.io/Stats_learning_trig/content/consent.html","","","","","","","","","","","","","","","","","","","","",""
"","instructions","2","110351","0.0-2.0","61161.800000190735","","[{""page_index"":0,""viewing_time"":2614.1000003814697},{""page_index"":1,""viewing_time"":19115.89999961853},{""page_index"":2,""viewing_time"":36756.300000190735},{""page_index"":3,""viewing_time"":2672.5}]","","","","","","","","","","","","","","","","","","","",""
"","image-keyboard-response","3","121032","0.0-3.0-0.0-0.0","10667.599999904633","","","https://ziweizhang0304.github.io/Stats_learning_trig/img/Stim/FN_001_g.png","13","","","","","","","","","","","","","","","","","",""
"","animation","4","125463","0.0-3.0-0.0-1.0","","","","","","[{""stimulus"":""https://ziweizhang0304.github.io/Stats_learning_trig/img/Stim/FN_003_g.png"",""time"":377.09999990463257},{""stimulus"":""blank"",""time"":685.3000001907349},{""stimulus"":""https://ziweizhang0304.github.io/Stats_learning_trig/img/Stim/FN_006_g.png"",""time"":693.8000001907349},{""stimulus"":""blank"",""time"":1001.5999999046326},{""stimulus"":""https://ziweizhang0304.github.io/Stats_learning_trig/img/Stim/FN_022_g.png"",""time"":1027},{""stimulus"":""blank"",""time"":1341.0999999046326},{""stimulus"":""https://ziweizhang0304.github.io/Stats_learning_trig/img/Stim/FN_020_g.png"",""time"":1369.7000002861023},{""stimulus"":""blank"",""time"":1675.5},{""stimulus"":""https://ziweizhang0304.github.io/Stats_learning_trig/img/Stim/FN_010_g.png"",""time"":1709.4000000953674},{""stimulus"":""blank"",""time"":2018.2000002861023},{""stimulus"":""https://ziweizhang0304.github.io/Stats_learning_trig/img/Stim/FN_001_g.png"",""time"":2043.4000000953674},{""stimulus"":""blank"",""time"":2351.300000190735},{""stimulus"":""https://ziweizhang0304.github.io/Stats_learning_trig/img/Stim/FN_026_g.png"",""time"":2382.7000002861023},{""stimulus"":""blank"",""time"":2692.2000002861023},{""stimulus"":""https://ziweizhang0304.github.io/Stats_learning_trig/img/Stim/FN_015_g.png"",""time"":2722.800000190735},{""stimulus"":""blank"",""time"":3038.0999999046326},{""stimulus"":""https://ziweizhang0304.github.io/Stats_learning_trig/img/Stim/FN_002_g.png"",""time"":3065.5999999046326},{""stimulus"":""blank"",""time"":3372.0999999046326},{""stimulus"":""https://ziweizhang0304.github.io/Stats_learning_trig/img/Stim/FN_024_g.png"",""time"":3402.5999999046326},{""stimulus"":""blank"",""time"":3707.5},{""stimulus"":""https://ziweizhang0304.github.io/Stats_learning_trig/img/Stim/FN_011_g.png"",""time"":3750.0999999046326},{""stimulus"":""blank"",""time"":4067.2000002861023},{""stimulus"":""https://ziweizhang0304.github.io/Stats_learning_trig/img/Stim/FN_019_g.png"",""time"":4083.7000002861023},{""stimulus"":""blank"",""time"":4401.300000190735}]","[{""key_press"":32,""rt"":2354.2000002861023,""stimulus"":""blank""}]","310.80000019073486","https://ziweizhang0304.github.io/Stats_learning_trig/img/Stim/FN_001_g.png","post_prac","","","","","","","","","","","","",""
"","html-keyboard-response","5","140026","0.0-3.0-0.0-2.0","14535.099999904633","","","<p>Your reaction time for this trial was 310.8 ms.</p><p>Remember that you should only press the SPACEBAR when you see the shape presented at the beginning of the trial. </b> </p><p>Press enter to move on.</p>","13","","","","","","","","","","","","","","","","","",""
"","image-keyboard-response","6","147569","0.0-3.0-1.0-0.0","7540.10000038147","","","https://ziweizhang0304.github.io/Stats_learning_trig/img/Stim/FN_021_g.png","13","","","","","","","","","","","","","","","","","",""
"","animation","7","151992","0.0-3.0-1.0-1.0","","","","","","[{""stimulus"":""https://ziweizhang0304.github.io/Stats_learning_trig/img/Stim/FN_011_g.png"",""time"":348.80000019073486},{""stimulus"":""blank"",""time"":663.1999998092651},{""stimulus"":""https://ziweizhang0304.github.io/Stats_learning_trig/img/Stim/FN_003_g.png"",""time"":688.5},{""stimulus"":""blank"",""time"":996.6999998092651},{""stimulus"":""https://ziweizhang0304.github.io/Stats_learning_trig/img/Stim/FN_026_g.png"",""time"":1022.0999999046326},{""stimulus"":""blank"",""time"":1329.8000001907349},{""stimulus"":""https://ziweizhang0304.github.io/Stats_learning_trig/img/Stim/FN_010_g.png"",""time"":1362.9000000953674},{""stimulus"":""blank"",""time"":1664.0999999046326},{""stimulus"":""https://ziweizhang0304.github.io/Stats_learning_trig/img/Stim/FN_022_g.png"",""time"":1706.0999999046326},{""stimulus"":""blank"",""time"":2013},{""stimulus"":""https://ziweizhang0304.github.io/Stats_learning_trig/img/Stim/FN_016_g.png"",""time"":2044.0999999046326},{""stimulus"":""blank"",""time"":2351.699999809265},{""stimulus"":""https://ziweizhang0304.github.io/Stats_learning_trig/img/Stim/FN_021_g.png"",""time"":2385.9000000953674},{""stimulus"":""blank"",""time"":2692.5},{""stimulus"":""https://ziweizhang0304.github.io/Stats_learning_trig/img/Stim/FN_017_g.png"",""time"":2727.699999809265},{""stimulus"":""blank"",""time"":3033.9000000953674},{""stimulus"":""https://ziweizhang0304.github.io/Stats_learning_trig/img/Stim/FN_015_g.png"",""time"":3067.199999809265},{""stimulus"":""blank"",""time"":3378.300000190735},{""stimulus"":""https://ziweizhang0304.github.io/Stats_learning_trig/img/Stim/FN_006_g.png"",""time"":3404.4000000953674},{""stimulus"":""blank"",""time"":3712.699999809265},{""stimulus"":""https://ziweizhang0304.github.io/Stats_learning_trig/img/Stim/FN_019_g.png"",""time"":3744},{""stimulus"":""blank"",""time"":4051.5999999046326},{""stimulus"":""https://ziweizhang0304.github.io/Stats_learning_trig/img/Stim/FN_002_g.png"",""time"":4086},{""stimulus"":""blank"",""time"":4396.400000095367}]","[{""key_press"":32,""rt"":2752.199999809265,""stimulus"":""https://ziweizhang0304.github.io/Stats_learning_trig/img/Stim/FN_017_g.png""}]","366.2999997138977","https://ziweizhang0304.github.io/Stats_learning_trig/img/Stim/FN_021_g.png","post_prac","","","","","","","","","","","","",""
"","html-keyboard-response","8","158722","0.0-3.0-1.0-2.0","6717.900000095367","","","<p>Your reaction time for this trial was 366.3 ms.</p><p>Remember that you should only press the SPACEBAR when you see the shape presented at the beginning of the trial. </b> </p><p>Press enter to move on.</p>","13","","","","","","","","","","","","","","","","","",""
"","image-keyboard-response","9","163151","0.0-3.0-2.0-0.0","4427.39999961853","","","https://ziweizhang0304.github.io/Stats_learning_trig/img/Stim/FN_001_g.png","13","","","","","","","","","","","","","","","","","",""
"","animation","10","167575","0.0-3.0-2.0-1.0","","","","","","[{""stimulus"":""https://ziweizhang0304.github.io/Stats_learning_trig/img/Stim/FN_002_g.png"",""time"":346.7999997138977},{""stimulus"":""blank"",""time"":653.5999999046326},{""stimulus"":""https://ziweizhang0304.github.io/Stats_learning_trig/img/Stim/FN_015_g.png"",""time"":683.1999998092651},{""stimulus"":""blank"",""time"":985.1999998092651},{""stimulus"":""https://ziweizhang0304.github.io/Stats_learning_trig/img/Stim/FN_022_g.png"",""time"":1026},{""stimulus"":""blank"",""time"":1328.0999999046326},{""stimulus"":""https://ziweizhang0304.github.io/Stats_learning_trig/img/Stim/FN_011_g.png"",""time"":1379.0999999046326},{""stimulus"":""blank"",""time"":1694.7999997138977},{""stimulus"":""https://ziweizhang0304.github.io/Stats_learning_trig/img/Stim/FN_026_g.png"",""time"":1704.0999999046326},{""stimulus"":""blank"",""time"":2011.8999996185303},{""stimulus"":""https://ziweizhang0304.github.io/Stats_learning_trig/img/Stim/FN_024_g.png"",""time"":2042.5},{""stimulus"":""blank"",""time"":2349.0999999046326},{""stimulus"":""https://ziweizhang0304.github.io/Stats_learning_trig/img/Stim/FN_020_g.png"",""time"":2383.2999997138977},{""stimulus"":""blank"",""time"":2688.8999996185303},{""stimulus"":""https://ziweizhang0304.github.io/Stats_learning_trig/img/Stim/FN_001_g.png"",""time"":2722},{""stimulus"":""blank"",""time"":3031.0999999046326},{""stimulus"":""https://ziweizhang0304.github.io/Stats_learning_trig/img/Stim/FN_003_g.png"",""time"":3065.199999809265},{""stimulus"":""blank"",""time"":3377.3999996185303},{""stimulus"":""https://ziweizhang0304.github.io/Stats_learning_trig/img/Stim/FN_010_g.png"",""time"":3402.8999996185303},{""stimulus"":""blank"",""time"":3710.5999999046326},{""stimulus"":""https://ziweizhang0304.github.io/Stats_learning_trig/img/Stim/FN_006_g.png"",""time"":3742.5999999046326},{""stimulus"":""blank"",""time"":4044.699999809265},{""stimulus"":""https://ziweizhang0304.github.io/Stats_learning_trig/img/Stim/FN_019_g.png"",""time"":4096.39999961853},{""stimulus"":""blank"",""time"":4411.299999713898}]","[{""key_press"":32,""rt"":3088.5999999046326,""stimulus"":""https://ziweizhang0304.github.io/Stats_learning_trig/img/Stim/FN_003_g.png""}]","366.59999990463257","https://ziweizhang0304.github.io/Stats_learning_trig/img/Stim/FN_001_g.png","post_prac","","","","","","","","","","","","",""
"","html-keyboard-response","11","170981","0.0-3.0-2.0-2.0","3394.6000003814697","","","<p>Your reaction time for this trial was 366.6 ms.</p><p>Remember that you should only press the SPACEBAR when you see the shape presented at the beginning of the trial. </b> </p><p>Press enter to move on.</p>","13","","","","","","","","","","","","","","","","","",""
"","instructions","12","174104","0.0-4.0","3121.7999997138977","","[{""page_index"":0,""viewing_time"":3121.0999999046326}]","","","","","","","","","","","","","","","","","","","",""
"","image-keyboard-response","13","177980","0.0-5.0-0.0-0.0","3874","","","https://ziweizhang0304.github.io/Stats_learning_trig/img/Stim/FN_001_g.png","13","","","","","","","","","","","","","","","","","",""
"","animation","14","182407","0.0-5.0-0.0-1.0","","","","","","[{""stimulus"":""https://ziweizhang0304.github.io/Stats_learning_trig/img/Stim/FN_002_g.png"",""time"":343.09999990463257},{""stimulus"":""blank"",""time"":645.5},{""stimulus"":""https://ziweizhang0304.github.io/Stats_learning_trig/img/Stim/FN_026_g.png"",""time"":696},{""stimulus"":""blank"",""time"":1010.4000000953674},{""stimulus"":""https://ziweizhang0304.github.io/Stats_learning_trig/img/Stim/FN_010_g.png"",""time"":1027.5},{""stimulus"":""blank"",""time"":1343.3000001907349},{""stimulus"":""https://ziweizhang0304.github.io/Stats_learning_trig/img/Stim/FN_019_g.png"",""time"":1368.1999998092651},{""stimulus"":""blank"",""time"":1678.9000000953674},{""stimulus"":""https://ziweizhang0304.github.io/Stats_learning_trig/img/Stim/FN_022_g.png"",""time"":1704.1999998092651},{""stimulus"":""blank"",""time"":2012.0999999046326},{""stimulus"":""https://ziweizhang0304.github.io/Stats_learning_trig/img/Stim/FN_006_g.png"",""time"":2043.4000000953674},{""stimulus"":""blank"",""time"":2346.0999999046326},{""stimulus"":""https://ziweizhang0304.github.io/Stats_learning_trig/img/Stim/FN_024_g.png"",""time"":2387.800000190735},{""stimulus"":""blank"",""time"":2698.800000190735},{""stimulus"":""https://ziweizhang0304.github.io/Stats_learning_trig/img/Stim/FN_020_g.png"",""time"":2726.0999999046326},{""stimulus"":""blank"",""time"":3033.0999999046326},{""stimulus"":""https://ziweizhang0304.github.io/Stats_learning_trig/img/Stim/FN_001_g.png"",""time"":3068.0999999046326},{""stimulus"":""blank"",""time"":3377.800000190735},{""stimulus"":""https://ziweizhang0304.github.io/Stats_learning_trig/img/Stim/FN_015_g.png"",""time"":3403.199999809265},{""stimulus"":""blank"",""time"":3718},{""stimulus"":""https://ziweizhang0304.github.io/Stats_learning_trig/img/Stim/FN_003_g.png"",""time"":3744.699999809265},{""stimulus"":""blank"",""time"":4055.5},{""stimulus"":""https://ziweizhang0304.github.io/Stats_learning_trig/img/Stim/FN_011_g.png"",""time"":4088},{""stimulus"":""blank"",""time"":4394.800000190735}]","[{""key_press"":32,""rt"":3411.7999997138977,""stimulus"":""https://ziweizhang0304.github.io/Stats_learning_trig/img/Stim/FN_015_g.png""}]","343.69999980926514","https://ziweizhang0304.github.io/Stats_learning_trig/img/Stim/FN_001_g.png","post_TD","1","3068.0999999046326","3411.7999997138977","fast","9","3","5fb7398b7e9d5025e52c7e1d","","","","","",""
"","image-keyboard-response","15","186485","0.0-5.0-1.0-0.0","4073.800000190735","","","https://ziweizhang0304.github.io/Stats_learning_trig/img/Stim/FN_024_g.png","13","","","","","","","","","","","","","","","","","",""
"","animation","16","190917","0.0-5.0-1.0-1.0","","","","","","[{""stimulus"":""https://ziweizhang0304.github.io/Stats_learning_trig/img/Stim/FN_002_g.png"",""time"":358.8999996185303},{""stimulus"":""blank"",""time"":673.6999998092651},{""stimulus"":""https://ziweizhang0304.github.io/Stats_learning_trig/img/Stim/FN_026_g.png"",""time"":691.6999998092651},{""stimulus"":""blank"",""time"":1006.2999997138977},{""stimulus"":""https://ziweizhang0304.github.io/Stats_learning_trig/img/Stim/FN_010_g.png"",""time"":1023.2999997138977},{""stimulus"":""blank"",""time"":1330.2999997138977},{""stimulus"":""https://ziweizhang0304.github.io/Stats_learning_trig/img/Stim/FN_019_g.png"",""time"":1363.2999997138977},{""stimulus"":""blank"",""time"":1673},{""stimulus"":""https://ziweizhang0304.github.io/Stats_learning_trig/img/Stim/FN_022_g.png"",""time"":1703.5},{""stimulus"":""blank"",""time"":2017.2999997138977},{""stimulus"":""https://ziweizhang0304.github.io/Stats_learning_trig/img/Stim/FN_006_g.png"",""time"":2042},{""stimulus"":""blank"",""time"":2358.7999997138977},{""stimulus"":""https://ziweizhang0304.github.io/Stats_learning_trig/img/Stim/FN_024_g.png"",""time"":2387.3999996185303},{""stimulus"":""blank"",""time"":2690.2999997138977},{""stimulus"":""https://ziweizhang0304.github.io/Stats_learning_trig/img/Stim/FN_020_g.png"",""time"":2726.5999999046326},{""stimulus"":""blank"",""time"":3040.0999999046326},{""stimulus"":""https://ziweizhang0304.github.io/Stats_learning_trig/img/Stim/FN_001_g.png"",""time"":3065.5999999046326},{""stimulus"":""blank"",""time"":3372.7999997138977},{""stimulus"":""https://ziweizhang0304.github.io/Stats_learning_trig/img/Stim/FN_015_g.png"",""time"":3403.0999999046326},{""stimulus"":""blank"",""time"":3708.3999996185303},{""stimulus"":""https://ziweizhang0304.github.io/Stats_learning_trig/img/Stim/FN_003_g.png"",""time"":3743.0999999046326},{""stimulus"":""blank"",""time"":4057.5},{""stimulus"":""https://ziweizhang0304.github.io/Stats_learning_trig/img/Stim/FN_011_g.png"",""time"":4082.699999809265},{""stimulus"":""blank"",""time"":4390.39999961853}]","[{""key_press"":32,""rt"":2723.9000000953674,""stimulus"":""blank""}]","336.50000047683716","https://ziweizhang0304.github.io/Stats_learning_trig/img/Stim/FN_024_g.png","post_TD","2","2387.3999996185303","2723.9000000953674","fast","7","1","5fb7398b7e9d5025e52c7e1d","","","","","",""
"","image-keyboard-response","17","192912","0.0-5.0-2.0-0.0","1986.8000001907349","","","https://ziweizhang0304.github.io/Stats_learning_trig/img/Stim/FN_016_g.png","13","","","","","","","","","","","","","","","","","",""
"","animation","18","197338","0.0-5.0-2.0-1.0","","","","","","[{""stimulus"":""https://ziweizhang0304.github.io/Stats_learning_trig/img/Stim/FN_011_g.png"",""time"":346.59999990463257},{""stimulus"":""blank"",""time"":647.1999998092651},{""stimulus"":""https://ziweizhang0304.github.io/Stats_learning_trig/img/Stim/FN_003_g.png"",""time"":696.6999998092651},{""stimulus"":""blank"",""time"":1009.5},{""stimulus"":""https://ziweizhang0304.github.io/Stats_learning_trig/img/Stim/FN_026_g.png"",""time"":1029.6999998092651},{""stimulus"":""blank"",""time"":1335.5},{""stimulus"":""https://ziweizhang0304.github.io/Stats_learning_trig/img/Stim/FN_010_g.png"",""time"":1364.3000001907349},{""stimulus"":""blank"",""time"":1679.8000001907349},{""stimulus"":""https://ziweizhang0304.github.io/Stats_learning_trig/img/Stim/FN_022_g.png"",""time"":1704.3000001907349},{""stimulus"":""blank"",""time"":2010.5999999046326},{""stimulus"":""https://ziweizhang0304.github.io/Stats_learning_trig/img/Stim/FN_016_g.png"",""time"":2043.3000001907349},{""stimulus"":""blank"",""time"":2346.5999999046326},{""stimulus"":""https://ziweizhang0304.github.io/Stats_learning_trig/img/Stim/FN_021_g.png"",""time"":2395.699999809265},{""stimulus"":""blank"",""time"":2697.5999999046326},{""stimulus"":""https://ziweizhang0304.github.io/Stats_learning_trig/img/Stim/FN_017_g.png"",""time"":2723.0999999046326},{""stimulus"":""blank"",""time"":3029.800000190735},{""stimulus"":""https://ziweizhang0304.github.io/Stats_learning_trig/img/Stim/FN_015_g.png"",""time"":3064.5999999046326},{""stimulus"":""blank"",""time"":3378.0999999046326},{""stimulus"":""https://ziweizhang0304.github.io/Stats_learning_trig/img/Stim/FN_006_g.png"",""time"":3403.5999999046326},{""stimulus"":""blank"",""time"":3712.5999999046326},{""stimulus"":""https://ziweizhang0304.github.io/Stats_learning_trig/img/Stim/FN_019_g.png"",""time"":3743.199999809265},{""stimulus"":""blank"",""time"":4051.300000190735},{""stimulus"":""https://ziweizhang0304.github.io/Stats_learning_trig/img/Stim/FN_002_g.png"",""time"":4085},{""stimulus"":""blank"",""time"":4395.5}]","[{""key_press"":32,""rt"":2392.800000190735,""stimulus"":""blank""}]","349.5","https://ziweizhang0304.github.io/Stats_learning_trig/img/Stim/FN_016_g.png","post_TD","3","2043.3000001907349","2392.800000190735","slow","6","1","5fb7398b7e9d5025e52c7e1d","","","","","",""
"","image-keyboard-response","19","198781","0.0-5.0-3.0-0.0","1434.1000003814697","","","https://ziweizhang0304.github.io/Stats_learning_trig/img/Stim/FN_024_g.png","13","","","","","","","","","","","","","","","","","",""
"","animation","20","203202","0.0-5.0-3.0-1.0","","","","","","[{""stimulus"":""https://ziweizhang0304.github.io/Stats_learning_trig/img/Stim/FN_002_g.png"",""time"":352.80000019073486},{""stimulus"":""blank"",""time"":659},{""stimulus"":""https://ziweizhang0304.github.io/Stats_learning_trig/img/Stim/FN_019_g.png"",""time"":685.1000003814697},{""stimulus"":""blank"",""time"":992},{""stimulus"":""https://ziweizhang0304.github.io/Stats_learning_trig/img/Stim/FN_011_g.png"",""time"":1023.5},{""stimulus"":""blank"",""time"":1326.5},{""stimulus"":""https://ziweizhang0304.github.io/Stats_learning_trig/img/Stim/FN_015_g.png"",""time"":1376.4000000953674},{""stimulus"":""blank"",""time"":1692.6000003814697},{""stimulus"":""https://ziweizhang0304.github.io/Stats_learning_trig/img/Stim/FN_024_g.png"",""time"":1702},{""stimulus"":""blank"",""time"":2009.5},{""stimulus"":""https://ziweizhang0304.github.io/Stats_learning_trig/img/Stim/FN_020_g.png"",""time"":2043.3000001907349},{""stimulus"":""blank"",""time"":2358.7000002861023},{""stimulus"":""https://ziweizhang0304.github.io/Stats_learning_trig/img/Stim/FN_001_g.png"",""time"":2390.300000190735},{""stimulus"":""blank"",""time"":2708.2000002861023},{""stimulus"":""https://ziweizhang0304.github.io/Stats_learning_trig/img/Stim/FN_022_g.png"",""time"":2727.1000003814697},{""stimulus"":""blank"",""time"":3027.9000000953674},{""stimulus"":""https://ziweizhang0304.github.io/Stats_learning_trig/img/Stim/FN_003_g.png"",""time"":3077.6000003814697},{""stimulus"":""blank"",""time"":3385.6000003814697},{""stimulus"":""https://ziweizhang0304.github.io/Stats_learning_trig/img/Stim/FN_010_g.png"",""time"":3403.300000190735},{""stimulus"":""blank"",""time"":3709.6000003814697},{""stimulus"":""https://ziweizhang0304.github.io/Stats_learning_trig/img/Stim/FN_006_g.png"",""time"":3744.4000000953674},{""stimulus"":""blank"",""time"":4047.300000190735},{""stimulus"":""https://ziweizhang0304.github.io/Stats_learning_trig/img/Stim/FN_026_g.png"",""time"":4089.6000003814697},{""stimulus"":""blank"",""time"":4393}]","[{""key_press"":32,""rt"":2023,""stimulus"":""blank""}]","321","https://ziweizhang0304.github.io/Stats_learning_trig/img/Stim/FN_024_g.png","post_TD","4","1702","2023","fast","5","1","5fb7398b7e9d5025e52c7e1d","","","","","",""
"","image-keyboard-response","21","204802","0.0-5.0-4.0-0.0","1590.8000001907349","","","https://ziweizhang0304.github.io/Stats_learning_trig/img/Stim/FN_020_g.png","13","","","","","","","","","","","","","","","","","",""
"","animation","22","209228","0.0-5.0-4.0-1.0","","","","","","[{""stimulus"":""https://ziweizhang0304.github.io/Stats_learning_trig/img/Stim/FN_002_g.png"",""time"":347.5},{""stimulus"":""blank"",""time"":653},{""stimulus"":""https://ziweizhang0304.github.io/Stats_learning_trig/img/Stim/FN_019_g.png"",""time"":683},{""stimulus"":""blank"",""time"":990.2999997138977},{""stimulus"":""https://ziweizhang0304.github.io/Stats_learning_trig/img/Stim/FN_011_g.png"",""time"":1025.0999999046326},{""stimulus"":""blank"",""time"":1335.0999999046326},{""stimulus"":""https://ziweizhang0304.github.io/Stats_learning_trig/img/Stim/FN_015_g.png"",""time"":1366.0999999046326},{""stimulus"":""blank"",""time"":1673.4000000953674},{""stimulus"":""https://ziweizhang0304.github.io/Stats_learning_trig/img/Stim/FN_024_g.png"",""time"":1715.7999997138977},{""stimulus"":""blank"",""time"":2023.5},{""stimulus"":""https://ziweizhang0304.github.io/Stats_learning_trig/img/Stim/FN_020_g.png"",""time"":2049.2999997138977},{""stimulus"":""blank"",""time"":2357.0999999046326},{""stimulus"":""https://ziweizhang0304.github.io/Stats_learning_trig/img/Stim/FN_001_g.png"",""time"":2384.0999999046326},{""stimulus"":""blank"",""time"":2685.5999999046326},{""stimulus"":""https://ziweizhang0304.github.io/Stats_learning_trig/img/Stim/FN_022_g.png"",""time"":2728},{""stimulus"":""blank"",""time"":3034.699999809265},{""stimulus"":""https://ziweizhang0304.github.io/Stats_learning_trig/img/Stim/FN_003_g.png"",""time"":3065.9000000953674},{""stimulus"":""blank"",""time"":3368.699999809265},{""stimulus"":""https://ziweizhang0304.github.io/Stats_learning_trig/img/Stim/FN_010_g.png"",""time"":3403},{""stimulus"":""blank"",""time"":3705.7999997138977},{""stimulus"":""https://ziweizhang0304.github.io/Stats_learning_trig/img/Stim/FN_006_g.png"",""time"":3748.9000000953674},{""stimulus"":""blank"",""time"":4068},{""stimulus"":""https://ziweizhang0304.github.io/Stats_learning_trig/img/Stim/FN_026_g.png"",""time"":4085.7999997138977},{""stimulus"":""blank"",""time"":4401}]","[{""key_press"":32,""rt"":2441,""stimulus"":""https://ziweizhang0304.github.io/Stats_learning_trig/img/Stim/FN_001_g.png""}]","391.7000002861023","https://ziweizhang0304.github.io/Stats_learning_trig/img/Stim/FN_020_g.png","post_TD","5","2049.2999997138977","2441","fast","6","2","5fb7398b7e9d5025e52c7e1d","","","","","",""
"","image-keyboard-response","23","210564","0.0-5.0-5.0-0.0","1323.0999999046326","","","https://ziweizhang0304.github.io/Stats_learning_trig/img/Stim/FN_001_g.png","13","","","","","","","","","","","","","","","","","",""
"","animation","24","214987","0.0-5.0-5.0-1.0","","","","","","[{""stimulus"":""https://ziweizhang0304.github.io/Stats_learning_trig/img/Stim/FN_026_g.png"",""time"":358.59999990463257},{""stimulus"":""blank"",""time"":665.8999996185303},{""stimulus"":""https://ziweizhang0304.github.io/Stats_learning_trig/img/Stim/FN_022_g.png"",""time"":686.1999998092651},{""stimulus"":""blank"",""time"":989.5},{""stimulus"":""https://ziweizhang0304.github.io/Stats_learning_trig/img/Stim/FN_011_g.png"",""time"":1023.1999998092651},{""stimulus"":""blank"",""time"":1326.8999996185303},{""stimulus"":""https://ziweizhang0304.github.io/Stats_learning_trig/img/Stim/FN_024_g.png"",""time"":1370.2999997138977},{""stimulus"":""blank"",""time"":1672.5999999046326},{""stimulus"":""https://ziweizhang0304.github.io/Stats_learning_trig/img/Stim/FN_020_g.png"",""time"":1703.5999999046326},{""stimulus"":""blank"",""time"":2021.6999998092651},{""stimulus"":""https://ziweizhang0304.github.io/Stats_learning_trig/img/Stim/FN_001_g.png"",""time"":2047.0999999046326},{""stimulus"":""blank"",""time"":2351.699999809265},{""stimulus"":""https://ziweizhang0304.github.io/Stats_learning_trig/img/Stim/FN_015_g.png"",""time"":2389.7999997138977},{""stimulus"":""blank"",""time"":2695.5},{""stimulus"":""https://ziweizhang0304.github.io/Stats_learning_trig/img/Stim/FN_003_g.png"",""time"":2729},{""stimulus"":""blank"",""time"":3043.0999999046326},{""stimulus"":""https://ziweizhang0304.github.io/Stats_learning_trig/img/Stim/FN_010_g.png"",""time"":3069.3999996185303},{""stimulus"":""blank"",""time"":3377.0999999046326},{""stimulus"":""https://ziweizhang0304.github.io/Stats_learning_trig/img/Stim/FN_006_g.png"",""time"":3406.2999997138977},{""stimulus"":""blank"",""time"":3722.0999999046326},{""stimulus"":""https://ziweizhang0304.github.io/Stats_learning_trig/img/Stim/FN_019_g.png"",""time"":3747.3999996185303},{""stimulus"":""blank"",""time"":4055.3999996185303},{""stimulus"":""https://ziweizhang0304.github.io/Stats_learning_trig/img/Stim/FN_002_g.png"",""time"":4086.5999999046326},{""stimulus"":""blank"",""time"":4396.5}]","[{""key_press"":32,""rt"":2340.5999999046326,""stimulus"":""https://ziweizhang0304.github.io/Stats_learning_trig/img/Stim/FN_001_g.png""}]","293.5","https://ziweizhang0304.github.io/Stats_learning_trig/img/Stim/FN_001_g.png","post_TD","6","2047.0999999046326","2340.5999999046326","fast","6","3","5fb7398b7e9d5025e52c7e1d","","","","","",""
"","image-keyboard-response","25","216810","0.0-5.0-6.0-0.0","1813.8000001907349","","","https://ziweizhang0304.github.io/Stats_learning_trig/img/Stim/FN_017_g.png","13","","","","","","","","","","","","","","","","","",""
"","animation","26","221237","0.0-5.0-6.0-1.0","","","","","","[{""stimulus"":""https://ziweizhang0304.github.io/Stats_learning_trig/img/Stim/FN_002_g.png"",""time"":347.30000019073486},{""stimulus"":""blank"",""time"":654.9000000953674},{""stimulus"":""https://ziweizhang0304.github.io/Stats_learning_trig/img/Stim/FN_006_g.png"",""time"":689.2000002861023},{""stimulus"":""blank"",""time"":992.1000003814697},{""stimulus"":""https://ziweizhang0304.github.io/Stats_learning_trig/img/Stim/FN_010_g.png"",""time"":1022.9000000953674},{""stimulus"":""blank"",""time"":1329.5},{""stimulus"":""https://ziweizhang0304.github.io/Stats_learning_trig/img/Stim/FN_022_g.png"",""time"":1364.3000001907349},{""stimulus"":""blank"",""time"":1679.8000001907349},{""stimulus"":""https://ziweizhang0304.github.io/Stats_learning_trig/img/Stim/FN_019_g.png"",""time"":1705.6000003814697},{""stimulus"":""blank"",""time"":2009.3000001907349},{""stimulus"":""https://ziweizhang0304.github.io/Stats_learning_trig/img/Stim/FN_015_g.png"",""time"":2043.2000002861023},{""stimulus"":""blank"",""time"":2358.9000000953674},{""stimulus"":""https://ziweizhang0304.github.io/Stats_learning_trig/img/Stim/FN_016_g.png"",""time"":2385.7000002861023},{""stimulus"":""blank"",""time"":2692.800000190735},{""stimulus"":""https://ziweizhang0304.github.io/Stats_learning_trig/img/Stim/FN_021_g.png"",""time"":2722.6000003814697},{""stimulus"":""blank"",""time"":3029.300000190735},{""stimulus"":""https://ziweizhang0304.github.io/Stats_learning_trig/img/Stim/FN_017_g.png"",""time"":3064},{""stimulus"":""blank"",""time"":3374.9000000953674},{""stimulus"":""https://ziweizhang0304.github.io/Stats_learning_trig/img/Stim/FN_003_g.png"",""time"":3405.7000002861023},{""stimulus"":""blank"",""time"":3712.2000002861023},{""stimulus"":""https://ziweizhang0304.github.io/Stats_learning_trig/img/Stim/FN_011_g.png"",""time"":3746.5},{""stimulus"":""blank"",""time"":4060.7000002861023},{""stimulus"":""https://ziweizhang0304.github.io/Stats_learning_trig/img/Stim/FN_026_g.png"",""time"":4088.4000000953674},{""stimulus"":""blank"",""time"":4395.900000095367}]","[{""key_press"":32,""rt"":3437.4000000953674,""stimulus"":""https://ziweizhang0304.github.io/Stats_learning_trig/img/Stim/FN_003_g.png""}]","373.40000009536743","https://ziweizhang0304.github.io/Stats_learning_trig/img/Stim/FN_017_g.png","post_TD","7","3064","3437.4000000953674","slow","9","3","5fb7398b7e9d5025e52c7e1d","","","","","",""
"","image-keyboard-response","27","222708","0.0-5.0-7.0-0.0","1461.1000003814697","","","https://ziweizhang0304.github.io/Stats_learning_trig/img/Stim/FN_017_g.png","13","","","","","","","","","","","","","","","","","",""
"","animation","28","227131","0.0-5.0-7.0-1.0","","","","","","[{""stimulus"":""https://ziweizhang0304.github.io/Stats_learning_trig/img/Stim/FN_011_g.png"",""time"":343.59999990463257},{""stimulus"":""blank"",""time"":658.9000000953674},{""stimulus"":""https://ziweizhang0304.github.io/Stats_learning_trig/img/Stim/FN_003_g.png"",""time"":684.0999999046326},{""stimulus"":""blank"",""time"":992.0999999046326},{""stimulus"":""https://ziweizhang0304.github.io/Stats_learning_trig/img/Stim/FN_026_g.png"",""time"":1023.4000000953674},{""stimulus"":""blank"",""time"":1332.0999999046326},{""stimulus"":""https://ziweizhang0304.github.io/Stats_learning_trig/img/Stim/FN_010_g.png"",""time"":1365.7000002861023},{""stimulus"":""blank"",""time"":1678.8000001907349},{""stimulus"":""https://ziweizhang0304.github.io/Stats_learning_trig/img/Stim/FN_022_g.png"",""time"":1706.3000001907349},{""stimulus"":""blank"",""time"":2013.3000001907349},{""stimulus"":""https://ziweizhang0304.github.io/Stats_learning_trig/img/Stim/FN_016_g.png"",""time"":2056.0999999046326},{""stimulus"":""blank"",""time"":2362.800000190735},{""stimulus"":""https://ziweizhang0304.github.io/Stats_learning_trig/img/Stim/FN_021_g.png"",""time"":2389.7000002861023},{""stimulus"":""blank"",""time"":2691.800000190735},{""stimulus"":""https://ziweizhang0304.github.io/Stats_learning_trig/img/Stim/FN_017_g.png"",""time"":2723},{""stimulus"":""blank"",""time"":3031.0999999046326},{""stimulus"":""https://ziweizhang0304.github.io/Stats_learning_trig/img/Stim/FN_015_g.png"",""time"":3064.7000002861023},{""stimulus"":""blank"",""time"":3375.5},{""stimulus"":""https://ziweizhang0304.github.io/Stats_learning_trig/img/Stim/FN_006_g.png"",""time"":3406.2000002861023},{""stimulus"":""blank"",""time"":3714.2000002861023},{""stimulus"":""https://ziweizhang0304.github.io/Stats_learning_trig/img/Stim/FN_019_g.png"",""time"":3748.4000000953674},{""stimulus"":""blank"",""time"":4059.5},{""stimulus"":""https://ziweizhang0304.github.io/Stats_learning_trig/img/Stim/FN_002_g.png"",""time"":4085.5999999046326},{""stimulus"":""blank"",""time"":4392.200000286102}]","[{""key_press"":32,""rt"":3061.5999999046326,""stimulus"":""blank""}]","338.59999990463257","https://ziweizhang0304.github.io/Stats_learning_trig/img/Stim/FN_017_g.png","post_TD","8","2723","3061.5999999046326","slow","8","3","5fb7398b7e9d5025e52c7e1d","","","","","",""
"","image-keyboard-response","29","229715","0.0-5.0-8.0-0.0","2575.6000003814697","","","https://ziweizhang0304.github.io/Stats_learning_trig/img/Stim/FN_016_g.png","13","","","","","","","","","","","","","","","","","",""
"","animation","30","234139","0.0-5.0-8.0-1.0","","","","","","[{""stimulus"":""https://ziweizhang0304.github.io/Stats_learning_trig/img/Stim/FN_002_g.png"",""time"":352.40000009536743},{""stimulus"":""blank"",""time"":667},{""stimulus"":""https://ziweizhang0304.github.io/Stats_learning_trig/img/Stim/FN_006_g.png"",""time"":685.1999998092651},{""stimulus"":""blank"",""time"":992.2999997138977},{""stimulus"":""https://ziweizhang0304.github.io/Stats_learning_trig/img/Stim/FN_010_g.png"",""time"":1031.6999998092651},{""stimulus"":""blank"",""time"":1334.2999997138977},{""stimulus"":""https://ziweizhang0304.github.io/Stats_learning_trig/img/Stim/FN_022_g.png"",""time"":1365.1999998092651},{""stimulus"":""blank"",""time"":1667.1999998092651},{""stimulus"":""https://ziweizhang0304.github.io/Stats_learning_trig/img/Stim/FN_019_g.png"",""time"":1717.4000000953674},{""stimulus"":""blank"",""time"":2033.4000000953674},{""stimulus"":""https://ziweizhang0304.github.io/Stats_learning_trig/img/Stim/FN_015_g.png"",""time"":2042.5999999046326},{""stimulus"":""blank"",""time"":2349.2999997138977},{""stimulus"":""https://ziweizhang0304.github.io/Stats_learning_trig/img/Stim/FN_016_g.png"",""time"":2384.699999809265},{""stimulus"":""blank"",""time"":2686.199999809265},{""stimulus"":""https://ziweizhang0304.github.io/Stats_learning_trig/img/Stim/FN_021_g.png"",""time"":2731.2999997138977},{""stimulus"":""blank"",""time"":3038.4000000953674},{""stimulus"":""https://ziweizhang0304.github.io/Stats_learning_trig/img/Stim/FN_017_g.png"",""time"":3064.9000000953674},{""stimulus"":""blank"",""time"":3367.7999997138977},{""stimulus"":""https://ziweizhang0304.github.io/Stats_learning_trig/img/Stim/FN_003_g.png"",""time"":3409.4000000953674},{""stimulus"":""blank"",""time"":3716.7999997138977},{""stimulus"":""https://ziweizhang0304.github.io/Stats_learning_trig/img/Stim/FN_011_g.png"",""time"":3742.0999999046326},{""stimulus"":""blank"",""time"":4052.2999997138977},{""stimulus"":""https://ziweizhang0304.github.io/Stats_learning_trig/img/Stim/FN_026_g.png"",""time"":4086.5},{""stimulus"":""blank"",""time"":4389.400000095367}]","[{""key_press"":32,""rt"":2740.7999997138977,""stimulus"":""https://ziweizhang0304.github.io/Stats_learning_trig/img/Stim/FN_021_g.png""}]","356.09999990463257","https://ziweizhang0304.github.io/Stats_learning_trig/img/Stim/FN_016_g.png","post_TD","9","2384.699999809265","2740.7999997138977","slow","7","1","5fb7398b7e9d5025e52c7e1d","","","","","",""
"","image-keyboard-response","31","235546","0.0-5.0-9.0-0.0","1399.0999999046326","","","https://ziweizhang0304.github.io/Stats_learning_trig/img/Stim/FN_001_g.png","13","","","","","","","","","","","","","","","","","",""
"","animation","32","239976","0.0-5.0-9.0-1.0","","","","","","[{""stimulus"":""https://ziweizhang0304.github.io/Stats_learning_trig/img/Stim/FN_002_g.png"",""time"":347.40000009536743},{""stimulus"":""blank"",""time"":652.4000000953674},{""stimulus"":""https://ziweizhang0304.github.io/Stats_learning_trig/img/Stim/FN_015_g.png"",""time"":682.9000000953674},{""stimulus"":""blank"",""time"":990.2000002861023},{""stimulus"":""https://ziweizhang0304.github.io/Stats_learning_trig/img/Stim/FN_022_g.png"",""time"":1024.6000003814697},{""stimulus"":""blank"",""time"":1338.9000000953674},{""stimulus"":""https://ziweizhang0304.github.io/Stats_learning_trig/img/Stim/FN_011_g.png"",""time"":1365.7000002861023},{""stimulus"":""blank"",""time"":1671.8000001907349},{""stimulus"":""https://ziweizhang0304.github.io/Stats_learning_trig/img/Stim/FN_026_g.png"",""time"":1705.2000002861023},{""stimulus"":""blank"",""time"":2018.9000000953674},{""stimulus"":""https://ziweizhang0304.github.io/Stats_learning_trig/img/Stim/FN_024_g.png"",""time"":2044.1000003814697},{""stimulus"":""blank"",""time"":2352},{""stimulus"":""https://ziweizhang0304.github.io/Stats_learning_trig/img/Stim/FN_020_g.png"",""time"":2382.7000002861023},{""stimulus"":""blank"",""time"":2689.1000003814697},{""stimulus"":""https://ziweizhang0304.github.io/Stats_learning_trig/img/Stim/FN_001_g.png"",""time"":2722.4000000953674},{""stimulus"":""blank"",""time"":3038.2000002861023},{""stimulus"":""https://ziweizhang0304.github.io/Stats_learning_trig/img/Stim/FN_003_g.png"",""time"":3065.4000000953674},{""stimulus"":""blank"",""time"":3370.800000190735},{""stimulus"":""https://ziweizhang0304.github.io/Stats_learning_trig/img/Stim/FN_010_g.png"",""time"":3404.9000000953674},{""stimulus"":""blank"",""time"":3720},{""stimulus"":""https://ziweizhang0304.github.io/Stats_learning_trig/img/Stim/FN_006_g.png"",""time"":3746.9000000953674},{""stimulus"":""blank"",""time"":4053.6000003814697},{""stimulus"":""https://ziweizhang0304.github.io/Stats_learning_trig/img/Stim/FN_019_g.png"",""time"":4087.1000003814697},{""stimulus"":""blank"",""time"":4403.400000095367}]","[{""key_press"":32,""rt"":3048.4000000953674,""stimulus"":""blank""}]","326","https://ziweizhang0304.github.io/Stats_learning_trig/img/Stim/FN_001_g.png","post_TD","10","2722.4000000953674","3048.4000000953674","fast","8","3","5fb7398b7e9d5025e52c7e1d","","","","","",""
"","image-keyboard-response","33","241583","0.0-5.0-10.0-0.0","1594.1000003814697","","","https://ziweizhang0304.github.io/Stats_learning_trig/img/Stim/FN_017_g.png","13","","","","","","","","","","","","","","","","","",""
"","animation","34","246015","0.0-5.0-10.0-1.0","","","","","","[{""stimulus"":""https://ziweizhang0304.github.io/Stats_learning_trig/img/Stim/FN_011_g.png"",""time"":353.1000003814697},{""stimulus"":""blank"",""time"":663.3000001907349},{""stimulus"":""https://ziweizhang0304.github.io/Stats_learning_trig/img/Stim/FN_022_g.png"",""time"":681.7000002861023},{""stimulus"":""blank"",""time"":996},{""stimulus"":""https://ziweizhang0304.github.io/Stats_learning_trig/img/Stim/FN_019_g.png"",""time"":1021.9000000953674},{""stimulus"":""blank"",""time"":1330.3000001907349},{""stimulus"":""https://ziweizhang0304.github.io/Stats_learning_trig/img/Stim/FN_016_g.png"",""time"":1363.9000000953674},{""stimulus"":""blank"",""time"":1668.9000000953674},{""stimulus"":""https://ziweizhang0304.github.io/Stats_learning_trig/img/Stim/FN_021_g.png"",""time"":1711.6000003814697},{""stimulus"":""blank"",""time"":2018.4000000953674},{""stimulus"":""https://ziweizhang0304.github.io/Stats_learning_trig/img/Stim/FN_017_g.png"",""time"":2044.7000002861023},{""stimulus"":""blank"",""time"":2346.300000190735},{""stimulus"":""https://ziweizhang0304.github.io/Stats_learning_trig/img/Stim/FN_015_g.png"",""time"":2387.9000000953674},{""stimulus"":""blank"",""time"":2689.5},{""stimulus"":""https://ziweizhang0304.github.io/Stats_learning_trig/img/Stim/FN_003_g.png"",""time"":2723.5},{""stimulus"":""blank"",""time"":3031.1000003814697},{""stimulus"":""https://ziweizhang0304.github.io/Stats_learning_trig/img/Stim/FN_010_g.png"",""time"":3064.7000002861023},{""stimulus"":""blank"",""time"":3369.300000190735},{""stimulus"":""https://ziweizhang0304.github.io/Stats_learning_trig/img/Stim/FN_006_g.png"",""time"":3403.300000190735},{""stimulus"":""blank"",""time"":3713.9000000953674},{""stimulus"":""https://ziweizhang0304.github.io/Stats_learning_trig/img/Stim/FN_026_g.png"",""time"":3744.6000003814697},{""stimulus"":""blank"",""time"":4049.6000003814697},{""stimulus"":""https://ziweizhang0304.github.io/Stats_learning_trig/img/Stim/FN_002_g.png"",""time"":4086.300000190735},{""stimulus"":""blank"",""time"":4400.60000038147}]","[{""key_press"":32,""rt"":2405.800000190735,""stimulus"":""https://ziweizhang0304.github.io/Stats_learning_trig/img/Stim/FN_015_g.png""}]","361.09999990463257","https://ziweizhang0304.github.io/Stats_learning_trig/img/Stim/FN_017_g.png","post_TD","11","2044.7000002861023","2405.800000190735","slow","6","3","5fb7398b7e9d5025e52c7e1d","","","","","",""
"","image-keyboard-response","35","247405","0.0-5.0-11.0-0.0","1381.7999997138977","","","https://ziweizhang0304.github.io/Stats_learning_trig/img/Stim/FN_021_g.png","13","","","","","","","","","","","","","","","","","",""
"","animation","36","251828","0.0-5.0-11.0-1.0","","","","","","[{""stimulus"":""https://ziweizhang0304.github.io/Stats_learning_trig/img/Stim/FN_011_g.png"",""time"":359.30000019073486},{""stimulus"":""blank"",""time"":673.8000001907349},{""stimulus"":""https://ziweizhang0304.github.io/Stats_learning_trig/img/Stim/FN_022_g.png"",""time"":685.4000000953674},{""stimulus"":""blank"",""time"":990.8000001907349},{""stimulus"":""https://ziweizhang0304.github.io/Stats_learning_trig/img/Stim/FN_019_g.png"",""time"":1022.3000001907349},{""stimulus"":""blank"",""time"":1329.9000000953674},{""stimulus"":""https://ziweizhang0304.github.io/Stats_learning_trig/img/Stim/FN_016_g.png"",""time"":1364.3000001907349},{""stimulus"":""blank"",""time"":1670.6999998092651},{""stimulus"":""https://ziweizhang0304.github.io/Stats_learning_trig/img/Stim/FN_021_g.png"",""time"":1705.5},{""stimulus"":""blank"",""time"":2013.8000001907349},{""stimulus"":""https://ziweizhang0304.github.io/Stats_learning_trig/img/Stim/FN_017_g.png"",""time"":2047.8000001907349},{""stimulus"":""blank"",""time"":2359.199999809265},{""stimulus"":""https://ziweizhang0304.github.io/Stats_learning_trig/img/Stim/FN_015_g.png"",""time"":2385.199999809265},{""stimulus"":""blank"",""time"":2697.800000190735},{""stimulus"":""https://ziweizhang0304.github.io/Stats_learning_trig/img/Stim/FN_003_g.png"",""time"":2725.5999999046326},{""stimulus"":""blank"",""time"":3030.5},{""stimulus"":""https://ziweizhang0304.github.io/Stats_learning_trig/img/Stim/FN_010_g.png"",""time"":3064},{""stimulus"":""blank"",""time"":3373.199999809265},{""stimulus"":""https://ziweizhang0304.github.io/Stats_learning_trig/img/Stim/FN_006_g.png"",""time"":3405},{""stimulus"":""blank"",""time"":3711.5999999046326},{""stimulus"":""https://ziweizhang0304.github.io/Stats_learning_trig/img/Stim/FN_026_g.png"",""time"":3746.300000190735},{""stimulus"":""blank"",""time"":4049.0999999046326},{""stimulus"":""https://ziweizhang0304.github.io/Stats_learning_trig/img/Stim/FN_002_g.png"",""time"":4083.4000000953674},{""stimulus"":""blank"",""time"":4390.199999809265}]","[{""key_press"":32,""rt"":2062,""stimulus"":""https://ziweizhang0304.github.io/Stats_learning_trig/img/Stim/FN_017_g.png""}]","356.5","https://ziweizhang0304.github.io/Stats_learning_trig/img/Stim/FN_021_g.png","post_TD","12","1705.5","2062","slow","5","2","5fb7398b7e9d5025e52c7e1d","","","","","",""
"","image-keyboard-response","37","253385","0.0-5.0-12.0-0.0","1547.1999998092651","","","https://ziweizhang0304.github.io/Stats_learning_trig/img/Stim/FN_024_g.png","13","","","","","","","","","","","","","","","","","",""
"","animation","38","257808","0.0-5.0-12.0-1.0","","","","","","[{""stimulus"":""https://ziweizhang0304.github.io/Stats_learning_trig/img/Stim/FN_026_g.png"",""time"":347.80000019073486},{""stimulus"":""blank"",""time"":656.8000001907349},{""stimulus"":""https://ziweizhang0304.github.io/Stats_learning_trig/img/Stim/FN_022_g.png"",""time"":681.5},{""stimulus"":""blank"",""time"":985.4000000953674},{""stimulus"":""https://ziweizhang0304.github.io/Stats_learning_trig/img/Stim/FN_011_g.png"",""time"":1021.8000001907349},{""stimulus"":""blank"",""time"":1332.5999999046326},{""stimulus"":""https://ziweizhang0304.github.io/Stats_learning_trig/img/Stim/FN_024_g.png"",""time"":1366.4000000953674},{""stimulus"":""blank"",""time"":1673.4000000953674},{""stimulus"":""https://ziweizhang0304.github.io/Stats_learning_trig/img/Stim/FN_020_g.png"",""time"":1705.3000001907349},{""stimulus"":""blank"",""time"":2009.5},{""stimulus"":""https://ziweizhang0304.github.io/Stats_learning_trig/img/Stim/FN_001_g.png"",""time"":2051},{""stimulus"":""blank"",""time"":2359.800000190735},{""stimulus"":""https://ziweizhang0304.github.io/Stats_learning_trig/img/Stim/FN_015_g.png"",""time"":2385.0999999046326},{""stimulus"":""blank"",""time"":2693},{""stimulus"":""https://ziweizhang0304.github.io/Stats_learning_trig/img/Stim/FN_003_g.png"",""time"":2723.5},{""stimulus"":""blank"",""time"":3026.0999999046326},{""stimulus"":""https://ziweizhang0304.github.io/Stats_learning_trig/img/Stim/FN_010_g.png"",""time"":3077.4000000953674},{""stimulus"":""blank"",""time"":3391.800000190735},{""stimulus"":""https://ziweizhang0304.github.io/Stats_learning_trig/img/Stim/FN_006_g.png"",""time"":3410},{""stimulus"":""blank"",""time"":3722.5},{""stimulus"":""https://ziweizhang0304.github.io/Stats_learning_trig/img/Stim/FN_019_g.png"",""time"":3748.5999999046326},{""stimulus"":""blank"",""time"":4058.4000000953674},{""stimulus"":""https://ziweizhang0304.github.io/Stats_learning_trig/img/Stim/FN_002_g.png"",""time"":4083.7000002861023},{""stimulus"":""blank"",""time"":4393.200000286102}]","[{""key_press"":32,""rt"":1714.1999998092651,""stimulus"":""https://ziweizhang0304.github.io/Stats_learning_trig/img/Stim/FN_020_g.png""}]","347.7999997138977","https://ziweizhang0304.github.io/Stats_learning_trig/img/Stim/FN_024_g.png","post_TD","13","1366.4000000953674","1714.1999998092651","fast","4","1","5fb7398b7e9d5025e52c7e1d","","","","","",""
"","image-keyboard-response","39","274435","0.0-5.0-13.0-0.0","16617.10000038147","","","https://ziweizhang0304.github.io/Stats_learning_trig/img/Stim/FN_016_g.png","13","","","","","","","","","","","","","","","","","",""
"","animation","40","278863","0.0-5.0-13.0-1.0","","","","","","[{""stimulus"":""https://ziweizhang0304.github.io/Stats_learning_trig/img/Stim/FN_011_g.png"",""time"":354.40000009536743},{""stimulus"":""blank"",""time"":659.7000002861023},{""stimulus"":""https://ziweizhang0304.github.io/Stats_learning_trig/img/Stim/FN_022_g.png"",""time"":689.3000001907349},{""stimulus"":""blank"",""time"":992.5999999046326},{""stimulus"":""https://ziweizhang0304.github.io/Stats_learning_trig/img/Stim/FN_019_g.png"",""time"":1025.7000002861023},{""stimulus"":""blank"",""time"":1337.9000000953674},{""stimulus"":""https://ziweizhang0304.github.io/Stats_learning_trig/img/Stim/FN_016_g.png"",""time"":1365},{""stimulus"":""blank"",""time"":1672.4000000953674},{""stimulus"":""https://ziweizhang0304.github.io/Stats_learning_trig/img/Stim/FN_021_g.png"",""time"":1712.4000000953674},{""stimulus"":""blank"",""time"":2021.8000001907349},{""stimulus"":""https://ziweizhang0304.github.io/Stats_learning_trig/img/Stim/FN_017_g.png"",""time"":2049.800000190735},{""stimulus"":""blank"",""time"":2355.5999999046326},{""stimulus"":""https://ziweizhang0304.github.io/Stats_learning_trig/img/Stim/FN_015_g.png"",""time"":2385.2000002861023},{""stimulus"":""blank"",""time"":2689.7000002861023},{""stimulus"":""https://ziweizhang0304.github.io/Stats_learning_trig/img/Stim/FN_003_g.png"",""time"":2724},{""stimulus"":""blank"",""time"":3036.7000002861023},{""stimulus"":""https://ziweizhang0304.github.io/Stats_learning_trig/img/Stim/FN_010_g.png"",""time"":3062.0999999046326},{""stimulus"":""blank"",""time"":3370.800000190735},{""stimulus"":""https://ziweizhang0304.github.io/Stats_learning_trig/img/Stim/FN_006_g.png"",""time"":3404.300000190735},{""stimulus"":""blank"",""time"":3705.2000002861023},{""stimulus"":""https://ziweizhang0304.github.io/Stats_learning_trig/img/Stim/FN_026_g.png"",""time"":3755.5999999046326},{""stimulus"":""blank"",""time"":4062.5999999046326},{""stimulus"":""https://ziweizhang0304.github.io/Stats_learning_trig/img/Stim/FN_002_g.png"",""time"":4088.5},{""stimulus"":""blank"",""time"":4404.5}]","[{""key_press"":32,""rt"":1709.5999999046326,""stimulus"":""blank""}]","344.59999990463257","https://ziweizhang0304.github.io/Stats_learning_trig/img/Stim/FN_016_g.png","post_TD","14","1365","1709.5999999046326","slow","4","1","5fb7398b7e9d5025e52c7e1d","","","","","",""
"","image-keyboard-response","41","279932","0.0-5.0-14.0-0.0","1056.2000002861023","","","https://ziweizhang0304.github.io/Stats_learning_trig/img/Stim/FN_021_g.png","13","","","","","","","","","","","","","","","","","",""
"","animation","42","284358","0.0-5.0-14.0-1.0","","","","","","[{""stimulus"":""https://ziweizhang0304.github.io/Stats_learning_trig/img/Stim/FN_002_g.png"",""time"":355.59999990463257},{""stimulus"":""blank"",""time"":656.8000001907349},{""stimulus"":""https://ziweizhang0304.github.io/Stats_learning_trig/img/Stim/FN_006_g.png"",""time"":682.1999998092651},{""stimulus"":""blank"",""time"":990.3000001907349},{""stimulus"":""https://ziweizhang0304.github.io/Stats_learning_trig/img/Stim/FN_010_g.png"",""time"":1021.9000000953674},{""stimulus"":""blank"",""time"":1325},{""stimulus"":""https://ziweizhang0304.github.io/Stats_learning_trig/img/Stim/FN_022_g.png"",""time"":1367.3000001907349},{""stimulus"":""blank"",""time"":1677.6999998092651},{""stimulus"":""https://ziweizhang0304.github.io/Stats_learning_trig/img/Stim/FN_019_g.png"",""time"":1704.6999998092651},{""stimulus"":""blank"",""time"":2008},{""stimulus"":""https://ziweizhang0304.github.io/Stats_learning_trig/img/Stim/FN_015_g.png"",""time"":2042.3000001907349},{""stimulus"":""blank"",""time"":2345.4000000953674},{""stimulus"":""https://ziweizhang0304.github.io/Stats_learning_trig/img/Stim/FN_016_g.png"",""time"":2388.199999809265},{""stimulus"":""blank"",""time"":2697.800000190735},{""stimulus"":""https://ziweizhang0304.github.io/Stats_learning_trig/img/Stim/FN_021_g.png"",""time"":2725},{""stimulus"":""blank"",""time"":3040.9000000953674},{""stimulus"":""https://ziweizhang0304.github.io/Stats_learning_trig/img/Stim/FN_017_g.png"",""time"":3067},{""stimulus"":""blank"",""time"":3374.300000190735},{""stimulus"":""https://ziweizhang0304.github.io/Stats_learning_trig/img/Stim/FN_003_g.png"",""time"":3404.800000190735},{""stimulus"":""blank"",""time"":3706.699999809265},{""stimulus"":""https://ziweizhang0304.github.io/Stats_learning_trig/img/Stim/FN_011_g.png"",""time"":3742.4000000953674},{""stimulus"":""blank"",""time"":4057.5999999046326},{""stimulus"":""https://ziweizhang0304.github.io/Stats_learning_trig/img/Stim/FN_026_g.png"",""time"":4082.9000000953674},{""stimulus"":""blank"",""time"":4384.400000095367}]","[{""key_press"":32,""rt"":3079.1000003814697,""stimulus"":""https://ziweizhang0304.github.io/Stats_learning_trig/img/Stim/FN_017_g.png""}]","354.1000003814697","https://ziweizhang0304.github.io/Stats_learning_trig/img/Stim/FN_021_g.png","post_TD","15","2725","3079.1000003814697","slow","8","2","5fb7398b7e9d5025e52c7e1d","","","","","",""
"","image-keyboard-response","43","285264","0.0-5.0-15.0-0.0","891","","","https://ziweizhang0304.github.io/Stats_learning_trig/img/Stim/FN_016_g.png","13","","","","","","","","","","","","","","","","","",""
"","animation","44","289689","0.0-5.0-15.0-1.0","","","","","","[{""stimulus"":""https://ziweizhang0304.github.io/Stats_learning_trig/img/Stim/FN_026_g.png"",""time"":358.7000002861023},{""stimulus"":""blank"",""time"":673.5},{""stimulus"":""https://ziweizhang0304.github.io/Stats_learning_trig/img/Stim/FN_003_g.png"",""time"":682.8000001907349},{""stimulus"":""blank"",""time"":987.8000001907349},{""stimulus"":""https://ziweizhang0304.github.io/Stats_learning_trig/img/Stim/FN_002_g.png"",""time"":1021.2000002861023},{""stimulus"":""blank"",""time"":1327.6000003814697},{""stimulus"":""https://ziweizhang0304.github.io/Stats_learning_trig/img/Stim/FN_015_g.png"",""time"":1371.2000002861023},{""stimulus"":""blank"",""time"":1674.1000003814697},{""stimulus"":""https://ziweizhang0304.github.io/Stats_learning_trig/img/Stim/FN_016_g.png"",""time"":1704.6000003814697},{""stimulus"":""blank"",""time"":2007.2000002861023},{""stimulus"":""https://ziweizhang0304.github.io/Stats_learning_trig/img/Stim/FN_021_g.png"",""time"":2049.6000003814697},{""stimulus"":""blank"",""time"":2358.1000003814697},{""stimulus"":""https://ziweizhang0304.github.io/Stats_learning_trig/img/Stim/FN_017_g.png"",""time"":2383.6000003814697},{""stimulus"":""blank"",""time"":2691.2000002861023},{""stimulus"":""https://ziweizhang0304.github.io/Stats_learning_trig/img/Stim/FN_022_g.png"",""time"":2726.4000000953674},{""stimulus"":""blank"",""time"":3040.5},{""stimulus"":""https://ziweizhang0304.github.io/Stats_learning_trig/img/Stim/FN_011_g.png"",""time"":3066.7000002861023},{""stimulus"":""blank"",""time"":3374},{""stimulus"":""https://ziweizhang0304.github.io/Stats_learning_trig/img/Stim/FN_010_g.png"",""time"":3404.4000000953674},{""stimulus"":""blank"",""time"":3710.800000190735},{""stimulus"":""https://ziweizhang0304.github.io/Stats_learning_trig/img/Stim/FN_006_g.png"",""time"":3753.800000190735},{""stimulus"":""blank"",""time"":4056.800000190735},{""stimulus"":""https://ziweizhang0304.github.io/Stats_learning_trig/img/Stim/FN_019_g.png"",""time"":4081.9000000953674},{""stimulus"":""blank"",""time"":4397.60000038147}]","[{""key_press"":32,""rt"":2050.0999999046326,""stimulus"":""https://ziweizhang0304.github.io/Stats_learning_trig/img/Stim/FN_021_g.png""}]","345.49999952316284","https://ziweizhang0304.github.io/Stats_learning_trig/img/Stim/FN_016_g.png","post_TD","16","1704.6000003814697","2050.0999999046326","slow","5","1","5fb7398b7e9d5025e52c7e1d","","","","","",""
"","image-keyboard-response","45","290730","0.0-5.0-16.0-0.0","1032.1999998092651","","","https://ziweizhang0304.github.io/Stats_learning_trig/img/Stim/FN_024_g.png","13","","","","","","","","","","","","","","","","","",""
"","animation","46","295162","0.0-5.0-16.0-1.0","","","","","","[{""stimulus"":""https://ziweizhang0304.github.io/Stats_learning_trig/img/Stim/FN_002_g.png"",""time"":358.59999990463257},{""stimulus"":""blank"",""time"":668.0999999046326},{""stimulus"":""https://ziweizhang0304.github.io/Stats_learning_trig/img/Stim/FN_015_g.png"",""time"":690.5},{""stimulus"":""blank"",""time"":994.0999999046326},{""stimulus"":""https://ziweizhang0304.github.io/Stats_learning_trig/img/Stim/FN_022_g.png"",""time"":1029.3000001907349},{""stimulus"":""blank"",""time"":1344.5},{""stimulus"":""https://ziweizhang0304.github.io/Stats_learning_trig/img/Stim/FN_011_g.png"",""time"":1362.6999998092651},{""stimulus"":""blank"",""time"":1673},{""stimulus"":""https://ziweizhang0304.github.io/Stats_learning_trig/img/Stim/FN_026_g.png"",""time"":1713},{""stimulus"":""blank"",""time"":2023.8000001907349},{""stimulus"":""https://ziweizhang0304.github.io/Stats_learning_trig/img/Stim/FN_024_g.png"",""time"":2045.4000000953674},{""stimulus"":""blank"",""time"":2356.4000000953674},{""stimulus"":""https://ziweizhang0304.github.io/Stats_learning_trig/img/Stim/FN_020_g.png"",""time"":2381.800000190735},{""stimulus"":""blank"",""time"":2689.699999809265},{""stimulus"":""https://ziweizhang0304.github.io/Stats_learning_trig/img/Stim/FN_001_g.png"",""time"":2723.300000190735},{""stimulus"":""blank"",""time"":3023.9000000953674},{""stimulus"":""https://ziweizhang0304.github.io/Stats_learning_trig/img/Stim/FN_003_g.png"",""time"":3062.5},{""stimulus"":""blank"",""time"":3376.699999809265},{""stimulus"":""https://ziweizhang0304.github.io/Stats_learning_trig/img/Stim/FN_010_g.png"",""time"":3404},{""stimulus"":""blank"",""time"":3710.5},{""stimulus"":""https://ziweizhang0304.github.io/Stats_learning_trig/img/Stim/FN_006_g.png"",""time"":3744.300000190735},{""stimulus"":""blank"",""time"":4044.5999999046326},{""stimulus"":""https://ziweizhang0304.github.io/Stats_learning_trig/img/Stim/FN_019_g.png"",""time"":4087.199999809265},{""stimulus"":""blank"",""time"":4398}]","[{""key_press"":32,""rt"":2391.3999996185303,""stimulus"":""https://ziweizhang0304.github.io/Stats_learning_trig/img/Stim/FN_020_g.png""}]","345.99999952316284","https://ziweizhang0304.github.io/Stats_learning_trig/img/Stim/FN_024_g.png","post_TD","17","2045.4000000953674","2391.3999996185303","fast","6","1","5fb7398b7e9d5025e52c7e1d","","","","","",""
"","image-keyboard-response","47","296228","0.0-5.0-17.0-0.0","1062.0999999046326","","","https://ziweizhang0304.github.io/Stats_learning_trig/img/Stim/FN_020_g.png","13","","","","","","","","","","","","","","","","","",""
"","animation","48","300655","0.0-5.0-17.0-1.0","","","","","","[{""stimulus"":""https://ziweizhang0304.github.io/Stats_learning_trig/img/Stim/FN_002_g.png"",""time"":347.19999980926514},{""stimulus"":""blank"",""time"":657.5999999046326},{""stimulus"":""https://ziweizhang0304.github.io/Stats_learning_trig/img/Stim/FN_015_g.png"",""time"":687.9000000953674},{""stimulus"":""blank"",""time"":994.1999998092651},{""stimulus"":""https://ziweizhang0304.github.io/Stats_learning_trig/img/Stim/FN_022_g.png"",""time"":1027.1999998092651},{""stimulus"":""blank"",""time"":1330.6999998092651},{""stimulus"":""https://ziweizhang0304.github.io/Stats_learning_trig/img/Stim/FN_011_g.png"",""time"":1371.5999999046326},{""stimulus"":""blank"",""time"":1674.7999997138977},{""stimulus"":""https://ziweizhang0304.github.io/Stats_learning_trig/img/Stim/FN_026_g.png"",""time"":1705.5999999046326},{""stimulus"":""blank"",""time"":2048.699999809265},{""stimulus"":""https://ziweizhang0304.github.io/Stats_learning_trig/img/Stim/FN_024_g.png"",""time"":2051.7999997138977},{""stimulus"":""blank"",""time"":2358.5},{""stimulus"":""https://ziweizhang0304.github.io/Stats_learning_trig/img/Stim/FN_020_g.png"",""time"":2383.699999809265},{""stimulus"":""blank"",""time"":2692},{""stimulus"":""https://ziweizhang0304.github.io/Stats_learning_trig/img/Stim/FN_001_g.png"",""time"":2722.0999999046326},{""stimulus"":""blank"",""time"":3031.0999999046326},{""stimulus"":""https://ziweizhang0304.github.io/Stats_learning_trig/img/Stim/FN_003_g.png"",""time"":3064.5},{""stimulus"":""blank"",""time"":3374.2999997138977},{""stimulus"":""https://ziweizhang0304.github.io/Stats_learning_trig/img/Stim/FN_010_g.png"",""time"":3405.5},{""stimulus"":""blank"",""time"":3712.699999809265},{""stimulus"":""https://ziweizhang0304.github.io/Stats_learning_trig/img/Stim/FN_006_g.png"",""time"":3747.199999809265},{""stimulus"":""blank"",""time"":4060.699999809265},{""stimulus"":""https://ziweizhang0304.github.io/Stats_learning_trig/img/Stim/FN_019_g.png"",""time"":4085.2999997138977},{""stimulus"":""blank"",""time"":4391.699999809265}]","[{""key_press"":32,""rt"":2575,""stimulus"":""https://ziweizhang0304.github.io/Stats_learning_trig/img/Stim/FN_020_g.png""}]","191.30000019073486","https://ziweizhang0304.github.io/Stats_learning_trig/img/Stim/FN_020_g.png","post_TD","18","2383.699999809265","2575","fast","7","2","5fb7398b7e9d5025e52c7e1d","","","","","",""
"","image-keyboard-response","49","302575","0.0-5.0-18.0-0.0","1912.6999998092651","","","https://ziweizhang0304.github.io/Stats_learning_trig/img/Stim/FN_020_g.png","13","","","","","","","","","","","","","","","","","",""
"","animation","50","306999","0.0-5.0-18.0-1.0","","","","","","[{""stimulus"":""https://ziweizhang0304.github.io/Stats_learning_trig/img/Stim/FN_002_g.png"",""time"":347.7999997138977},{""stimulus"":""blank"",""time"":658.7999997138977},{""stimulus"":""https://ziweizhang0304.github.io/Stats_learning_trig/img/Stim/FN_026_g.png"",""time"":684.6999998092651},{""stimulus"":""blank"",""time"":993.8999996185303},{""stimulus"":""https://ziweizhang0304.github.io/Stats_learning_trig/img/Stim/FN_010_g.png"",""time"":1024.2999997138977},{""stimulus"":""blank"",""time"":1334.1999998092651},{""stimulus"":""https://ziweizhang0304.github.io/Stats_learning_trig/img/Stim/FN_019_g.png"",""time"":1363.8999996185303},{""stimulus"":""blank"",""time"":1678.8999996185303},{""stimulus"":""https://ziweizhang0304.github.io/Stats_learning_trig/img/Stim/FN_022_g.png"",""time"":1704.0999999046326},{""stimulus"":""blank"",""time"":2011.5},{""stimulus"":""https://ziweizhang0304.github.io/Stats_learning_trig/img/Stim/FN_006_g.png"",""time"":2045.5999999046326},{""stimulus"":""blank"",""time"":2359.8999996185303},{""stimulus"":""https://ziweizhang0304.github.io/Stats_learning_trig/img/Stim/FN_024_g.png"",""time"":2385.0999999046326},{""stimulus"":""blank"",""time"":2692},{""stimulus"":""https://ziweizhang0304.github.io/Stats_learning_trig/img/Stim/FN_020_g.png"",""time"":2723.7999997138977},{""stimulus"":""blank"",""time"":3025.5999999046326},{""stimulus"":""https://ziweizhang0304.github.io/Stats_learning_trig/img/Stim/FN_001_g.png"",""time"":3068.3999996185303},{""stimulus"":""blank"",""time"":3379.5},{""stimulus"":""https://ziweizhang0304.github.io/Stats_learning_trig/img/Stim/FN_015_g.png"",""time"":3406.2999997138977},{""stimulus"":""blank"",""time"":3715.2999997138977},{""stimulus"":""https://ziweizhang0304.github.io/Stats_learning_trig/img/Stim/FN_003_g.png"",""time"":3741.5999999046326},{""stimulus"":""blank"",""time"":4048.3999996185303},{""stimulus"":""https://ziweizhang0304.github.io/Stats_learning_trig/img/Stim/FN_011_g.png"",""time"":4082.5},{""stimulus"":""blank"",""time"":4392.799999713898}]","[{""key_press"":32,""rt"":2915.4000000953674,""stimulus"":""https://ziweizhang0304.github.io/Stats_learning_trig/img/Stim/FN_020_g.png""}]","191.60000038146973","https://ziweizhang0304.github.io/Stats_learning_trig/img/Stim/FN_020_g.png","post_TD","19","2723.7999997138977","2915.4000000953674","fast","8","2","5fb7398b7e9d5025e52c7e1d","","","","","",""
"","image-keyboard-response","51","308373","0.0-5.0-19.0-0.0","1366.5","","","https://ziweizhang0304.github.io/Stats_learning_trig/img/Stim/FN_021_g.png","13","","","","","","","","","","","","","","","","","",""
"","animation","52","312795","0.0-5.0-19.0-1.0","","","","","","[{""stimulus"":""https://ziweizhang0304.github.io/Stats_learning_trig/img/Stim/FN_011_g.png"",""time"":356.40000009536743},{""stimulus"":""blank"",""time"":662.0999999046326},{""stimulus"":""https://ziweizhang0304.github.io/Stats_learning_trig/img/Stim/FN_003_g.png"",""time"":688.4000000953674},{""stimulus"":""blank"",""time"":1003.4000000953674},{""stimulus"":""https://ziweizhang0304.github.io/Stats_learning_trig/img/Stim/FN_026_g.png"",""time"":1021.5},{""stimulus"":""blank"",""time"":1328.5999999046326},{""stimulus"":""https://ziweizhang0304.github.io/Stats_learning_trig/img/Stim/FN_010_g.png"",""time"":1362.9000000953674},{""stimulus"":""blank"",""time"":1665.6999998092651},{""stimulus"":""https://ziweizhang0304.github.io/Stats_learning_trig/img/Stim/FN_022_g.png"",""time"":1708.6999998092651},{""stimulus"":""blank"",""time"":2011.5},{""stimulus"":""https://ziweizhang0304.github.io/Stats_learning_trig/img/Stim/FN_016_g.png"",""time"":2042},{""stimulus"":""blank"",""time"":2348.5999999046326},{""stimulus"":""https://ziweizhang0304.github.io/Stats_learning_trig/img/Stim/FN_021_g.png"",""time"":2393.699999809265},{""stimulus"":""blank"",""time"":2698.2999997138977},{""stimulus"":""https://ziweizhang0304.github.io/Stats_learning_trig/img/Stim/FN_017_g.png"",""time"":2724.9000000953674},{""stimulus"":""blank"",""time"":3027.0999999046326},{""stimulus"":""https://ziweizhang0304.github.io/Stats_learning_trig/img/Stim/FN_015_g.png"",""time"":3070.7999997138977},{""stimulus"":""blank"",""time"":3377.699999809265},{""stimulus"":""https://ziweizhang0304.github.io/Stats_learning_trig/img/Stim/FN_006_g.png"",""time"":3403},{""stimulus"":""blank"",""time"":3710},{""stimulus"":""https://ziweizhang0304.github.io/Stats_learning_trig/img/Stim/FN_019_g.png"",""time"":3741.699999809265},{""stimulus"":""blank"",""time"":4055},{""stimulus"":""https://ziweizhang0304.github.io/Stats_learning_trig/img/Stim/FN_002_g.png"",""time"":4081.9000000953674},{""stimulus"":""blank"",""time"":4395.900000095367}]","[{""key_press"":32,""rt"":2748.5,""stimulus"":""https://ziweizhang0304.github.io/Stats_learning_trig/img/Stim/FN_017_g.png""}]","354.80000019073486","https://ziweizhang0304.github.io/Stats_learning_trig/img/Stim/FN_021_g.png","post_TD","20","2393.699999809265","2748.5","slow","7","2","5fb7398b7e9d5025e52c7e1d","","","","","",""
"","image-keyboard-response","53","314197","0.0-5.0-20.0-0.0","1390.3999996185303","","","https://ziweizhang0304.github.io/Stats_learning_trig/img/Stim/FN_020_g.png","13","","","","","","","","","","","","","","","","","",""
"","animation","54","318622","0.0-5.0-20.0-1.0","","","","","","[{""stimulus"":""https://ziweizhang0304.github.io/Stats_learning_trig/img/Stim/FN_026_g.png"",""time"":349.80000019073486},{""stimulus"":""blank"",""time"":655.5999999046326},{""stimulus"":""https://ziweizhang0304.github.io/Stats_learning_trig/img/Stim/FN_022_g.png"",""time"":683.0999999046326},{""stimulus"":""blank"",""time"":993.1999998092651},{""stimulus"":""https://ziweizhang0304.github.io/Stats_learning_trig/img/Stim/FN_011_g.png"",""time"":1027.5},{""stimulus"":""blank"",""time"":1336.5999999046326},{""stimulus"":""https://ziweizhang0304.github.io/Stats_learning_trig/img/Stim/FN_024_g.png"",""time"":1362.5},{""stimulus"":""blank"",""time"":1669.5999999046326},{""stimulus"":""https://ziweizhang0304.github.io/Stats_learning_trig/img/Stim/FN_020_g.png"",""time"":1704.5},{""stimulus"":""blank"",""time"":2006.9000000953674},{""stimulus"":""https://ziweizhang0304.github.io/Stats_learning_trig/img/Stim/FN_001_g.png"",""time"":2049.5999999046326},{""stimulus"":""blank"",""time"":2352.9000000953674},{""stimulus"":""https://ziweizhang0304.github.io/Stats_learning_trig/img/Stim/FN_015_g.png"",""time"":2383.5},{""stimulus"":""blank"",""time"":2686},{""stimulus"":""https://ziweizhang0304.github.io/Stats_learning_trig/img/Stim/FN_003_g.png"",""time"":2737.699999809265},{""stimulus"":""blank"",""time"":3052.5},{""stimulus"":""https://ziweizhang0304.github.io/Stats_learning_trig/img/Stim/FN_010_g.png"",""time"":3061.699999809265},{""stimulus"":""blank"",""time"":3369.699999809265},{""stimulus"":""https://ziweizhang0304.github.io/Stats_learning_trig/img/Stim/FN_006_g.png"",""time"":3403},{""stimulus"":""blank"",""time"":3718.300000190735},{""stimulus"":""https://ziweizhang0304.github.io/Stats_learning_trig/img/Stim/FN_019_g.png"",""time"":3743.5},{""stimulus"":""blank"",""time"":4052.9000000953674},{""stimulus"":""https://ziweizhang0304.github.io/Stats_learning_trig/img/Stim/FN_002_g.png"",""time"":4083.199999809265},{""stimulus"":""blank"",""time"":4390.099999904633}]","[{""key_press"":32,""rt"":1737.8000001907349,""stimulus"":""https://ziweizhang0304.github.io/Stats_learning_trig/img/Stim/FN_020_g.png""}]","33.30000019073486","https://ziweizhang0304.github.io/Stats_learning_trig/img/Stim/FN_020_g.png","post_TD","21","1704.5","1737.8000001907349","fast","5","2","5fb7398b7e9d5025e52c7e1d","","","","","",""
"","image-keyboard-response","55","320132","0.0-5.0-21.0-0.0","1496.2000002861023","","","https://ziweizhang0304.github.io/Stats_learning_trig/img/Stim/FN_017_g.png","13","","","","","","","","","","","","","","","","","",""
"","animation","56","324556","0.0-5.0-21.0-1.0","","","","","","[{""stimulus"":""https://ziweizhang0304.github.io/Stats_learning_trig/img/Stim/FN_026_g.png"",""time"":350.5},{""stimulus"":""blank"",""time"":651.5},{""stimulus"":""https://ziweizhang0304.github.io/Stats_learning_trig/img/Stim/FN_003_g.png"",""time"":698.8000001907349},{""stimulus"":""blank"",""time"":1002},{""stimulus"":""https://ziweizhang0304.github.io/Stats_learning_trig/img/Stim/FN_002_g.png"",""time"":1026.7000002861023},{""stimulus"":""blank"",""time"":1333},{""stimulus"":""https://ziweizhang0304.github.io/Stats_learning_trig/img/Stim/FN_015_g.png"",""time"":1363.4000000953674},{""stimulus"":""blank"",""time"":1681.1000003814697},{""stimulus"":""https://ziweizhang0304.github.io/Stats_learning_trig/img/Stim/FN_016_g.png"",""time"":1705.6000003814697},{""stimulus"":""blank"",""time"":2013},{""stimulus"":""https://ziweizhang0304.github.io/Stats_learning_trig/img/Stim/FN_021_g.png"",""time"":2045.4000000953674},{""stimulus"":""blank"",""time"":2352},{""stimulus"":""https://ziweizhang0304.github.io/Stats_learning_trig/img/Stim/FN_017_g.png"",""time"":2396.800000190735},{""stimulus"":""blank"",""time"":2705.7000002861023},{""stimulus"":""https://ziweizhang0304.github.io/Stats_learning_trig/img/Stim/FN_022_g.png"",""time"":2724},{""stimulus"":""blank"",""time"":3031.5},{""stimulus"":""https://ziweizhang0304.github.io/Stats_learning_trig/img/Stim/FN_011_g.png"",""time"":3063.1000003814697},{""stimulus"":""blank"",""time"":3370.300000190735},{""stimulus"":""https://ziweizhang0304.github.io/Stats_learning_trig/img/Stim/FN_010_g.png"",""time"":3402.1000003814697},{""stimulus"":""blank"",""time"":3715.2000002861023},{""stimulus"":""https://ziweizhang0304.github.io/Stats_learning_trig/img/Stim/FN_006_g.png"",""time"":3746.300000190735},{""stimulus"":""blank"",""time"":4053.5},{""stimulus"":""https://ziweizhang0304.github.io/Stats_learning_trig/img/Stim/FN_019_g.png"",""time"":4087.9000000953674},{""stimulus"":""blank"",""time"":4398}]","[{""key_press"":32,""rt"":2757.9000000953674,""stimulus"":""https://ziweizhang0304.github.io/Stats_learning_trig/img/Stim/FN_022_g.png""}]","361.09999990463257","https://ziweizhang0304.github.io/Stats_learning_trig/img/Stim/FN_017_g.png","post_TD","22","2396.800000190735","2757.9000000953674","slow","7","3","5fb7398b7e9d5025e52c7e1d","","","","","",""
"","image-keyboard-response","57","325711","0.0-5.0-22.0-0.0","1143.3999996185303","","","https://ziweizhang0304.github.io/Stats_learning_trig/img/Stim/FN_001_g.png","13","","","","","","","","","","","","","","","","","",""
"","animation","58","330140","0.0-5.0-22.0-1.0","","","","","","[{""stimulus"":""https://ziweizhang0304.github.io/Stats_learning_trig/img/Stim/FN_002_g.png"",""time"":354.40000009536743},{""stimulus"":""blank"",""time"":668.6999998092651},{""stimulus"":""https://ziweizhang0304.github.io/Stats_learning_trig/img/Stim/FN_019_g.png"",""time"":686},{""stimulus"":""blank"",""time"":1000.5},{""stimulus"":""https://ziweizhang0304.github.io/Stats_learning_trig/img/Stim/FN_011_g.png"",""time"":1024.6999998092651},{""stimulus"":""blank"",""time"":1334.1999998092651},{""stimulus"":""https://ziweizhang0304.github.io/Stats_learning_trig/img/Stim/FN_015_g.png"",""time"":1367.0999999046326},{""stimulus"":""blank"",""time"":1668.9000000953674},{""stimulus"":""https://ziweizhang0304.github.io/Stats_learning_trig/img/Stim/FN_024_g.png"",""time"":1702},{""stimulus"":""blank"",""time"":2003.0999999046326},{""stimulus"":""https://ziweizhang0304.github.io/Stats_learning_trig/img/Stim/FN_020_g.png"",""time"":2046.4000000953674},{""stimulus"":""blank"",""time"":2357},{""stimulus"":""https://ziweizhang0304.github.io/Stats_learning_trig/img/Stim/FN_001_g.png"",""time"":2383.699999809265},{""stimulus"":""blank"",""time"":2687.800000190735},{""stimulus"":""https://ziweizhang0304.github.io/Stats_learning_trig/img/Stim/FN_022_g.png"",""time"":2733.5999999046326},{""stimulus"":""blank"",""time"":3036.300000190735},{""stimulus"":""https://ziweizhang0304.github.io/Stats_learning_trig/img/Stim/FN_003_g.png"",""time"":3063.4000000953674},{""stimulus"":""blank"",""time"":3369.9000000953674},{""stimulus"":""https://ziweizhang0304.github.io/Stats_learning_trig/img/Stim/FN_010_g.png"",""time"":3405.0999999046326},{""stimulus"":""blank"",""time"":3712.800000190735},{""stimulus"":""https://ziweizhang0304.github.io/Stats_learning_trig/img/Stim/FN_006_g.png"",""time"":3749.4000000953674},{""stimulus"":""blank"",""time"":4061.0999999046326},{""stimulus"":""https://ziweizhang0304.github.io/Stats_learning_trig/img/Stim/FN_026_g.png"",""time"":4087},{""stimulus"":""blank"",""time"":4403}]","[{""key_press"":32,""rt"":2762.2999997138977,""stimulus"":""https://ziweizhang0304.github.io/Stats_learning_trig/img/Stim/FN_022_g.png""}]","378.59999990463257","https://ziweizhang0304.github.io/Stats_learning_trig/img/Stim/FN_001_g.png","post_TD","23","2383.699999809265","2762.2999997138977","fast","7","3","5fb7398b7e9d5025e52c7e1d","","","","","",""
"","image-keyboard-response","59","332429","0.0-5.0-23.0-0.0","2275.5","","","https://ziweizhang0304.github.io/Stats_learning_trig/img/Stim/FN_021_g.png","13","","","","","","","","","","","","","","","","","",""
"","animation","60","336854","0.0-5.0-23.0-1.0","","","","","","[{""stimulus"":""https://ziweizhang0304.github.io/Stats_learning_trig/img/Stim/FN_026_g.png"",""time"":356.2999997138977},{""stimulus"":""blank"",""time"":660.1999998092651},{""stimulus"":""https://ziweizhang0304.github.io/Stats_learning_trig/img/Stim/FN_003_g.png"",""time"":684.5999999046326},{""stimulus"":""blank"",""time"":991.5999999046326},{""stimulus"":""https://ziweizhang0304.github.io/Stats_learning_trig/img/Stim/FN_002_g.png"",""time"":1026},{""stimulus"":""blank"",""time"":1326.9000000953674},{""stimulus"":""https://ziweizhang0304.github.io/Stats_learning_trig/img/Stim/FN_015_g.png"",""time"":1370.6999998092651},{""stimulus"":""blank"",""time"":1682.5},{""stimulus"":""https://ziweizhang0304.github.io/Stats_learning_trig/img/Stim/FN_016_g.png"",""time"":1707.9000000953674},{""stimulus"":""blank"",""time"":2016.0999999046326},{""stimulus"":""https://ziweizhang0304.github.io/Stats_learning_trig/img/Stim/FN_021_g.png"",""time"":2041.5},{""stimulus"":""blank"",""time"":2349},{""stimulus"":""https://ziweizhang0304.github.io/Stats_learning_trig/img/Stim/FN_017_g.png"",""time"":2383.0999999046326},{""stimulus"":""blank"",""time"":2686.5},{""stimulus"":""https://ziweizhang0304.github.io/Stats_learning_trig/img/Stim/FN_022_g.png"",""time"":2729.199999809265},{""stimulus"":""blank"",""time"":3033.7999997138977},{""stimulus"":""https://ziweizhang0304.github.io/Stats_learning_trig/img/Stim/FN_011_g.png"",""time"":3063.5999999046326},{""stimulus"":""blank"",""time"":3371.7999997138977},{""stimulus"":""https://ziweizhang0304.github.io/Stats_learning_trig/img/Stim/FN_010_g.png"",""time"":3413.2999997138977},{""stimulus"":""blank"",""time"":3721},{""stimulus"":""https://ziweizhang0304.github.io/Stats_learning_trig/img/Stim/FN_006_g.png"",""time"":3746.5999999046326},{""stimulus"":""blank"",""time"":4053.7999997138977},{""stimulus"":""https://ziweizhang0304.github.io/Stats_learning_trig/img/Stim/FN_019_g.png"",""time"":4087.5},{""stimulus"":""blank"",""time"":4390}]","[{""key_press"":32,""rt"":2385.9000000953674,""stimulus"":""https://ziweizhang0304.github.io/Stats_learning_trig/img/Stim/FN_017_g.png""}]","344.40000009536743","https://ziweizhang0304.github.io/Stats_learning_trig/img/Stim/FN_021_g.png","post_TD","24","2041.5","2385.9000000953674","slow","6","2","5fb7398b7e9d5025e52c7e1d","11341","","","","",""
"","survey-text","61","395826","0.0-6.0","58912.7999997139","","","","","","","","","","","","","","","","","","{""Q0"":""I gave shapes a name to remember them, like one looked like 'splat' so I said it over and over in my mind till I hit spacebar.""}","","","",""
"","survey-text","62","405168","0.0-7.0","9311.299999713898","","","","","","","","","","","","","","","","","","{""[object Object]"":""no""}","","","",""
"","instructions","63","761595","0.0-8.0","356411.30000019073","","[{""page_index"":0,""viewing_time"":356410.10000038147}]","","","","","","","","","","","","","","","","","","","",""
"","free-sort","64","810114","0.0-9.0","48509.300000190735","","","","","","","","","post_drag","","","","fast","","","","","","[{""src"":""https://ziweizhang0304.github.io/Stats_learning_trig/img/Stim/FN_001_g.png"",""x"":475,""y"":0},{""src"":""https://ziweizhang0304.github.io/Stats_learning_trig/img/Stim/FN_020_g.png"",""x"":-225,""y"":50},{""src"":""https://ziweizhang0304.github.io/Stats_learning_trig/img/Stim/FN_024_g.png"",""x"":475,""y"":50}]","[{""src"":""https://ziweizhang0304.github.io/Stats_learning_trig/img/Stim/FN_024_g.png"",""x"":23,""y"":42},{""src"":""https://ziweizhang0304.github.io/Stats_learning_trig/img/Stim/FN_020_g.png"",""x"":-12,""y"":-2},{""src"":""https://ziweizhang0304.github.io/Stats_learning_trig/img/Stim/FN_024_g.png"",""x"":143,""y"":17},{""src"":""https://ziweizhang0304.github.io/Stats_learning_trig/img/Stim/FN_020_g.png"",""x"":41,""y"":24},{""src"":""https://ziweizhang0304.github.io/Stats_learning_trig/img/Stim/FN_001_g.png"",""x"":224,""y"":25}]","[{""src"":""https://ziweizhang0304.github.io/Stats_learning_trig/img/Stim/FN_001_g.png"",""x"":224,""y"":25},{""src"":""https://ziweizhang0304.github.io/Stats_learning_trig/img/Stim/FN_020_g.png"",""x"":41,""y"":24},{""src"":""https://ziweizhang0304.github.io/Stats_learning_trig/img/Stim/FN_024_g.png"",""x"":143,""y"":17}]",""
"","free-sort","65","823681","0.0-10.0","13563.599999904633","","","","","","","","","post_drag","","","","slow","","","","","","[{""src"":""https://ziweizhang0304.github.io/Stats_learning_trig/img/Stim/FN_017_g.png"",""x"":475,""y"":0},{""src"":""https://ziweizhang0304.github.io/Stats_learning_trig/img/Stim/FN_016_g.png"",""x"":-225,""y"":50},{""src"":""https://ziweizhang0304.github.io/Stats_learning_trig/img/Stim/FN_021_g.png"",""x"":475,""y"":50}]","[{""src"":""https://ziweizhang0304.github.io/Stats_learning_trig/img/Stim/FN_017_g.png"",""x"":59,""y"":34},{""src"":""https://ziweizhang0304.github.io/Stats_learning_trig/img/Stim/FN_016_g.png"",""x"":149,""y"":46},{""src"":""https://ziweizhang0304.github.io/Stats_learning_trig/img/Stim/FN_021_g.png"",""x"":252,""y"":22}]","[{""src"":""https://ziweizhang0304.github.io/Stats_learning_trig/img/Stim/FN_017_g.png"",""x"":59,""y"":34},{""src"":""https://ziweizhang0304.github.io/Stats_learning_trig/img/Stim/FN_016_g.png"",""x"":149,""y"":46},{""src"":""https://ziweizhang0304.github.io/Stats_learning_trig/img/Stim/FN_021_g.png"",""x"":252,""y"":22}]",""
"","survey-multi-choice","66","837318","0.0-11.0","13611.599999904633","","","","","","","","","","","","","","","","5fb7398b7e9d5025e52c7e1d","","{""awareness"":""No"",""attention_check"":""Press SPACEBAR to a target""}","","","","[0,1]"
