"success","trial_type","trial_index","time_elapsed","internal_node_id","rt","url","view_history","stimulus","key_press","animation_sequence","response","TD_rt","TD_target","test_part","TD_trial_number","onset","offset","attention_state","TD_target_position","TD_within_triplet_counter","participant","yoke_participant","responses","init_locations","moves","final_locations","question_order"
"true","fullscreen","0","15274","0.0-0.0","","","","","","","","","","","","","","","","","","","","","","",""
"","external-html","1","21743","0.0-1.0","6291","https://ziweizhang0304.github.io/Stats_learning_trig/content/consent.html","","","","","","","","","","","","","","","","","","","","",""
"","instructions","2","100155","0.0-2.0","78409.30000001192","","[{""page_index"":0,""viewing_time"":1751.1000000238419},{""page_index"":1,""viewing_time"":13970.599999964237},{""page_index"":2,""viewing_time"":60450},{""page_index"":3,""viewing_time"":2236.300000011921}]","","","","","","","","","","","","","","","","","","","",""
"","image-keyboard-response","3","107086","0.0-3.0-0.0-0.0","6929.399999976158","","","https://ziweizhang0304.github.io/Stats_learning_trig/img/Stim/FN_014_g.png","13","","","","","","","","","","","","","","","","","",""
"","animation","4","111509","0.0-3.0-0.0-1.0","","","","","","[{""stimulus"":""https://ziweizhang0304.github.io/Stats_learning_trig/img/Stim/FN_007_g.png"",""time"":355.60000002384186},{""stimulus"":""blank"",""time"":669.9000000357628},{""stimulus"":""https://ziweizhang0304.github.io/Stats_learning_trig/img/Stim/FN_001_g.png"",""time"":685},{""stimulus"":""blank"",""time"":994.4000000357628},{""stimulus"":""https://ziweizhang0304.github.io/Stats_learning_trig/img/Stim/FN_013_g.png"",""time"":1025.800000011921},{""stimulus"":""blank"",""time"":1336.300000011921},{""stimulus"":""https://ziweizhang0304.github.io/Stats_learning_trig/img/Stim/FN_018_g.png"",""time"":1366.6000000238419},{""stimulus"":""blank"",""time"":1674.2000000476837},{""stimulus"":""https://ziweizhang0304.github.io/Stats_learning_trig/img/Stim/FN_014_g.png"",""time"":1705},{""stimulus"":""blank"",""time"":2017.300000011921},{""stimulus"":""https://ziweizhang0304.github.io/Stats_learning_trig/img/Stim/FN_025_g.png"",""time"":2041.300000011921},{""stimulus"":""blank"",""time"":2343.100000023842},{""stimulus"":""https://ziweizhang0304.github.io/Stats_learning_trig/img/Stim/FN_005_g.png"",""time"":2382},{""stimulus"":""blank"",""time"":2683.900000035763},{""stimulus"":""https://ziweizhang0304.github.io/Stats_learning_trig/img/Stim/FN_010_g.png"",""time"":2730.2000000476837},{""stimulus"":""blank"",""time"":3039.100000023842},{""stimulus"":""https://ziweizhang0304.github.io/Stats_learning_trig/img/Stim/FN_016_g.png"",""time"":3069.900000035763},{""stimulus"":""blank"",""time"":3380.900000035763},{""stimulus"":""https://ziweizhang0304.github.io/Stats_learning_trig/img/Stim/FN_021_g.png"",""time"":3407.7000000476837},{""stimulus"":""blank"",""time"":3723.2000000476837},{""stimulus"":""https://ziweizhang0304.github.io/Stats_learning_trig/img/Stim/FN_020_g.png"",""time"":3755.7000000476837},{""stimulus"":""blank"",""time"":4064.5},{""stimulus"":""https://ziweizhang0304.github.io/Stats_learning_trig/img/Stim/FN_022_g.png"",""time"":4082.100000023842},{""stimulus"":""blank"",""time"":4392.600000023842}]","[{""key_press"":32,""rt"":2067.300000011921,""stimulus"":""https://ziweizhang0304.github.io/Stats_learning_trig/img/Stim/FN_025_g.png""}]","362.30000001192093","https://ziweizhang0304.github.io/Stats_learning_trig/img/Stim/FN_014_g.png","post_prac","","","","","","","","","","","","",""
"","html-keyboard-response","5","116809","0.0-3.0-0.0-2.0","5293.800000011921","","","<p>Your reaction time for this trial was 362.3 ms.</p><p>Remember that you should only press the SPACEBAR when you see the shape presented at the beginning of the trial. </b> </p><p>Press enter to move on.</p>","13","","","","","","","","","","","","","","","","","",""
"","image-keyboard-response","6","118757","0.0-3.0-1.0-0.0","1948.1000000238419","","","https://ziweizhang0304.github.io/Stats_learning_trig/img/Stim/FN_006_g.png","13","","","","","","","","","","","","","","","","","",""
"","animation","7","123179","0.0-3.0-1.0-1.0","","","","","","[{""stimulus"":""https://ziweizhang0304.github.io/Stats_learning_trig/img/Stim/FN_005_g.png"",""time"":343.4000000357628},{""stimulus"":""blank"",""time"":651.1000000238419},{""stimulus"":""https://ziweizhang0304.github.io/Stats_learning_trig/img/Stim/FN_025_g.png"",""time"":681.3000000119209},{""stimulus"":""blank"",""time"":989.4000000357628},{""stimulus"":""https://ziweizhang0304.github.io/Stats_learning_trig/img/Stim/FN_022_g.png"",""time"":1021.6000000238419},{""stimulus"":""blank"",""time"":1333},{""stimulus"":""https://ziweizhang0304.github.io/Stats_learning_trig/img/Stim/FN_007_g.png"",""time"":1361.300000011921},{""stimulus"":""blank"",""time"":1672.9000000357628},{""stimulus"":""https://ziweizhang0304.github.io/Stats_learning_trig/img/Stim/FN_015_g.png"",""time"":1704.300000011921},{""stimulus"":""blank"",""time"":2012.5},{""stimulus"":""https://ziweizhang0304.github.io/Stats_learning_trig/img/Stim/FN_026_g.png"",""time"":2042.6000000238419},{""stimulus"":""blank"",""time"":2353.100000023842},{""stimulus"":""https://ziweizhang0304.github.io/Stats_learning_trig/img/Stim/FN_006_g.png"",""time"":2380.800000011921},{""stimulus"":""blank"",""time"":2695.300000011921},{""stimulus"":""https://ziweizhang0304.github.io/Stats_learning_trig/img/Stim/FN_016_g.png"",""time"":2725.300000011921},{""stimulus"":""blank"",""time"":3037.800000011921},{""stimulus"":""https://ziweizhang0304.github.io/Stats_learning_trig/img/Stim/FN_018_g.png"",""time"":3061.100000023842},{""stimulus"":""blank"",""time"":3361.900000035763},{""stimulus"":""https://ziweizhang0304.github.io/Stats_learning_trig/img/Stim/FN_021_g.png"",""time"":3409.300000011921},{""stimulus"":""blank"",""time"":3720.400000035763},{""stimulus"":""https://ziweizhang0304.github.io/Stats_learning_trig/img/Stim/FN_020_g.png"",""time"":3752.300000011921},{""stimulus"":""blank"",""time"":4062.600000023842},{""stimulus"":""https://ziweizhang0304.github.io/Stats_learning_trig/img/Stim/FN_013_g.png"",""time"":4090.699999988079},{""stimulus"":""blank"",""time"":4404.900000035763}]","[{""key_press"":32,""rt"":2703.599999964237,""stimulus"":""blank""}]","322.7999999523163","https://ziweizhang0304.github.io/Stats_learning_trig/img/Stim/FN_006_g.png","post_prac","","","","","","","","","","","","",""
"","html-keyboard-response","8","127399","0.0-3.0-1.0-2.0","4217.800000011921","","","<p>Your reaction time for this trial was 322.8 ms.</p><p>Remember that you should only press the SPACEBAR when you see the shape presented at the beginning of the trial. </b> </p><p>Press enter to move on.</p>","13","","","","","","","","","","","","","","","","","",""
"","image-keyboard-response","9","128971","0.0-3.0-2.0-0.0","1571","","","https://ziweizhang0304.github.io/Stats_learning_trig/img/Stim/FN_001_g.png","13","","","","","","","","","","","","","","","","","",""
"","animation","10","133393","0.0-3.0-2.0-1.0","","","","","","[{""stimulus"":""https://ziweizhang0304.github.io/Stats_learning_trig/img/Stim/FN_018_g.png"",""time"":350.5},{""stimulus"":""blank"",""time"":655.8000000119209},{""stimulus"":""https://ziweizhang0304.github.io/Stats_learning_trig/img/Stim/FN_013_g.png"",""time"":687.1999999880791},{""stimulus"":""blank"",""time"":998.3000000119209},{""stimulus"":""https://ziweizhang0304.github.io/Stats_learning_trig/img/Stim/FN_020_g.png"",""time"":1021.1000000238419},{""stimulus"":""blank"",""time"":1322.8999999761581},{""stimulus"":""https://ziweizhang0304.github.io/Stats_learning_trig/img/Stim/FN_014_g.png"",""time"":1360.699999988079},{""stimulus"":""blank"",""time"":1665.300000011921},{""stimulus"":""https://ziweizhang0304.github.io/Stats_learning_trig/img/Stim/FN_001_g.png"",""time"":1703.6000000238419},{""stimulus"":""blank"",""time"":2006.5},{""stimulus"":""https://ziweizhang0304.github.io/Stats_learning_trig/img/Stim/FN_010_g.png"",""time"":2052.800000011921},{""stimulus"":""blank"",""time"":2364.199999988079},{""stimulus"":""https://ziweizhang0304.github.io/Stats_learning_trig/img/Stim/FN_016_g.png"",""time"":2395.699999988079},{""stimulus"":""blank"",""time"":2706},{""stimulus"":""https://ziweizhang0304.github.io/Stats_learning_trig/img/Stim/FN_005_g.png"",""time"":2722},{""stimulus"":""blank"",""time"":3028.600000023842},{""stimulus"":""https://ziweizhang0304.github.io/Stats_learning_trig/img/Stim/FN_021_g.png"",""time"":3061.399999976158},{""stimulus"":""blank"",""time"":3365.600000023842},{""stimulus"":""https://ziweizhang0304.github.io/Stats_learning_trig/img/Stim/FN_025_g.png"",""time"":3400.600000023842},{""stimulus"":""blank"",""time"":3706.5},{""stimulus"":""https://ziweizhang0304.github.io/Stats_learning_trig/img/Stim/FN_007_g.png"",""time"":3741.300000011921},{""stimulus"":""blank"",""time"":4045.199999988079},{""stimulus"":""https://ziweizhang0304.github.io/Stats_learning_trig/img/Stim/FN_022_g.png"",""time"":4084.899999976158},{""stimulus"":""blank"",""time"":4385}]","[{""key_press"":32,""rt"":2053.100000023842,""stimulus"":""https://ziweizhang0304.github.io/Stats_learning_trig/img/Stim/FN_010_g.png""}]","349.5","https://ziweizhang0304.github.io/Stats_learning_trig/img/Stim/FN_001_g.png","post_prac","","","","","","","","","","","","",""
"","html-keyboard-response","11","134941","0.0-3.0-2.0-2.0","1546.6000000238419","","","<p>Your reaction time for this trial was 349.5 ms.</p><p>Remember that you should only press the SPACEBAR when you see the shape presented at the beginning of the trial. </b> </p><p>Press enter to move on.</p>","13","","","","","","","","","","","","","","","","","",""
"","instructions","12","136693","0.0-4.0","1751.5","","[{""page_index"":0,""viewing_time"":1751.2999999523163}]","","","","","","","","","","","","","","","","","","","",""
"","image-keyboard-response","13","138645","0.0-5.0-0.0-0.0","1950.6000000238419","","","https://ziweizhang0304.github.io/Stats_learning_trig/img/Stim/FN_015_g.png","13","","","","","","","","","","","","","","","","","",""
"","animation","14","143079","0.0-5.0-0.0-1.0","","","","","","[{""stimulus"":""https://ziweizhang0304.github.io/Stats_learning_trig/img/Stim/FN_013_g.png"",""time"":351.5},{""stimulus"":""blank"",""time"":665.4000000357628},{""stimulus"":""https://ziweizhang0304.github.io/Stats_learning_trig/img/Stim/FN_016_g.png"",""time"":682.3000000119209},{""stimulus"":""blank"",""time"":988.6000000238419},{""stimulus"":""https://ziweizhang0304.github.io/Stats_learning_trig/img/Stim/FN_007_g.png"",""time"":1021.3000000119209},{""stimulus"":""blank"",""time"":1328.7000000476837},{""stimulus"":""https://ziweizhang0304.github.io/Stats_learning_trig/img/Stim/FN_005_g.png"",""time"":1362},{""stimulus"":""blank"",""time"":1670.7000000476837},{""stimulus"":""https://ziweizhang0304.github.io/Stats_learning_trig/img/Stim/FN_018_g.png"",""time"":1702.300000011921},{""stimulus"":""blank"",""time"":2013.7000000476837},{""stimulus"":""https://ziweizhang0304.github.io/Stats_learning_trig/img/Stim/FN_015_g.png"",""time"":2045},{""stimulus"":""blank"",""time"":2351.100000023842},{""stimulus"":""https://ziweizhang0304.github.io/Stats_learning_trig/img/Stim/FN_026_g.png"",""time"":2381.400000035763},{""stimulus"":""blank"",""time"":2690.900000035763},{""stimulus"":""https://ziweizhang0304.github.io/Stats_learning_trig/img/Stim/FN_006_g.png"",""time"":2722.600000023842},{""stimulus"":""blank"",""time"":3031.2000000476837},{""stimulus"":""https://ziweizhang0304.github.io/Stats_learning_trig/img/Stim/FN_021_g.png"",""time"":3063},{""stimulus"":""blank"",""time"":3369.600000023842},{""stimulus"":""https://ziweizhang0304.github.io/Stats_learning_trig/img/Stim/FN_020_g.png"",""time"":3401.600000023842},{""stimulus"":""blank"",""time"":3710.100000023842},{""stimulus"":""https://ziweizhang0304.github.io/Stats_learning_trig/img/Stim/FN_025_g.png"",""time"":3740.7000000476837},{""stimulus"":""blank"",""time"":4048.600000023842},{""stimulus"":""https://ziweizhang0304.github.io/Stats_learning_trig/img/Stim/FN_022_g.png"",""time"":4080.800000011921},{""stimulus"":""blank"",""time"":4387.5}]","[{""key_press"":32,""rt"":1361,""stimulus"":""blank""},{""key_press"":32,""rt"":2379.5,""stimulus"":""blank""}]","334.5","https://ziweizhang0304.github.io/Stats_learning_trig/img/Stim/FN_015_g.png","post_TD","1","2045","2379.5","fast","6","1","5dcefcd0307b8d05031d7264","","","","","",""
"","image-keyboard-response","15","146626","0.0-5.0-1.0-0.0","3545.399999976158","","","https://ziweizhang0304.github.io/Stats_learning_trig/img/Stim/FN_026_g.png","13","","","","","","","","","","","","","","","","","",""
"","animation","16","151056","0.0-5.0-1.0-1.0","","","","","","[{""stimulus"":""https://ziweizhang0304.github.io/Stats_learning_trig/img/Stim/FN_013_g.png"",""time"":350.4000000357628},{""stimulus"":""blank"",""time"":657.6000000238419},{""stimulus"":""https://ziweizhang0304.github.io/Stats_learning_trig/img/Stim/FN_016_g.png"",""time"":683.2000000476837},{""stimulus"":""blank"",""time"":987.1000000238419},{""stimulus"":""https://ziweizhang0304.github.io/Stats_learning_trig/img/Stim/FN_007_g.png"",""time"":1021},{""stimulus"":""blank"",""time"":1323.4000000357628},{""stimulus"":""https://ziweizhang0304.github.io/Stats_learning_trig/img/Stim/FN_005_g.png"",""time"":1370},{""stimulus"":""blank"",""time"":1676.800000011921},{""stimulus"":""https://ziweizhang0304.github.io/Stats_learning_trig/img/Stim/FN_018_g.png"",""time"":1706.5},{""stimulus"":""blank"",""time"":2014.7000000476837},{""stimulus"":""https://ziweizhang0304.github.io/Stats_learning_trig/img/Stim/FN_015_g.png"",""time"":2046.800000011921},{""stimulus"":""blank"",""time"":2357.600000023842},{""stimulus"":""https://ziweizhang0304.github.io/Stats_learning_trig/img/Stim/FN_026_g.png"",""time"":2382},{""stimulus"":""blank"",""time"":2694.5},{""stimulus"":""https://ziweizhang0304.github.io/Stats_learning_trig/img/Stim/FN_006_g.png"",""time"":2725.900000035763},{""stimulus"":""blank"",""time"":3034.100000023842},{""stimulus"":""https://ziweizhang0304.github.io/Stats_learning_trig/img/Stim/FN_021_g.png"",""time"":3064.300000011921},{""stimulus"":""blank"",""time"":3373.400000035763},{""stimulus"":""https://ziweizhang0304.github.io/Stats_learning_trig/img/Stim/FN_020_g.png"",""time"":3401.7000000476837},{""stimulus"":""blank"",""time"":3715.7000000476837},{""stimulus"":""https://ziweizhang0304.github.io/Stats_learning_trig/img/Stim/FN_025_g.png"",""time"":3740.5},{""stimulus"":""blank"",""time"":4041.100000023842},{""stimulus"":""https://ziweizhang0304.github.io/Stats_learning_trig/img/Stim/FN_022_g.png"",""time"":4087.100000023842},{""stimulus"":""blank"",""time"":4401.5}]","[{""key_press"":32,""rt"":2717.699999988079,""stimulus"":""blank""}]","335.69999998807907","https://ziweizhang0304.github.io/Stats_learning_trig/img/Stim/FN_026_g.png","post_TD","2","2382","2717.699999988079","fast","7","2","5dcefcd0307b8d05031d7264","","","","","",""
"","image-keyboard-response","17","152541","0.0-5.0-2.0-0.0","1482.9000000357628","","","https://ziweizhang0304.github.io/Stats_learning_trig/img/Stim/FN_026_g.png","13","","","","","","","","","","","","","","","","","",""
"","animation","18","156972","0.0-5.0-2.0-1.0","","","","","","[{""stimulus"":""https://ziweizhang0304.github.io/Stats_learning_trig/img/Stim/FN_005_g.png"",""time"":351.7999999523163},{""stimulus"":""blank"",""time"":661.7999999523163},{""stimulus"":""https://ziweizhang0304.github.io/Stats_learning_trig/img/Stim/FN_025_g.png"",""time"":693},{""stimulus"":""blank"",""time"":1006.6999999880791},{""stimulus"":""https://ziweizhang0304.github.io/Stats_learning_trig/img/Stim/FN_022_g.png"",""time"":1023.2999999523163},{""stimulus"":""blank"",""time"":1334.7999999523163},{""stimulus"":""https://ziweizhang0304.github.io/Stats_learning_trig/img/Stim/FN_007_g.png"",""time"":1362.5},{""stimulus"":""blank"",""time"":1674.699999988079},{""stimulus"":""https://ziweizhang0304.github.io/Stats_learning_trig/img/Stim/FN_015_g.png"",""time"":1706.699999988079},{""stimulus"":""blank"",""time"":2017},{""stimulus"":""https://ziweizhang0304.github.io/Stats_learning_trig/img/Stim/FN_026_g.png"",""time"":2045.199999988079},{""stimulus"":""blank"",""time"":2360.699999988079},{""stimulus"":""https://ziweizhang0304.github.io/Stats_learning_trig/img/Stim/FN_006_g.png"",""time"":2392.599999964237},{""stimulus"":""blank"",""time"":2705.399999976158},{""stimulus"":""https://ziweizhang0304.github.io/Stats_learning_trig/img/Stim/FN_016_g.png"",""time"":2722},{""stimulus"":""blank"",""time"":3031.7999999523163},{""stimulus"":""https://ziweizhang0304.github.io/Stats_learning_trig/img/Stim/FN_018_g.png"",""time"":3060.7999999523163},{""stimulus"":""blank"",""time"":3376.5},{""stimulus"":""https://ziweizhang0304.github.io/Stats_learning_trig/img/Stim/FN_021_g.png"",""time"":3408.2999999523163},{""stimulus"":""blank"",""time"":3720.599999964237},{""stimulus"":""https://ziweizhang0304.github.io/Stats_learning_trig/img/Stim/FN_020_g.png"",""time"":3743.399999976158},{""stimulus"":""blank"",""time"":4046.199999988079},{""stimulus"":""https://ziweizhang0304.github.io/Stats_learning_trig/img/Stim/FN_013_g.png"",""time"":4081.199999988079},{""stimulus"":""blank"",""time"":4384.5}]","[{""key_press"":32,""rt"":2376.2999999523163,""stimulus"":""blank""}]","331.0999999642372","https://ziweizhang0304.github.io/Stats_learning_trig/img/Stim/FN_026_g.png","post_TD","3","2045.199999988079","2376.2999999523163","fast","6","2","5dcefcd0307b8d05031d7264","","","","","",""
"","image-keyboard-response","19","159542","0.0-5.0-3.0-0.0","2569.099999964237","","","https://ziweizhang0304.github.io/Stats_learning_trig/img/Stim/FN_014_g.png","13","","","","","","","","","","","","","","","","","",""
"","animation","20","163964","0.0-5.0-3.0-1.0","","","","","","[{""stimulus"":""https://ziweizhang0304.github.io/Stats_learning_trig/img/Stim/FN_021_g.png"",""time"":342.0999999642372},{""stimulus"":""blank"",""time"":650.5},{""stimulus"":""https://ziweizhang0304.github.io/Stats_learning_trig/img/Stim/FN_020_g.png"",""time"":681.3999999761581},{""stimulus"":""blank"",""time"":993.2999999523163},{""stimulus"":""https://ziweizhang0304.github.io/Stats_learning_trig/img/Stim/FN_022_g.png"",""time"":1021.3999999761581},{""stimulus"":""blank"",""time"":1332.199999988079},{""stimulus"":""https://ziweizhang0304.github.io/Stats_learning_trig/img/Stim/FN_018_g.png"",""time"":1361},{""stimulus"":""blank"",""time"":1671.0999999642372},{""stimulus"":""https://ziweizhang0304.github.io/Stats_learning_trig/img/Stim/FN_016_g.png"",""time"":1702.2999999523163},{""stimulus"":""blank"",""time"":2013.2999999523163},{""stimulus"":""https://ziweizhang0304.github.io/Stats_learning_trig/img/Stim/FN_014_g.png"",""time"":2041.3999999761581},{""stimulus"":""blank"",""time"":2355.699999988079},{""stimulus"":""https://ziweizhang0304.github.io/Stats_learning_trig/img/Stim/FN_001_g.png"",""time"":2380.7999999523163},{""stimulus"":""blank"",""time"":2684.2999999523163},{""stimulus"":""https://ziweizhang0304.github.io/Stats_learning_trig/img/Stim/FN_010_g.png"",""time"":2730.899999976158},{""stimulus"":""blank"",""time"":3038.099999964237},{""stimulus"":""https://ziweizhang0304.github.io/Stats_learning_trig/img/Stim/FN_005_g.png"",""time"":3069.199999988079},{""stimulus"":""blank"",""time"":3381.399999976158},{""stimulus"":""https://ziweizhang0304.github.io/Stats_learning_trig/img/Stim/FN_025_g.png"",""time"":3413.7999999523163},{""stimulus"":""blank"",""time"":3725},{""stimulus"":""https://ziweizhang0304.github.io/Stats_learning_trig/img/Stim/FN_007_g.png"",""time"":3741.2999999523163},{""stimulus"":""blank"",""time"":4053.399999976158},{""stimulus"":""https://ziweizhang0304.github.io/Stats_learning_trig/img/Stim/FN_013_g.png"",""time"":4081.5},{""stimulus"":""blank"",""time"":4397.399999976158}]","[{""key_press"":32,""rt"":2355.099999964237,""stimulus"":""https://ziweizhang0304.github.io/Stats_learning_trig/img/Stim/FN_014_g.png""}]","313.69999998807907","https://ziweizhang0304.github.io/Stats_learning_trig/img/Stim/FN_014_g.png","post_TD","4","2041.3999999761581","2355.099999964237","slow","6","1","5dcefcd0307b8d05031d7264","","","","","",""
"","image-keyboard-response","21","164804","0.0-5.0-4.0-0.0","837.5","","","https://ziweizhang0304.github.io/Stats_learning_trig/img/Stim/FN_010_g.png","13","","","","","","","","","","","","","","","","","",""
"","animation","22","169226","0.0-5.0-4.0-1.0","","","","","","[{""stimulus"":""https://ziweizhang0304.github.io/Stats_learning_trig/img/Stim/FN_007_g.png"",""time"":352.10000002384186},{""stimulus"":""blank"",""time"":665.4000000357628},{""stimulus"":""https://ziweizhang0304.github.io/Stats_learning_trig/img/Stim/FN_005_g.png"",""time"":681.6999999880791},{""stimulus"":""blank"",""time"":991.4000000357628},{""stimulus"":""https://ziweizhang0304.github.io/Stats_learning_trig/img/Stim/FN_020_g.png"",""time"":1021},{""stimulus"":""blank"",""time"":1335.699999988079},{""stimulus"":""https://ziweizhang0304.github.io/Stats_learning_trig/img/Stim/FN_025_g.png"",""time"":1367.199999988079},{""stimulus"":""blank"",""time"":1678.6000000238419},{""stimulus"":""https://ziweizhang0304.github.io/Stats_learning_trig/img/Stim/FN_014_g.png"",""time"":1703.6000000238419},{""stimulus"":""blank"",""time"":2005.5},{""stimulus"":""https://ziweizhang0304.github.io/Stats_learning_trig/img/Stim/FN_001_g.png"",""time"":2041.800000011921},{""stimulus"":""blank"",""time"":2351.100000023842},{""stimulus"":""https://ziweizhang0304.github.io/Stats_learning_trig/img/Stim/FN_010_g.png"",""time"":2381.300000011921},{""stimulus"":""blank"",""time"":2697.199999988079},{""stimulus"":""https://ziweizhang0304.github.io/Stats_learning_trig/img/Stim/FN_016_g.png"",""time"":2720.900000035763},{""stimulus"":""blank"",""time"":3024.300000011921},{""stimulus"":""https://ziweizhang0304.github.io/Stats_learning_trig/img/Stim/FN_018_g.png"",""time"":3071.699999988079},{""stimulus"":""blank"",""time"":3383.699999988079},{""stimulus"":""https://ziweizhang0304.github.io/Stats_learning_trig/img/Stim/FN_021_g.png"",""time"":3415.400000035763},{""stimulus"":""blank"",""time"":3728.600000023842},{""stimulus"":""https://ziweizhang0304.github.io/Stats_learning_trig/img/Stim/FN_022_g.png"",""time"":3744.600000023842},{""stimulus"":""blank"",""time"":4054.199999988079},{""stimulus"":""https://ziweizhang0304.github.io/Stats_learning_trig/img/Stim/FN_013_g.png"",""time"":4084},{""stimulus"":""blank"",""time"":4394.100000023842}]","[{""key_press"":32,""rt"":2744.199999988079,""stimulus"":""https://ziweizhang0304.github.io/Stats_learning_trig/img/Stim/FN_016_g.png""}]","362.89999997615814","https://ziweizhang0304.github.io/Stats_learning_trig/img/Stim/FN_010_g.png","post_TD","5","2381.300000011921","2744.199999988079","slow","7","3","5dcefcd0307b8d05031d7264","","","","","",""
"","image-keyboard-response","23","169933","0.0-5.0-5.0-0.0","705.4000000357628","","","https://ziweizhang0304.github.io/Stats_learning_trig/img/Stim/FN_001_g.png","13","","","","","","","","","","","","","","","","","",""
"","animation","24","174363","0.0-5.0-5.0-1.0","","","","","","[{""stimulus"":""https://ziweizhang0304.github.io/Stats_learning_trig/img/Stim/FN_018_g.png"",""time"":343.10000002384186},{""stimulus"":""blank"",""time"":654.6000000238419},{""stimulus"":""https://ziweizhang0304.github.io/Stats_learning_trig/img/Stim/FN_013_g.png"",""time"":686.3000000119209},{""stimulus"":""blank"",""time"":999.1000000238419},{""stimulus"":""https://ziweizhang0304.github.io/Stats_learning_trig/img/Stim/FN_020_g.png"",""time"":1030.800000011921},{""stimulus"":""blank"",""time"":1340.800000011921},{""stimulus"":""https://ziweizhang0304.github.io/Stats_learning_trig/img/Stim/FN_014_g.png"",""time"":1369.8999999761581},{""stimulus"":""blank"",""time"":1685},{""stimulus"":""https://ziweizhang0304.github.io/Stats_learning_trig/img/Stim/FN_001_g.png"",""time"":1701.3999999761581},{""stimulus"":""blank"",""time"":2013.199999988079},{""stimulus"":""https://ziweizhang0304.github.io/Stats_learning_trig/img/Stim/FN_010_g.png"",""time"":2041.3999999761581},{""stimulus"":""blank"",""time"":2355.899999976158},{""stimulus"":""https://ziweizhang0304.github.io/Stats_learning_trig/img/Stim/FN_016_g.png"",""time"":2381.399999976158},{""stimulus"":""blank"",""time"":2682.899999976158},{""stimulus"":""https://ziweizhang0304.github.io/Stats_learning_trig/img/Stim/FN_005_g.png"",""time"":2730.600000023842},{""stimulus"":""blank"",""time"":3042},{""stimulus"":""https://ziweizhang0304.github.io/Stats_learning_trig/img/Stim/FN_021_g.png"",""time"":3068.399999976158},{""stimulus"":""blank"",""time"":3370.800000011921},{""stimulus"":""https://ziweizhang0304.github.io/Stats_learning_trig/img/Stim/FN_025_g.png"",""time"":3401.300000011921},{""stimulus"":""blank"",""time"":3707.399999976158},{""stimulus"":""https://ziweizhang0304.github.io/Stats_learning_trig/img/Stim/FN_007_g.png"",""time"":3741.600000023842},{""stimulus"":""blank"",""time"":4046.699999988079},{""stimulus"":""https://ziweizhang0304.github.io/Stats_learning_trig/img/Stim/FN_022_g.png"",""time"":4083.5},{""stimulus"":""blank"",""time"":4398.800000011921}]","[{""key_press"":32,""rt"":2054.199999988079,""stimulus"":""https://ziweizhang0304.github.io/Stats_learning_trig/img/Stim/FN_010_g.png""}]","352.80000001192093","https://ziweizhang0304.github.io/Stats_learning_trig/img/Stim/FN_001_g.png","post_TD","6","1701.3999999761581","2054.199999988079","slow","5","2","5dcefcd0307b8d05031d7264","","","","","",""
"","image-keyboard-response","25","174647","0.0-5.0-6.0-0.0","282.4000000357628","","","https://ziweizhang0304.github.io/Stats_learning_trig/img/Stim/FN_026_g.png","13","","","","","","","","","","","","","","","","","",""
"","animation","26","179069","0.0-5.0-6.0-1.0","","","","","","[{""stimulus"":""https://ziweizhang0304.github.io/Stats_learning_trig/img/Stim/FN_022_g.png"",""time"":349.39999997615814},{""stimulus"":""blank"",""time"":656.6999999880791},{""stimulus"":""https://ziweizhang0304.github.io/Stats_learning_trig/img/Stim/FN_016_g.png"",""time"":685.6999999880791},{""stimulus"":""blank"",""time"":995.1999999880791},{""stimulus"":""https://ziweizhang0304.github.io/Stats_learning_trig/img/Stim/FN_013_g.png"",""time"":1021.8999999761581},{""stimulus"":""blank"",""time"":1336.1000000238419},{""stimulus"":""https://ziweizhang0304.github.io/Stats_learning_trig/img/Stim/FN_025_g.png"",""time"":1367.300000011921},{""stimulus"":""blank"",""time"":1677.699999988079},{""stimulus"":""https://ziweizhang0304.github.io/Stats_learning_trig/img/Stim/FN_018_g.png"",""time"":1702.199999988079},{""stimulus"":""blank"",""time"":2005.8999999761581},{""stimulus"":""https://ziweizhang0304.github.io/Stats_learning_trig/img/Stim/FN_005_g.png"",""time"":2051.699999988079},{""stimulus"":""blank"",""time"":2361.300000011921},{""stimulus"":""https://ziweizhang0304.github.io/Stats_learning_trig/img/Stim/FN_015_g.png"",""time"":2385.199999988079},{""stimulus"":""blank"",""time"":2696.399999976158},{""stimulus"":""https://ziweizhang0304.github.io/Stats_learning_trig/img/Stim/FN_026_g.png"",""time"":2721.199999988079},{""stimulus"":""blank"",""time"":3021.699999988079},{""stimulus"":""https://ziweizhang0304.github.io/Stats_learning_trig/img/Stim/FN_006_g.png"",""time"":3065.899999976158},{""stimulus"":""blank"",""time"":3376.399999976158},{""stimulus"":""https://ziweizhang0304.github.io/Stats_learning_trig/img/Stim/FN_021_g.png"",""time"":3401},{""stimulus"":""blank"",""time"":3703.100000023842},{""stimulus"":""https://ziweizhang0304.github.io/Stats_learning_trig/img/Stim/FN_020_g.png"",""time"":3740.899999976158},{""stimulus"":""blank"",""time"":4045.100000023842},{""stimulus"":""https://ziweizhang0304.github.io/Stats_learning_trig/img/Stim/FN_007_g.png"",""time"":4081.199999988079},{""stimulus"":""blank"",""time"":4388.899999976158}]","[{""key_press"":32,""rt"":3021.399999976158,""stimulus"":""https://ziweizhang0304.github.io/Stats_learning_trig/img/Stim/FN_026_g.png""}]","300.19999998807907","https://ziweizhang0304.github.io/Stats_learning_trig/img/Stim/FN_026_g.png","post_TD","7","2721.199999988079","3021.399999976158","fast","8","2","5dcefcd0307b8d05031d7264","","","","","",""
"","image-keyboard-response","27","179658","0.0-5.0-7.0-0.0","586.8999999761581","","","https://ziweizhang0304.github.io/Stats_learning_trig/img/Stim/FN_006_g.png","13","","","","","","","","","","","","","","","","","",""
"","animation","28","184083","0.0-5.0-7.0-1.0","","","","","","[{""stimulus"":""https://ziweizhang0304.github.io/Stats_learning_trig/img/Stim/FN_018_g.png"",""time"":344.39999997615814},{""stimulus"":""blank"",""time"":656.7999999523163},{""stimulus"":""https://ziweizhang0304.github.io/Stats_learning_trig/img/Stim/FN_016_g.png"",""time"":687.6999999880791},{""stimulus"":""blank"",""time"":998.5},{""stimulus"":""https://ziweizhang0304.github.io/Stats_learning_trig/img/Stim/FN_021_g.png"",""time"":1030.2999999523163},{""stimulus"":""blank"",""time"":1343.5999999642372},{""stimulus"":""https://ziweizhang0304.github.io/Stats_learning_trig/img/Stim/FN_015_g.png"",""time"":1361.699999988079},{""stimulus"":""blank"",""time"":1672.8999999761581},{""stimulus"":""https://ziweizhang0304.github.io/Stats_learning_trig/img/Stim/FN_026_g.png"",""time"":1703.0999999642372},{""stimulus"":""blank"",""time"":2017.7999999523163},{""stimulus"":""https://ziweizhang0304.github.io/Stats_learning_trig/img/Stim/FN_006_g.png"",""time"":2050.2999999523163},{""stimulus"":""blank"",""time"":2361},{""stimulus"":""https://ziweizhang0304.github.io/Stats_learning_trig/img/Stim/FN_005_g.png"",""time"":2385.399999976158},{""stimulus"":""blank"",""time"":2690.899999976158},{""stimulus"":""https://ziweizhang0304.github.io/Stats_learning_trig/img/Stim/FN_020_g.png"",""time"":2721.5},{""stimulus"":""blank"",""time"":3035},{""stimulus"":""https://ziweizhang0304.github.io/Stats_learning_trig/img/Stim/FN_025_g.png"",""time"":3067.5},{""stimulus"":""blank"",""time"":3379.899999976158},{""stimulus"":""https://ziweizhang0304.github.io/Stats_learning_trig/img/Stim/FN_007_g.png"",""time"":3411.2999999523163},{""stimulus"":""blank"",""time"":3722.099999964237},{""stimulus"":""https://ziweizhang0304.github.io/Stats_learning_trig/img/Stim/FN_022_g.png"",""time"":3751.099999964237},{""stimulus"":""blank"",""time"":4065.7999999523163},{""stimulus"":""https://ziweizhang0304.github.io/Stats_learning_trig/img/Stim/FN_013_g.png"",""time"":4082.5},{""stimulus"":""blank"",""time"":4394.099999964237}]","[{""key_press"":32,""rt"":2400.199999988079,""stimulus"":""https://ziweizhang0304.github.io/Stats_learning_trig/img/Stim/FN_005_g.png""}]","349.9000000357628","https://ziweizhang0304.github.io/Stats_learning_trig/img/Stim/FN_006_g.png","post_TD","8","2050.2999999523163","2400.199999988079","fast","6","3","5dcefcd0307b8d05031d7264","","","","","",""
"","image-keyboard-response","29","184634","0.0-5.0-8.0-0.0","548.3000000119209","","","https://ziweizhang0304.github.io/Stats_learning_trig/img/Stim/FN_015_g.png","13","","","","","","","","","","","","","","","","","",""
"","animation","30","189062","0.0-5.0-8.0-1.0","","","","","","[{""stimulus"":""https://ziweizhang0304.github.io/Stats_learning_trig/img/Stim/FN_005_g.png"",""time"":354.10000002384186},{""stimulus"":""blank"",""time"":665.8000000119209},{""stimulus"":""https://ziweizhang0304.github.io/Stats_learning_trig/img/Stim/FN_025_g.png"",""time"":682.1000000238419},{""stimulus"":""blank"",""time"":992.1000000238419},{""stimulus"":""https://ziweizhang0304.github.io/Stats_learning_trig/img/Stim/FN_022_g.png"",""time"":1022.3000000119209},{""stimulus"":""blank"",""time"":1337.6000000238419},{""stimulus"":""https://ziweizhang0304.github.io/Stats_learning_trig/img/Stim/FN_007_g.png"",""time"":1369.2000000476837},{""stimulus"":""blank"",""time"":1676.9000000357628},{""stimulus"":""https://ziweizhang0304.github.io/Stats_learning_trig/img/Stim/FN_015_g.png"",""time"":1705.300000011921},{""stimulus"":""blank"",""time"":2020.4000000357628},{""stimulus"":""https://ziweizhang0304.github.io/Stats_learning_trig/img/Stim/FN_026_g.png"",""time"":2047.300000011921},{""stimulus"":""blank"",""time"":2362.5},{""stimulus"":""https://ziweizhang0304.github.io/Stats_learning_trig/img/Stim/FN_006_g.png"",""time"":2382},{""stimulus"":""blank"",""time"":2687.600000023842},{""stimulus"":""https://ziweizhang0304.github.io/Stats_learning_trig/img/Stim/FN_016_g.png"",""time"":2720.800000011921},{""stimulus"":""blank"",""time"":3034.400000035763},{""stimulus"":""https://ziweizhang0304.github.io/Stats_learning_trig/img/Stim/FN_018_g.png"",""time"":3066.2000000476837},{""stimulus"":""blank"",""time"":3376.900000035763},{""stimulus"":""https://ziweizhang0304.github.io/Stats_learning_trig/img/Stim/FN_021_g.png"",""time"":3403.7000000476837},{""stimulus"":""blank"",""time"":3714.100000023842},{""stimulus"":""https://ziweizhang0304.github.io/Stats_learning_trig/img/Stim/FN_020_g.png"",""time"":3741.100000023842},{""stimulus"":""blank"",""time"":4055.7000000476837},{""stimulus"":""https://ziweizhang0304.github.io/Stats_learning_trig/img/Stim/FN_013_g.png"",""time"":4080.7000000476837},{""stimulus"":""blank"",""time"":4381.100000023842}]","[{""key_press"":32,""rt"":2046.7000000476837,""stimulus"":""blank""}]","341.4000000357628","https://ziweizhang0304.github.io/Stats_learning_trig/img/Stim/FN_015_g.png","post_TD","9","1705.300000011921","2046.7000000476837","fast","5","1","5dcefcd0307b8d05031d7264","","","","","",""
"","image-keyboard-response","31","189798","0.0-5.0-9.0-0.0","733.8000000119209","","","https://ziweizhang0304.github.io/Stats_learning_trig/img/Stim/FN_015_g.png","13","","","","","","","","","","","","","","","","","",""
"","animation","32","194219","0.0-5.0-9.0-1.0","","","","","","[{""stimulus"":""https://ziweizhang0304.github.io/Stats_learning_trig/img/Stim/FN_018_g.png"",""time"":355.80000001192093},{""stimulus"":""blank"",""time"":658.3999999761581},{""stimulus"":""https://ziweizhang0304.github.io/Stats_learning_trig/img/Stim/FN_016_g.png"",""time"":687.3999999761581},{""stimulus"":""blank"",""time"":1000.0999999642372},{""stimulus"":""https://ziweizhang0304.github.io/Stats_learning_trig/img/Stim/FN_021_g.png"",""time"":1021.3000000119209},{""stimulus"":""blank"",""time"":1333.699999988079},{""stimulus"":""https://ziweizhang0304.github.io/Stats_learning_trig/img/Stim/FN_015_g.png"",""time"":1364.8999999761581},{""stimulus"":""blank"",""time"":1680.800000011921},{""stimulus"":""https://ziweizhang0304.github.io/Stats_learning_trig/img/Stim/FN_026_g.png"",""time"":1702},{""stimulus"":""blank"",""time"":2009.5999999642372},{""stimulus"":""https://ziweizhang0304.github.io/Stats_learning_trig/img/Stim/FN_006_g.png"",""time"":2041.5999999642372},{""stimulus"":""blank"",""time"":2348.599999964237},{""stimulus"":""https://ziweizhang0304.github.io/Stats_learning_trig/img/Stim/FN_005_g.png"",""time"":2381.399999976158},{""stimulus"":""blank"",""time"":2685.899999976158},{""stimulus"":""https://ziweizhang0304.github.io/Stats_learning_trig/img/Stim/FN_020_g.png"",""time"":2731.599999964237},{""stimulus"":""blank"",""time"":3040.5},{""stimulus"":""https://ziweizhang0304.github.io/Stats_learning_trig/img/Stim/FN_025_g.png"",""time"":3068.5},{""stimulus"":""blank"",""time"":3382.800000011921},{""stimulus"":""https://ziweizhang0304.github.io/Stats_learning_trig/img/Stim/FN_007_g.png"",""time"":3413.899999976158},{""stimulus"":""blank"",""time"":3722.099999964237},{""stimulus"":""https://ziweizhang0304.github.io/Stats_learning_trig/img/Stim/FN_022_g.png"",""time"":3751.300000011921},{""stimulus"":""blank"",""time"":4064.800000011921},{""stimulus"":""https://ziweizhang0304.github.io/Stats_learning_trig/img/Stim/FN_013_g.png"",""time"":4080.899999976158},{""stimulus"":""blank"",""time"":4393.099999964237}]","[{""key_press"":32,""rt"":1701.699999988079,""stimulus"":""blank""}]","336.80000001192093","https://ziweizhang0304.github.io/Stats_learning_trig/img/Stim/FN_015_g.png","post_TD","10","1364.8999999761581","1701.699999988079","fast","4","1","5dcefcd0307b8d05031d7264","","","","","",""
"","image-keyboard-response","33","194652","0.0-5.0-10.0-0.0","430.9000000357628","","","https://ziweizhang0304.github.io/Stats_learning_trig/img/Stim/FN_010_g.png","13","","","","","","","","","","","","","","","","","",""
"","animation","34","199074","0.0-5.0-10.0-1.0","","","","","","[{""stimulus"":""https://ziweizhang0304.github.io/Stats_learning_trig/img/Stim/FN_016_g.png"",""time"":354.80000001192093},{""stimulus"":""blank"",""time"":664.3000000119209},{""stimulus"":""https://ziweizhang0304.github.io/Stats_learning_trig/img/Stim/FN_005_g.png"",""time"":695.0999999642372},{""stimulus"":""blank"",""time"":1004.1999999880791},{""stimulus"":""https://ziweizhang0304.github.io/Stats_learning_trig/img/Stim/FN_020_g.png"",""time"":1028.800000011921},{""stimulus"":""blank"",""time"":1331.800000011921},{""stimulus"":""https://ziweizhang0304.github.io/Stats_learning_trig/img/Stim/FN_021_g.png"",""time"":1361.699999988079},{""stimulus"":""blank"",""time"":1671.699999988079},{""stimulus"":""https://ziweizhang0304.github.io/Stats_learning_trig/img/Stim/FN_018_g.png"",""time"":1703},{""stimulus"":""blank"",""time"":2014.800000011921},{""stimulus"":""https://ziweizhang0304.github.io/Stats_learning_trig/img/Stim/FN_013_g.png"",""time"":2044.699999988079},{""stimulus"":""blank"",""time"":2357.800000011921},{""stimulus"":""https://ziweizhang0304.github.io/Stats_learning_trig/img/Stim/FN_014_g.png"",""time"":2389.599999964237},{""stimulus"":""blank"",""time"":2703.800000011921},{""stimulus"":""https://ziweizhang0304.github.io/Stats_learning_trig/img/Stim/FN_001_g.png"",""time"":2727.199999988079},{""stimulus"":""blank"",""time"":3043.599999964237},{""stimulus"":""https://ziweizhang0304.github.io/Stats_learning_trig/img/Stim/FN_010_g.png"",""time"":3074.699999988079},{""stimulus"":""blank"",""time"":3387.5},{""stimulus"":""https://ziweizhang0304.github.io/Stats_learning_trig/img/Stim/FN_025_g.png"",""time"":3404.099999964237},{""stimulus"":""blank"",""time"":3716.800000011921},{""stimulus"":""https://ziweizhang0304.github.io/Stats_learning_trig/img/Stim/FN_007_g.png"",""time"":3742.899999976158},{""stimulus"":""blank"",""time"":4045.399999976158},{""stimulus"":""https://ziweizhang0304.github.io/Stats_learning_trig/img/Stim/FN_022_g.png"",""time"":4081.300000011921},{""stimulus"":""blank"",""time"":4390.599999964237}]","[{""key_press"":32,""rt"":3326.100000023842,""stimulus"":""https://ziweizhang0304.github.io/Stats_learning_trig/img/Stim/FN_010_g.png""}]","251.4000000357628","https://ziweizhang0304.github.io/Stats_learning_trig/img/Stim/FN_010_g.png","post_TD","11","3074.699999988079","3326.100000023842","slow","9","3","5dcefcd0307b8d05031d7264","","","","","",""
"","image-keyboard-response","35","199506","0.0-5.0-11.0-0.0","429.60000002384186","","","https://ziweizhang0304.github.io/Stats_learning_trig/img/Stim/FN_001_g.png","13","","","","","","","","","","","","","","","","","",""
"","animation","36","203926","0.0-5.0-11.0-1.0","","","","","","[{""stimulus"":""https://ziweizhang0304.github.io/Stats_learning_trig/img/Stim/FN_021_g.png"",""time"":348.4000000357628},{""stimulus"":""blank"",""time"":661},{""stimulus"":""https://ziweizhang0304.github.io/Stats_learning_trig/img/Stim/FN_020_g.png"",""time"":687.4000000357628},{""stimulus"":""blank"",""time"":989.8000000119209},{""stimulus"":""https://ziweizhang0304.github.io/Stats_learning_trig/img/Stim/FN_022_g.png"",""time"":1022.1000000238419},{""stimulus"":""blank"",""time"":1331.800000011921},{""stimulus"":""https://ziweizhang0304.github.io/Stats_learning_trig/img/Stim/FN_018_g.png"",""time"":1362.300000011921},{""stimulus"":""blank"",""time"":1673.699999988079},{""stimulus"":""https://ziweizhang0304.github.io/Stats_learning_trig/img/Stim/FN_016_g.png"",""time"":1703},{""stimulus"":""blank"",""time"":2017.6000000238419},{""stimulus"":""https://ziweizhang0304.github.io/Stats_learning_trig/img/Stim/FN_014_g.png"",""time"":2050.300000011921},{""stimulus"":""blank"",""time"":2361.300000011921},{""stimulus"":""https://ziweizhang0304.github.io/Stats_learning_trig/img/Stim/FN_001_g.png"",""time"":2385.800000011921},{""stimulus"":""blank"",""time"":2686.800000011921},{""stimulus"":""https://ziweizhang0304.github.io/Stats_learning_trig/img/Stim/FN_010_g.png"",""time"":2734.199999988079},{""stimulus"":""blank"",""time"":3044.900000035763},{""stimulus"":""https://ziweizhang0304.github.io/Stats_learning_trig/img/Stim/FN_005_g.png"",""time"":3061.699999988079},{""stimulus"":""blank"",""time"":3370.400000035763},{""stimulus"":""https://ziweizhang0304.github.io/Stats_learning_trig/img/Stim/FN_025_g.png"",""time"":3401.400000035763},{""stimulus"":""blank"",""time"":3713.300000011921},{""stimulus"":""https://ziweizhang0304.github.io/Stats_learning_trig/img/Stim/FN_007_g.png"",""time"":3744.800000011921},{""stimulus"":""blank"",""time"":4058.5},{""stimulus"":""https://ziweizhang0304.github.io/Stats_learning_trig/img/Stim/FN_013_g.png"",""time"":4084.300000011921},{""stimulus"":""blank"",""time"":4388.600000023842}]","[{""key_press"":32,""rt"":2745.600000023842,""stimulus"":""https://ziweizhang0304.github.io/Stats_learning_trig/img/Stim/FN_010_g.png""}]","359.80000001192093","https://ziweizhang0304.github.io/Stats_learning_trig/img/Stim/FN_001_g.png","post_TD","12","2385.800000011921","2745.600000023842","slow","7","2","5dcefcd0307b8d05031d7264","","","","","",""
"","image-keyboard-response","37","204269","0.0-5.0-12.0-0.0","338","","","https://ziweizhang0304.github.io/Stats_learning_trig/img/Stim/FN_006_g.png","13","","","","","","","","","","","","","","","","","",""
"","animation","38","208694","0.0-5.0-12.0-1.0","","","","","","[{""stimulus"":""https://ziweizhang0304.github.io/Stats_learning_trig/img/Stim/FN_005_g.png"",""time"":341.4000000357628},{""stimulus"":""blank"",""time"":652.3000000119209},{""stimulus"":""https://ziweizhang0304.github.io/Stats_learning_trig/img/Stim/FN_025_g.png"",""time"":683.6000000238419},{""stimulus"":""blank"",""time"":994.1000000238419},{""stimulus"":""https://ziweizhang0304.github.io/Stats_learning_trig/img/Stim/FN_022_g.png"",""time"":1021},{""stimulus"":""blank"",""time"":1322.2000000476837},{""stimulus"":""https://ziweizhang0304.github.io/Stats_learning_trig/img/Stim/FN_007_g.png"",""time"":1361},{""stimulus"":""blank"",""time"":1664.9000000357628},{""stimulus"":""https://ziweizhang0304.github.io/Stats_learning_trig/img/Stim/FN_015_g.png"",""time"":1701.5},{""stimulus"":""blank"",""time"":2008},{""stimulus"":""https://ziweizhang0304.github.io/Stats_learning_trig/img/Stim/FN_026_g.png"",""time"":2054.800000011921},{""stimulus"":""blank"",""time"":2367.100000023842},{""stimulus"":""https://ziweizhang0304.github.io/Stats_learning_trig/img/Stim/FN_006_g.png"",""time"":2383},{""stimulus"":""blank"",""time"":2696},{""stimulus"":""https://ziweizhang0304.github.io/Stats_learning_trig/img/Stim/FN_016_g.png"",""time"":2721.300000011921},{""stimulus"":""blank"",""time"":3022.600000023842},{""stimulus"":""https://ziweizhang0304.github.io/Stats_learning_trig/img/Stim/FN_018_g.png"",""time"":3061},{""stimulus"":""blank"",""time"":3365.300000011921},{""stimulus"":""https://ziweizhang0304.github.io/Stats_learning_trig/img/Stim/FN_021_g.png"",""time"":3412.800000011921},{""stimulus"":""blank"",""time"":3724.600000023842},{""stimulus"":""https://ziweizhang0304.github.io/Stats_learning_trig/img/Stim/FN_020_g.png"",""time"":3740.900000035763},{""stimulus"":""blank"",""time"":4051.800000011921},{""stimulus"":""https://ziweizhang0304.github.io/Stats_learning_trig/img/Stim/FN_013_g.png"",""time"":4082.600000023842},{""stimulus"":""blank"",""time"":4393}]","[{""key_press"":32,""rt"":2708.300000011921,""stimulus"":""blank""}]","325.30000001192093","https://ziweizhang0304.github.io/Stats_learning_trig/img/Stim/FN_006_g.png","post_TD","13","2383","2708.300000011921","fast","7","3","5dcefcd0307b8d05031d7264","","","","","",""
"","image-keyboard-response","39","209122","0.0-5.0-13.0-0.0","425.19999998807907","","","https://ziweizhang0304.github.io/Stats_learning_trig/img/Stim/FN_014_g.png","13","","","","","","","","","","","","","","","","","",""
"","animation","40","213544","0.0-5.0-13.0-1.0","","","","","","[{""stimulus"":""https://ziweizhang0304.github.io/Stats_learning_trig/img/Stim/FN_016_g.png"",""time"":351.89999997615814},{""stimulus"":""blank"",""time"":663.8000000119209},{""stimulus"":""https://ziweizhang0304.github.io/Stats_learning_trig/img/Stim/FN_005_g.png"",""time"":694.1999999880791},{""stimulus"":""blank"",""time"":1005.0999999642372},{""stimulus"":""https://ziweizhang0304.github.io/Stats_learning_trig/img/Stim/FN_020_g.png"",""time"":1021.5},{""stimulus"":""blank"",""time"":1333.699999988079},{""stimulus"":""https://ziweizhang0304.github.io/Stats_learning_trig/img/Stim/FN_021_g.png"",""time"":1361.300000011921},{""stimulus"":""blank"",""time"":1676.0999999642372},{""stimulus"":""https://ziweizhang0304.github.io/Stats_learning_trig/img/Stim/FN_018_g.png"",""time"":1708.300000011921},{""stimulus"":""blank"",""time"":2021.300000011921},{""stimulus"":""https://ziweizhang0304.github.io/Stats_learning_trig/img/Stim/FN_013_g.png"",""time"":2041.8999999761581},{""stimulus"":""blank"",""time"":2345.699999988079},{""stimulus"":""https://ziweizhang0304.github.io/Stats_learning_trig/img/Stim/FN_014_g.png"",""time"":2380.899999976158},{""stimulus"":""blank"",""time"":2689.199999988079},{""stimulus"":""https://ziweizhang0304.github.io/Stats_learning_trig/img/Stim/FN_001_g.png"",""time"":2726.599999964237},{""stimulus"":""blank"",""time"":3032.899999976158},{""stimulus"":""https://ziweizhang0304.github.io/Stats_learning_trig/img/Stim/FN_010_g.png"",""time"":3064.800000011921},{""stimulus"":""blank"",""time"":3376},{""stimulus"":""https://ziweizhang0304.github.io/Stats_learning_trig/img/Stim/FN_025_g.png"",""time"":3407.399999976158},{""stimulus"":""blank"",""time"":3721.699999988079},{""stimulus"":""https://ziweizhang0304.github.io/Stats_learning_trig/img/Stim/FN_007_g.png"",""time"":3741.599999964237},{""stimulus"":""blank"",""time"":4049.300000011921},{""stimulus"":""https://ziweizhang0304.github.io/Stats_learning_trig/img/Stim/FN_022_g.png"",""time"":4095.599999964237},{""stimulus"":""blank"",""time"":4405.800000011921}]","[{""key_press"":32,""rt"":2690.5,""stimulus"":""blank""}]","309.60000002384186","https://ziweizhang0304.github.io/Stats_learning_trig/img/Stim/FN_014_g.png","post_TD","14","2380.899999976158","2690.5","slow","7","1","5dcefcd0307b8d05031d7264","","","","","",""
"","image-keyboard-response","41","214396","0.0-5.0-14.0-0.0","849.3000000119209","","","https://ziweizhang0304.github.io/Stats_learning_trig/img/Stim/FN_006_g.png","13","","","","","","","","","","","","","","","","","",""
"","animation","42","218828","0.0-5.0-14.0-1.0","","","","","","[{""stimulus"":""https://ziweizhang0304.github.io/Stats_learning_trig/img/Stim/FN_022_g.png"",""time"":356.69999998807907},{""stimulus"":""blank"",""time"":666.4000000357628},{""stimulus"":""https://ziweizhang0304.github.io/Stats_learning_trig/img/Stim/FN_016_g.png"",""time"":683.5},{""stimulus"":""blank"",""time"":990.4000000357628},{""stimulus"":""https://ziweizhang0304.github.io/Stats_learning_trig/img/Stim/FN_013_g.png"",""time"":1022.1000000238419},{""stimulus"":""blank"",""time"":1325.9000000357628},{""stimulus"":""https://ziweizhang0304.github.io/Stats_learning_trig/img/Stim/FN_025_g.png"",""time"":1373.199999988079},{""stimulus"":""blank"",""time"":1679.300000011921},{""stimulus"":""https://ziweizhang0304.github.io/Stats_learning_trig/img/Stim/FN_018_g.png"",""time"":1709.699999988079},{""stimulus"":""blank"",""time"":2019.4000000357628},{""stimulus"":""https://ziweizhang0304.github.io/Stats_learning_trig/img/Stim/FN_005_g.png"",""time"":2049.100000023842},{""stimulus"":""blank"",""time"":2355.199999988079},{""stimulus"":""https://ziweizhang0304.github.io/Stats_learning_trig/img/Stim/FN_015_g.png"",""time"":2381.199999988079},{""stimulus"":""blank"",""time"":2696.400000035763},{""stimulus"":""https://ziweizhang0304.github.io/Stats_learning_trig/img/Stim/FN_026_g.png"",""time"":2727.5},{""stimulus"":""blank"",""time"":3032.699999988079},{""stimulus"":""https://ziweizhang0304.github.io/Stats_learning_trig/img/Stim/FN_006_g.png"",""time"":3063.300000011921},{""stimulus"":""blank"",""time"":3371.300000011921},{""stimulus"":""https://ziweizhang0304.github.io/Stats_learning_trig/img/Stim/FN_021_g.png"",""time"":3401.300000011921},{""stimulus"":""blank"",""time"":3709.900000035763},{""stimulus"":""https://ziweizhang0304.github.io/Stats_learning_trig/img/Stim/FN_020_g.png"",""time"":3746.699999988079},{""stimulus"":""blank"",""time"":4050},{""stimulus"":""https://ziweizhang0304.github.io/Stats_learning_trig/img/Stim/FN_007_g.png"",""time"":4080.699999988079},{""stimulus"":""blank"",""time"":4386.600000023842}]","[{""key_press"":32,""rt"":3349.400000035763,""stimulus"":""https://ziweizhang0304.github.io/Stats_learning_trig/img/Stim/FN_006_g.png""}]","286.10000002384186","https://ziweizhang0304.github.io/Stats_learning_trig/img/Stim/FN_006_g.png","post_TD","15","3063.300000011921","3349.400000035763","fast","9","3","5dcefcd0307b8d05031d7264","","","","","",""
"","image-keyboard-response","43","219492","0.0-5.0-15.0-0.0","662.5","","","https://ziweizhang0304.github.io/Stats_learning_trig/img/Stim/FN_026_g.png","13","","","","","","","","","","","","","","","","","",""
"","animation","44","223924","0.0-5.0-15.0-1.0","","","","","","[{""stimulus"":""https://ziweizhang0304.github.io/Stats_learning_trig/img/Stim/FN_018_g.png"",""time"":345.2999999523163},{""stimulus"":""blank"",""time"":656.6999999880791},{""stimulus"":""https://ziweizhang0304.github.io/Stats_learning_trig/img/Stim/FN_016_g.png"",""time"":681.2999999523163},{""stimulus"":""blank"",""time"":983.6999999880791},{""stimulus"":""https://ziweizhang0304.github.io/Stats_learning_trig/img/Stim/FN_021_g.png"",""time"":1021.3999999761581},{""stimulus"":""blank"",""time"":1327.199999988079},{""stimulus"":""https://ziweizhang0304.github.io/Stats_learning_trig/img/Stim/FN_015_g.png"",""time"":1365.199999988079},{""stimulus"":""blank"",""time"":1670.7999999523163},{""stimulus"":""https://ziweizhang0304.github.io/Stats_learning_trig/img/Stim/FN_026_g.png"",""time"":1701.5999999642372},{""stimulus"":""blank"",""time"":2011.7999999523163},{""stimulus"":""https://ziweizhang0304.github.io/Stats_learning_trig/img/Stim/FN_006_g.png"",""time"":2041.2999999523163},{""stimulus"":""blank"",""time"":2353.599999964237},{""stimulus"":""https://ziweizhang0304.github.io/Stats_learning_trig/img/Stim/FN_005_g.png"",""time"":2381.099999964237},{""stimulus"":""blank"",""time"":2683.599999964237},{""stimulus"":""https://ziweizhang0304.github.io/Stats_learning_trig/img/Stim/FN_020_g.png"",""time"":2730.5},{""stimulus"":""blank"",""time"":3043.699999988079},{""stimulus"":""https://ziweizhang0304.github.io/Stats_learning_trig/img/Stim/FN_025_g.png"",""time"":3074.899999976158},{""stimulus"":""blank"",""time"":3386.699999988079},{""stimulus"":""https://ziweizhang0304.github.io/Stats_learning_trig/img/Stim/FN_007_g.png"",""time"":3402.899999976158},{""stimulus"":""blank"",""time"":3712.2999999523163},{""stimulus"":""https://ziweizhang0304.github.io/Stats_learning_trig/img/Stim/FN_022_g.png"",""time"":3744.199999988079},{""stimulus"":""blank"",""time"":4058},{""stimulus"":""https://ziweizhang0304.github.io/Stats_learning_trig/img/Stim/FN_013_g.png"",""time"":4081.599999964237},{""stimulus"":""blank"",""time"":4384.299999952316}]","[{""key_press"":32,""rt"":2025,""stimulus"":""blank""}]","323.4000000357628","https://ziweizhang0304.github.io/Stats_learning_trig/img/Stim/FN_026_g.png","post_TD","16","1701.5999999642372","2025","fast","5","2","5dcefcd0307b8d05031d7264","","","","","",""
"","image-keyboard-response","45","224245","0.0-5.0-16.0-0.0","318.0999999642372","","","https://ziweizhang0304.github.io/Stats_learning_trig/img/Stim/FN_010_g.png","13","","","","","","","","","","","","","","","","","",""
"","animation","46","228679","0.0-5.0-16.0-1.0","","","","","","[{""stimulus"":""https://ziweizhang0304.github.io/Stats_learning_trig/img/Stim/FN_021_g.png"",""time"":349.2000000476837},{""stimulus"":""blank"",""time"":658.9000000357628},{""stimulus"":""https://ziweizhang0304.github.io/Stats_learning_trig/img/Stim/FN_020_g.png"",""time"":689.6000000238419},{""stimulus"":""blank"",""time"":1000.3000000119209},{""stimulus"":""https://ziweizhang0304.github.io/Stats_learning_trig/img/Stim/FN_022_g.png"",""time"":1021.5},{""stimulus"":""blank"",""time"":1326.7000000476837},{""stimulus"":""https://ziweizhang0304.github.io/Stats_learning_trig/img/Stim/FN_018_g.png"",""time"":1373.6000000238419},{""stimulus"":""blank"",""time"":1686.5},{""stimulus"":""https://ziweizhang0304.github.io/Stats_learning_trig/img/Stim/FN_016_g.png"",""time"":1702.9000000357628},{""stimulus"":""blank"",""time"":2016.800000011921},{""stimulus"":""https://ziweizhang0304.github.io/Stats_learning_trig/img/Stim/FN_014_g.png"",""time"":2041.5},{""stimulus"":""blank"",""time"":2344.600000023842},{""stimulus"":""https://ziweizhang0304.github.io/Stats_learning_trig/img/Stim/FN_001_g.png"",""time"":2381.7000000476837},{""stimulus"":""blank"",""time"":2686.5},{""stimulus"":""https://ziweizhang0304.github.io/Stats_learning_trig/img/Stim/FN_010_g.png"",""time"":2724.100000023842},{""stimulus"":""blank"",""time"":3027.600000023842},{""stimulus"":""https://ziweizhang0304.github.io/Stats_learning_trig/img/Stim/FN_005_g.png"",""time"":3074.900000035763},{""stimulus"":""blank"",""time"":3389},{""stimulus"":""https://ziweizhang0304.github.io/Stats_learning_trig/img/Stim/FN_025_g.png"",""time"":3404.7000000476837},{""stimulus"":""blank"",""time"":3718.5},{""stimulus"":""https://ziweizhang0304.github.io/Stats_learning_trig/img/Stim/FN_007_g.png"",""time"":3750.800000011921},{""stimulus"":""blank"",""time"":4062.400000035763},{""stimulus"":""https://ziweizhang0304.github.io/Stats_learning_trig/img/Stim/FN_013_g.png"",""time"":4089.600000023842},{""stimulus"":""blank"",""time"":4403.5}]","[{""key_press"":32,""rt"":3023.300000011921,""stimulus"":""https://ziweizhang0304.github.io/Stats_learning_trig/img/Stim/FN_010_g.png""}]","299.19999998807907","https://ziweizhang0304.github.io/Stats_learning_trig/img/Stim/FN_010_g.png","post_TD","17","2724.100000023842","3023.300000011921","slow","8","3","5dcefcd0307b8d05031d7264","","","","","",""
"","image-keyboard-response","47","229160","0.0-5.0-17.0-0.0","478.10000002384186","","","https://ziweizhang0304.github.io/Stats_learning_trig/img/Stim/FN_014_g.png","13","","","","","","","","","","","","","","","","","",""
"","animation","48","233589","0.0-5.0-17.0-1.0","","","","","","[{""stimulus"":""https://ziweizhang0304.github.io/Stats_learning_trig/img/Stim/FN_007_g.png"",""time"":352.80000001192093},{""stimulus"":""blank"",""time"":663.1999999880791},{""stimulus"":""https://ziweizhang0304.github.io/Stats_learning_trig/img/Stim/FN_005_g.png"",""time"":689.4000000357628},{""stimulus"":""blank"",""time"":992.3000000119209},{""stimulus"":""https://ziweizhang0304.github.io/Stats_learning_trig/img/Stim/FN_020_g.png"",""time"":1020.8000000119209},{""stimulus"":""blank"",""time"":1333.5},{""stimulus"":""https://ziweizhang0304.github.io/Stats_learning_trig/img/Stim/FN_025_g.png"",""time"":1361.6000000238419},{""stimulus"":""blank"",""time"":1676.6000000238419},{""stimulus"":""https://ziweizhang0304.github.io/Stats_learning_trig/img/Stim/FN_014_g.png"",""time"":1704.699999988079},{""stimulus"":""blank"",""time"":2018},{""stimulus"":""https://ziweizhang0304.github.io/Stats_learning_trig/img/Stim/FN_001_g.png"",""time"":2040.800000011921},{""stimulus"":""blank"",""time"":2346.699999988079},{""stimulus"":""https://ziweizhang0304.github.io/Stats_learning_trig/img/Stim/FN_010_g.png"",""time"":2381.699999988079},{""stimulus"":""blank"",""time"":2689.300000011921},{""stimulus"":""https://ziweizhang0304.github.io/Stats_learning_trig/img/Stim/FN_016_g.png"",""time"":2720.800000011921},{""stimulus"":""blank"",""time"":3030.300000011921},{""stimulus"":""https://ziweizhang0304.github.io/Stats_learning_trig/img/Stim/FN_018_g.png"",""time"":3061.199999988079},{""stimulus"":""blank"",""time"":3373.400000035763},{""stimulus"":""https://ziweizhang0304.github.io/Stats_learning_trig/img/Stim/FN_021_g.png"",""time"":3403.600000023842},{""stimulus"":""blank"",""time"":3718.5},{""stimulus"":""https://ziweizhang0304.github.io/Stats_learning_trig/img/Stim/FN_022_g.png"",""time"":3740.400000035763},{""stimulus"":""blank"",""time"":4042.800000011921},{""stimulus"":""https://ziweizhang0304.github.io/Stats_learning_trig/img/Stim/FN_013_g.png"",""time"":4081.5},{""stimulus"":""blank"",""time"":4383}]","[{""key_press"":32,""rt"":2036.6000000238419,""stimulus"":""blank""}]","331.9000000357628","https://ziweizhang0304.github.io/Stats_learning_trig/img/Stim/FN_014_g.png","post_TD","18","1704.699999988079","2036.6000000238419","slow","5","1","5dcefcd0307b8d05031d7264","","","","","",""
"","image-keyboard-response","49","234042","0.0-5.0-18.0-0.0","450.80000001192093","","","https://ziweizhang0304.github.io/Stats_learning_trig/img/Stim/FN_001_g.png","13","","","","","","","","","","","","","","","","","",""
"","animation","50","238468","0.0-5.0-18.0-1.0","","","","","","[{""stimulus"":""https://ziweizhang0304.github.io/Stats_learning_trig/img/Stim/FN_007_g.png"",""time"":341.69999998807907},{""stimulus"":""blank"",""time"":651.9000000357628},{""stimulus"":""https://ziweizhang0304.github.io/Stats_learning_trig/img/Stim/FN_005_g.png"",""time"":684.1999999880791},{""stimulus"":""blank"",""time"":996.4000000357628},{""stimulus"":""https://ziweizhang0304.github.io/Stats_learning_trig/img/Stim/FN_020_g.png"",""time"":1028.300000011921},{""stimulus"":""blank"",""time"":1341.9000000357628},{""stimulus"":""https://ziweizhang0304.github.io/Stats_learning_trig/img/Stim/FN_025_g.png"",""time"":1368.4000000357628},{""stimulus"":""blank"",""time"":1669.699999988079},{""stimulus"":""https://ziweizhang0304.github.io/Stats_learning_trig/img/Stim/FN_014_g.png"",""time"":1701},{""stimulus"":""blank"",""time"":2011.9000000357628},{""stimulus"":""https://ziweizhang0304.github.io/Stats_learning_trig/img/Stim/FN_001_g.png"",""time"":2044.1000000238419},{""stimulus"":""blank"",""time"":2350.699999988079},{""stimulus"":""https://ziweizhang0304.github.io/Stats_learning_trig/img/Stim/FN_010_g.png"",""time"":2382.199999988079},{""stimulus"":""blank"",""time"":2693.5},{""stimulus"":""https://ziweizhang0304.github.io/Stats_learning_trig/img/Stim/FN_016_g.png"",""time"":2725.699999988079},{""stimulus"":""blank"",""time"":3036.699999988079},{""stimulus"":""https://ziweizhang0304.github.io/Stats_learning_trig/img/Stim/FN_018_g.png"",""time"":3066.699999988079},{""stimulus"":""blank"",""time"":3379},{""stimulus"":""https://ziweizhang0304.github.io/Stats_learning_trig/img/Stim/FN_021_g.png"",""time"":3409.900000035763},{""stimulus"":""blank"",""time"":3721.800000011921},{""stimulus"":""https://ziweizhang0304.github.io/Stats_learning_trig/img/Stim/FN_022_g.png"",""time"":3749.699999988079},{""stimulus"":""blank"",""time"":4051.800000011921},{""stimulus"":""https://ziweizhang0304.github.io/Stats_learning_trig/img/Stim/FN_013_g.png"",""time"":4080.5},{""stimulus"":""blank"",""time"":4394.300000011921}]","[{""key_press"":32,""rt"":2338.699999988079,""stimulus"":""https://ziweizhang0304.github.io/Stats_learning_trig/img/Stim/FN_001_g.png""}]","294.5999999642372","https://ziweizhang0304.github.io/Stats_learning_trig/img/Stim/FN_001_g.png","post_TD","19","2044.1000000238419","2338.699999988079","slow","6","2","5dcefcd0307b8d05031d7264","","","","","",""
"","image-keyboard-response","51","238948","0.0-5.0-19.0-0.0","476.89999997615814","","","https://ziweizhang0304.github.io/Stats_learning_trig/img/Stim/FN_010_g.png","13","","","","","","","","","","","","","","","","","",""
"","animation","52","243369","0.0-5.0-19.0-1.0","","","","","","[{""stimulus"":""https://ziweizhang0304.github.io/Stats_learning_trig/img/Stim/FN_018_g.png"",""time"":348},{""stimulus"":""blank"",""time"":659.3999999761581},{""stimulus"":""https://ziweizhang0304.github.io/Stats_learning_trig/img/Stim/FN_013_g.png"",""time"":690.8999999761581},{""stimulus"":""blank"",""time"":1001.6000000238419},{""stimulus"":""https://ziweizhang0304.github.io/Stats_learning_trig/img/Stim/FN_020_g.png"",""time"":1021.1999999880791},{""stimulus"":""blank"",""time"":1328.5},{""stimulus"":""https://ziweizhang0304.github.io/Stats_learning_trig/img/Stim/FN_014_g.png"",""time"":1360.8999999761581},{""stimulus"":""blank"",""time"":1669.300000011921},{""stimulus"":""https://ziweizhang0304.github.io/Stats_learning_trig/img/Stim/FN_001_g.png"",""time"":1708.300000011921},{""stimulus"":""blank"",""time"":2011.5},{""stimulus"":""https://ziweizhang0304.github.io/Stats_learning_trig/img/Stim/FN_010_g.png"",""time"":2041},{""stimulus"":""blank"",""time"":2353.399999976158},{""stimulus"":""https://ziweizhang0304.github.io/Stats_learning_trig/img/Stim/FN_016_g.png"",""time"":2381.600000023842},{""stimulus"":""blank"",""time"":2697.100000023842},{""stimulus"":""https://ziweizhang0304.github.io/Stats_learning_trig/img/Stim/FN_005_g.png"",""time"":2721.600000023842},{""stimulus"":""blank"",""time"":3024.199999988079},{""stimulus"":""https://ziweizhang0304.github.io/Stats_learning_trig/img/Stim/FN_021_g.png"",""time"":3071.300000011921},{""stimulus"":""blank"",""time"":3385.199999988079},{""stimulus"":""https://ziweizhang0304.github.io/Stats_learning_trig/img/Stim/FN_025_g.png"",""time"":3401.600000023842},{""stimulus"":""blank"",""time"":3712.600000023842},{""stimulus"":""https://ziweizhang0304.github.io/Stats_learning_trig/img/Stim/FN_007_g.png"",""time"":3741.899999976158},{""stimulus"":""blank"",""time"":4057.199999988079},{""stimulus"":""https://ziweizhang0304.github.io/Stats_learning_trig/img/Stim/FN_022_g.png"",""time"":4089.699999988079},{""stimulus"":""blank"",""time"":4400.300000011921}]","[{""key_press"":32,""rt"":2035.7999999523163,""stimulus"":""blank""}]","NaN","https://ziweizhang0304.github.io/Stats_learning_trig/img/Stim/FN_010_g.png","post_TD","20","2041","","slow","6","3","5dcefcd0307b8d05031d7264","","","","","",""
"","image-keyboard-response","53","243915","0.0-5.0-20.0-0.0","543.7000000476837","","","https://ziweizhang0304.github.io/Stats_learning_trig/img/Stim/FN_006_g.png","13","","","","","","","","","","","","","","","","","",""
"","animation","54","248346","0.0-5.0-20.0-1.0","","","","","","[{""stimulus"":""https://ziweizhang0304.github.io/Stats_learning_trig/img/Stim/FN_013_g.png"",""time"":355.19999998807907},{""stimulus"":""blank"",""time"":664.8999999761581},{""stimulus"":""https://ziweizhang0304.github.io/Stats_learning_trig/img/Stim/FN_016_g.png"",""time"":681.3999999761581},{""stimulus"":""blank"",""time"":986.2999999523163},{""stimulus"":""https://ziweizhang0304.github.io/Stats_learning_trig/img/Stim/FN_007_g.png"",""time"":1021.7999999523163},{""stimulus"":""blank"",""time"":1324.3999999761581},{""stimulus"":""https://ziweizhang0304.github.io/Stats_learning_trig/img/Stim/FN_005_g.png"",""time"":1371.3999999761581},{""stimulus"":""blank"",""time"":1682.699999988079},{""stimulus"":""https://ziweizhang0304.github.io/Stats_learning_trig/img/Stim/FN_018_g.png"",""time"":1701.2999999523163},{""stimulus"":""blank"",""time"":2009.0999999642372},{""stimulus"":""https://ziweizhang0304.github.io/Stats_learning_trig/img/Stim/FN_015_g.png"",""time"":2041.5},{""stimulus"":""blank"",""time"":2351.899999976158},{""stimulus"":""https://ziweizhang0304.github.io/Stats_learning_trig/img/Stim/FN_026_g.png"",""time"":2383.699999988079},{""stimulus"":""blank"",""time"":2696.399999976158},{""stimulus"":""https://ziweizhang0304.github.io/Stats_learning_trig/img/Stim/FN_006_g.png"",""time"":2720.899999976158},{""stimulus"":""blank"",""time"":3031.599999964237},{""stimulus"":""https://ziweizhang0304.github.io/Stats_learning_trig/img/Stim/FN_021_g.png"",""time"":3062.099999964237},{""stimulus"":""blank"",""time"":3368.699999988079},{""stimulus"":""https://ziweizhang0304.github.io/Stats_learning_trig/img/Stim/FN_020_g.png"",""time"":3401.199999988079},{""stimulus"":""blank"",""time"":3707},{""stimulus"":""https://ziweizhang0304.github.io/Stats_learning_trig/img/Stim/FN_025_g.png"",""time"":3741.7999999523163},{""stimulus"":""blank"",""time"":4044.5},{""stimulus"":""https://ziweizhang0304.github.io/Stats_learning_trig/img/Stim/FN_022_g.png"",""time"":4081.599999964237},{""stimulus"":""blank"",""time"":4384.699999988079}]","[{""key_press"":32,""rt"":2986.400000035763,""stimulus"":""https://ziweizhang0304.github.io/Stats_learning_trig/img/Stim/FN_006_g.png""}]","265.50000005960464","https://ziweizhang0304.github.io/Stats_learning_trig/img/Stim/FN_006_g.png","post_TD","21","2720.899999976158","2986.400000035763","fast","8","3","5dcefcd0307b8d05031d7264","","","","","",""
"","image-keyboard-response","55","266299","0.0-5.0-21.0-0.0","17951.399999976158","","","https://ziweizhang0304.github.io/Stats_learning_trig/img/Stim/FN_014_g.png","13","","","","","","","","","","","","","","","","","",""
"","animation","56","270720","0.0-5.0-21.0-1.0","","","","","","[{""stimulus"":""https://ziweizhang0304.github.io/Stats_learning_trig/img/Stim/FN_018_g.png"",""time"":350.5},{""stimulus"":""blank"",""time"":660.6999999880791},{""stimulus"":""https://ziweizhang0304.github.io/Stats_learning_trig/img/Stim/FN_013_g.png"",""time"":692.8999999761581},{""stimulus"":""blank"",""time"":1005},{""stimulus"":""https://ziweizhang0304.github.io/Stats_learning_trig/img/Stim/FN_020_g.png"",""time"":1031.5999999642372},{""stimulus"":""blank"",""time"":1332.699999988079},{""stimulus"":""https://ziweizhang0304.github.io/Stats_learning_trig/img/Stim/FN_014_g.png"",""time"":1364.7999999523163},{""stimulus"":""blank"",""time"":1677.5},{""stimulus"":""https://ziweizhang0304.github.io/Stats_learning_trig/img/Stim/FN_001_g.png"",""time"":1709},{""stimulus"":""blank"",""time"":2020.199999988079},{""stimulus"":""https://ziweizhang0304.github.io/Stats_learning_trig/img/Stim/FN_010_g.png"",""time"":2047.2999999523163},{""stimulus"":""blank"",""time"":2348.599999964237},{""stimulus"":""https://ziweizhang0304.github.io/Stats_learning_trig/img/Stim/FN_016_g.png"",""time"":2382},{""stimulus"":""blank"",""time"":2691},{""stimulus"":""https://ziweizhang0304.github.io/Stats_learning_trig/img/Stim/FN_005_g.png"",""time"":2721.099999964237},{""stimulus"":""blank"",""time"":3032.699999988079},{""stimulus"":""https://ziweizhang0304.github.io/Stats_learning_trig/img/Stim/FN_021_g.png"",""time"":3063.2999999523163},{""stimulus"":""blank"",""time"":3374.7999999523163},{""stimulus"":""https://ziweizhang0304.github.io/Stats_learning_trig/img/Stim/FN_025_g.png"",""time"":3407.2999999523163},{""stimulus"":""blank"",""time"":3718.7999999523163},{""stimulus"":""https://ziweizhang0304.github.io/Stats_learning_trig/img/Stim/FN_007_g.png"",""time"":3745.899999976158},{""stimulus"":""blank"",""time"":4059.699999988079},{""stimulus"":""https://ziweizhang0304.github.io/Stats_learning_trig/img/Stim/FN_022_g.png"",""time"":4091.399999976158},{""stimulus"":""blank"",""time"":4404.599999964237}]","[{""key_press"":32,""rt"":1892.699999988079,""stimulus"":""https://ziweizhang0304.github.io/Stats_learning_trig/img/Stim/FN_001_g.png""}]","527.9000000357628","https://ziweizhang0304.github.io/Stats_learning_trig/img/Stim/FN_014_g.png","post_TD","22","1364.7999999523163","1892.699999988079","slow","4","1","5dcefcd0307b8d05031d7264","","","","","",""
"","image-keyboard-response","57","271390","0.0-5.0-22.0-0.0","667.6999999880791","","","https://ziweizhang0304.github.io/Stats_learning_trig/img/Stim/FN_001_g.png","13","","","","","","","","","","","","","","","","","",""
"","animation","58","275812","0.0-5.0-22.0-1.0","","","","","","[{""stimulus"":""https://ziweizhang0304.github.io/Stats_learning_trig/img/Stim/FN_016_g.png"",""time"":346.30000001192093},{""stimulus"":""blank"",""time"":658.6999999880791},{""stimulus"":""https://ziweizhang0304.github.io/Stats_learning_trig/img/Stim/FN_005_g.png"",""time"":681.6000000238419},{""stimulus"":""blank"",""time"":986.1999999880791},{""stimulus"":""https://ziweizhang0304.github.io/Stats_learning_trig/img/Stim/FN_020_g.png"",""time"":1020.9000000357628},{""stimulus"":""blank"",""time"":1326.300000011921},{""stimulus"":""https://ziweizhang0304.github.io/Stats_learning_trig/img/Stim/FN_021_g.png"",""time"":1372.800000011921},{""stimulus"":""blank"",""time"":1684},{""stimulus"":""https://ziweizhang0304.github.io/Stats_learning_trig/img/Stim/FN_018_g.png"",""time"":1702.699999988079},{""stimulus"":""blank"",""time"":2009.4000000357628},{""stimulus"":""https://ziweizhang0304.github.io/Stats_learning_trig/img/Stim/FN_013_g.png"",""time"":2040.800000011921},{""stimulus"":""blank"",""time"":2351.800000011921},{""stimulus"":""https://ziweizhang0304.github.io/Stats_learning_trig/img/Stim/FN_014_g.png"",""time"":2381.699999988079},{""stimulus"":""blank"",""time"":2697.199999988079},{""stimulus"":""https://ziweizhang0304.github.io/Stats_learning_trig/img/Stim/FN_001_g.png"",""time"":2721.400000035763},{""stimulus"":""blank"",""time"":3025.600000023842},{""stimulus"":""https://ziweizhang0304.github.io/Stats_learning_trig/img/Stim/FN_010_g.png"",""time"":3061.199999988079},{""stimulus"":""blank"",""time"":3366.400000035763},{""stimulus"":""https://ziweizhang0304.github.io/Stats_learning_trig/img/Stim/FN_025_g.png"",""time"":3401.400000035763},{""stimulus"":""blank"",""time"":3710.199999988079},{""stimulus"":""https://ziweizhang0304.github.io/Stats_learning_trig/img/Stim/FN_007_g.png"",""time"":3741.199999988079},{""stimulus"":""blank"",""time"":4047.699999988079},{""stimulus"":""https://ziweizhang0304.github.io/Stats_learning_trig/img/Stim/FN_022_g.png"",""time"":4094.600000023842},{""stimulus"":""blank"",""time"":4403.400000035763}]","[{""key_press"":32,""rt"":3074.399999976158,""stimulus"":""https://ziweizhang0304.github.io/Stats_learning_trig/img/Stim/FN_010_g.png""}]","352.99999994039536","https://ziweizhang0304.github.io/Stats_learning_trig/img/Stim/FN_001_g.png","post_TD","23","2721.400000035763","3074.399999976158","slow","8","2","5dcefcd0307b8d05031d7264","","","","","",""
"","image-keyboard-response","59","276242","0.0-5.0-23.0-0.0","427.2000000476837","","","https://ziweizhang0304.github.io/Stats_learning_trig/img/Stim/FN_015_g.png","13","","","","","","","","","","","","","","","","","",""
"","animation","60","280664","0.0-5.0-23.0-1.0","","","","","","[{""stimulus"":""https://ziweizhang0304.github.io/Stats_learning_trig/img/Stim/FN_022_g.png"",""time"":351},{""stimulus"":""blank"",""time"":663.6999999880791},{""stimulus"":""https://ziweizhang0304.github.io/Stats_learning_trig/img/Stim/FN_016_g.png"",""time"":694.6999999880791},{""stimulus"":""blank"",""time"":1008},{""stimulus"":""https://ziweizhang0304.github.io/Stats_learning_trig/img/Stim/FN_013_g.png"",""time"":1024.0999999642372},{""stimulus"":""blank"",""time"":1335.699999988079},{""stimulus"":""https://ziweizhang0304.github.io/Stats_learning_trig/img/Stim/FN_025_g.png"",""time"":1362.2999999523163},{""stimulus"":""blank"",""time"":1662.5},{""stimulus"":""https://ziweizhang0304.github.io/Stats_learning_trig/img/Stim/FN_018_g.png"",""time"":1700.8999999761581},{""stimulus"":""blank"",""time"":2005.5999999642372},{""stimulus"":""https://ziweizhang0304.github.io/Stats_learning_trig/img/Stim/FN_005_g.png"",""time"":2041.0999999642372},{""stimulus"":""blank"",""time"":2346.599999964237},{""stimulus"":""https://ziweizhang0304.github.io/Stats_learning_trig/img/Stim/FN_015_g.png"",""time"":2381.199999988079},{""stimulus"":""blank"",""time"":2684.5},{""stimulus"":""https://ziweizhang0304.github.io/Stats_learning_trig/img/Stim/FN_026_g.png"",""time"":2732.2999999523163},{""stimulus"":""blank"",""time"":3045.599999964237},{""stimulus"":""https://ziweizhang0304.github.io/Stats_learning_trig/img/Stim/FN_006_g.png"",""time"":3061.599999964237},{""stimulus"":""blank"",""time"":3370.599999964237},{""stimulus"":""https://ziweizhang0304.github.io/Stats_learning_trig/img/Stim/FN_021_g.png"",""time"":3402.699999988079},{""stimulus"":""blank"",""time"":3712.699999988079},{""stimulus"":""https://ziweizhang0304.github.io/Stats_learning_trig/img/Stim/FN_020_g.png"",""time"":3743.599999964237},{""stimulus"":""blank"",""time"":4053.099999964237},{""stimulus"":""https://ziweizhang0304.github.io/Stats_learning_trig/img/Stim/FN_007_g.png"",""time"":4082.199999988079},{""stimulus"":""blank"",""time"":4392.199999988079}]","[{""key_press"":32,""rt"":2695.400000035763,""stimulus"":""blank""}]","314.2000000476837","https://ziweizhang0304.github.io/Stats_learning_trig/img/Stim/FN_015_g.png","post_TD","24","2381.199999988079","2695.400000035763","fast","7","1","5dcefcd0307b8d05031d7264","a8517","","","","",""
"","survey-text","61","294571","0.0-6.0","13895.200000047684","","","","","","","","","","","","","","","","","","{""Q0"":""I tried to remember the pattern of when the symbols would come up.""}","","","",""
"","survey-text","62","314688","0.0-7.0","20114.19999998808","","","","","","","","","","","","","","","","","","{""[object Object]"":""I kind of saw a pattern of when the specific symbols would come out.""}","","","",""
"","instructions","63","327237","0.0-8.0","12549.099999964237","","[{""page_index"":0,""viewing_time"":12548.5}]","","","","","","","","","","","","","","","","","","","",""
"","free-sort","64","353946","0.0-9.0","26705.80000001192","","","","","","","","","post_drag","","","","fast","","","","","","[{""src"":""https://ziweizhang0304.github.io/Stats_learning_trig/img/Stim/FN_006_g.png"",""x"":475,""y"":0},{""src"":""https://ziweizhang0304.github.io/Stats_learning_trig/img/Stim/FN_026_g.png"",""x"":-225,""y"":50},{""src"":""https://ziweizhang0304.github.io/Stats_learning_trig/img/Stim/FN_015_g.png"",""x"":475,""y"":50}]","[{""src"":""https://ziweizhang0304.github.io/Stats_learning_trig/img/Stim/FN_015_g.png"",""x"":105,""y"":23},{""src"":""https://ziweizhang0304.github.io/Stats_learning_trig/img/Stim/FN_026_g.png"",""x"":205,""y"":22},{""src"":""https://ziweizhang0304.github.io/Stats_learning_trig/img/Stim/FN_015_g.png"",""x"":31,""y"":18},{""src"":""https://ziweizhang0304.github.io/Stats_learning_trig/img/Stim/FN_026_g.png"",""x"":130,""y"":22},{""src"":""https://ziweizhang0304.github.io/Stats_learning_trig/img/Stim/FN_006_g.png"",""x"":232,""y"":26},{""src"":""https://ziweizhang0304.github.io/Stats_learning_trig/img/Stim/FN_006_g.png"",""x"":232,""y"":26}]","[{""src"":""https://ziweizhang0304.github.io/Stats_learning_trig/img/Stim/FN_006_g.png"",""x"":232,""y"":26},{""src"":""https://ziweizhang0304.github.io/Stats_learning_trig/img/Stim/FN_026_g.png"",""x"":130,""y"":22},{""src"":""https://ziweizhang0304.github.io/Stats_learning_trig/img/Stim/FN_015_g.png"",""x"":31,""y"":18}]",""
"","free-sort","65","366085","0.0-10.0","12136.800000011921","","","","","","","","","post_drag","","","","slow","","","","","","[{""src"":""https://ziweizhang0304.github.io/Stats_learning_trig/img/Stim/FN_010_g.png"",""x"":475,""y"":0},{""src"":""https://ziweizhang0304.github.io/Stats_learning_trig/img/Stim/FN_001_g.png"",""x"":-225,""y"":50},{""src"":""https://ziweizhang0304.github.io/Stats_learning_trig/img/Stim/FN_014_g.png"",""x"":475,""y"":50}]","[{""src"":""https://ziweizhang0304.github.io/Stats_learning_trig/img/Stim/FN_010_g.png"",""x"":400,""y"":1},{""src"":""https://ziweizhang0304.github.io/Stats_learning_trig/img/Stim/FN_001_g.png"",""x"":30,""y"":30},{""src"":""https://ziweizhang0304.github.io/Stats_learning_trig/img/Stim/FN_010_g.png"",""x"":112,""y"":29},{""src"":""https://ziweizhang0304.github.io/Stats_learning_trig/img/Stim/FN_014_g.png"",""x"":250,""y"":28},{""src"":""https://ziweizhang0304.github.io/Stats_learning_trig/img/Stim/FN_014_g.png"",""x"":209,""y"":30}]","[{""src"":""https://ziweizhang0304.github.io/Stats_learning_trig/img/Stim/FN_010_g.png"",""x"":112,""y"":29},{""src"":""https://ziweizhang0304.github.io/Stats_learning_trig/img/Stim/FN_001_g.png"",""x"":30,""y"":30},{""src"":""https://ziweizhang0304.github.io/Stats_learning_trig/img/Stim/FN_014_g.png"",""x"":209,""y"":30}]",""
"","survey-multi-choice","66","375987","0.0-11.0","9895.300000011921","","","","","","","","","","","","","","","","5dcefcd0307b8d05031d7264","","{""awareness"":""Not sure"",""attention_check"":""Press SPACEBAR to a target""}","","","","[0,1]"
