"success","trial_type","trial_index","time_elapsed","internal_node_id","rt","url","view_history","stimulus","key_press","animation_sequence","response","TD_rt","TD_target","test_part","TD_trial_number","onset","offset","attention_state","TD_target_position","TD_within_triplet_counter","participant","yoke_participant","responses","init_locations","moves","final_locations","question_order"
"true","fullscreen","0","4146","0.0-0.0","","","","","","","","","","","","","","","","","","","","","","",""
"","external-html","1","28290","0.0-1.0","23802.900000095367","https://ziweizhang0304.github.io/Stats_learning_trig/content/consent.html","","","","","","","","","","","","","","","","","","","","",""
"","instructions","2","54244","0.0-2.0","25944.099999904633","","[{""page_index"":0,""viewing_time"":3344.5999999046326},{""page_index"":1,""viewing_time"":9046.700000047684},{""page_index"":2,""viewing_time"":10353.799999952316},{""page_index"":3,""viewing_time"":3196.7000000476837}]","","","","","","","","","","","","","","","","","","","",""
"","image-keyboard-response","3","60668","0.0-3.0-0.0-0.0","6416.200000047684","","","https://ziweizhang0304.github.io/Stats_learning_trig/img/Stim/FN_007_g.png","13","","","","","","","","","","","","","","","","","",""
"","animation","4","65096","0.0-3.0-0.0-1.0","","","","","","[{""stimulus"":""https://ziweizhang0304.github.io/Stats_learning_trig/img/Stim/FN_008_g.png"",""time"":381.2000000476837},{""stimulus"":""https://ziweizhang0304.github.io/Stats_learning_trig/img/Stim/FN_025_g.png"",""time"":683.2999999523163},{""stimulus"":""blank"",""time"":691.0999999046326},{""stimulus"":""blank"",""time"":989.0999999046326},{""stimulus"":""https://ziweizhang0304.github.io/Stats_learning_trig/img/Stim/FN_007_g.png"",""time"":1037.2999999523163},{""stimulus"":""blank"",""time"":1344.5},{""stimulus"":""https://ziweizhang0304.github.io/Stats_learning_trig/img/Stim/FN_005_g.png"",""time"":1369.8999998569489},{""stimulus"":""blank"",""time"":1676.0999999046326},{""stimulus"":""https://ziweizhang0304.github.io/Stats_learning_trig/img/Stim/FN_018_g.png"",""time"":1706.2999999523163},{""stimulus"":""blank"",""time"":2014.5},{""stimulus"":""https://ziweizhang0304.github.io/Stats_learning_trig/img/Stim/FN_012_g.png"",""time"":2048.399999856949},{""stimulus"":""blank"",""time"":2362.2999999523163},{""stimulus"":""https://ziweizhang0304.github.io/Stats_learning_trig/img/Stim/FN_023_g.png"",""time"":2388.899999856949},{""stimulus"":""blank"",""time"":2695.5},{""stimulus"":""https://ziweizhang0304.github.io/Stats_learning_trig/img/Stim/FN_017_g.png"",""time"":2729.2999999523163},{""stimulus"":""blank"",""time"":3029.7000000476837},{""stimulus"":""https://ziweizhang0304.github.io/Stats_learning_trig/img/Stim/FN_003_g.png"",""time"":3071.2999999523163},{""stimulus"":""blank"",""time"":3378.899999856949},{""stimulus"":""https://ziweizhang0304.github.io/Stats_learning_trig/img/Stim/FN_015_g.png"",""time"":3404.399999856949},{""stimulus"":""blank"",""time"":3711.399999856949},{""stimulus"":""https://ziweizhang0304.github.io/Stats_learning_trig/img/Stim/FN_026_g.png"",""time"":3744.7999999523163},{""stimulus"":""blank"",""time"":4046.2000000476837},{""stimulus"":""https://ziweizhang0304.github.io/Stats_learning_trig/img/Stim/FN_011_g.png"",""time"":4086.7999999523163},{""stimulus"":""blank"",""time"":4394}]","[{""key_press"":32,""rt"":1422.6999998092651,""stimulus"":""https://ziweizhang0304.github.io/Stats_learning_trig/img/Stim/FN_005_g.png""},{""key_press"":32,""rt"":2080.199999809265,""stimulus"":""https://ziweizhang0304.github.io/Stats_learning_trig/img/Stim/FN_012_g.png""}]","385.39999985694885","https://ziweizhang0304.github.io/Stats_learning_trig/img/Stim/FN_007_g.png","post_prac","","","","","","","","","","","","",""
"","html-keyboard-response","5","70693","0.0-3.0-0.0-2.0","5573.799999952316","","","<p>Your reaction time for this trial was 385.4 ms.</p><p>Remember that you should only press the SPACEBAR when you see the shape presented at the beginning of the trial. </b> </p><p>Press enter to move on.</p>","13","","","","","","","","","","","","","","","","","",""
"","image-keyboard-response","6","76861","0.0-3.0-1.0-0.0","6165.400000095367","","","https://ziweizhang0304.github.io/Stats_learning_trig/img/Stim/FN_011_g.png","13","","","","","","","","","","","","","","","","","",""
"","animation","7","81286","0.0-3.0-1.0-1.0","","","","","","[{""stimulus"":""https://ziweizhang0304.github.io/Stats_learning_trig/img/Stim/FN_005_g.png"",""time"":344.5},{""stimulus"":""blank"",""time"":652.4000000953674},{""stimulus"":""https://ziweizhang0304.github.io/Stats_learning_trig/img/Stim/FN_003_g.png"",""time"":687},{""stimulus"":""blank"",""time"":1001.2999999523163},{""stimulus"":""https://ziweizhang0304.github.io/Stats_learning_trig/img/Stim/FN_026_g.png"",""time"":1027.0999999046326},{""stimulus"":""blank"",""time"":1333.0999999046326},{""stimulus"":""https://ziweizhang0304.github.io/Stats_learning_trig/img/Stim/FN_023_g.png"",""time"":1366.9000000953674},{""stimulus"":""blank"",""time"":1677.2000000476837},{""stimulus"":""https://ziweizhang0304.github.io/Stats_learning_trig/img/Stim/FN_008_g.png"",""time"":1702.4000000953674},{""stimulus"":""blank"",""time"":2009},{""stimulus"":""https://ziweizhang0304.github.io/Stats_learning_trig/img/Stim/FN_017_g.png"",""time"":2044.5},{""stimulus"":""blank"",""time"":2360.0999999046326},{""stimulus"":""https://ziweizhang0304.github.io/Stats_learning_trig/img/Stim/FN_007_g.png"",""time"":2386.0999999046326},{""stimulus"":""blank"",""time"":2690.7000000476837},{""stimulus"":""https://ziweizhang0304.github.io/Stats_learning_trig/img/Stim/FN_011_g.png"",""time"":2726.7999999523163},{""stimulus"":""blank"",""time"":3033.4000000953674},{""stimulus"":""https://ziweizhang0304.github.io/Stats_learning_trig/img/Stim/FN_012_g.png"",""time"":3069.7000000476837},{""stimulus"":""blank"",""time"":3382.0999999046326},{""stimulus"":""https://ziweizhang0304.github.io/Stats_learning_trig/img/Stim/FN_018_g.png"",""time"":3409},{""stimulus"":""blank"",""time"":3714.9000000953674},{""stimulus"":""https://ziweizhang0304.github.io/Stats_learning_trig/img/Stim/FN_025_g.png"",""time"":3749.5},{""stimulus"":""blank"",""time"":4064.7999999523163},{""stimulus"":""https://ziweizhang0304.github.io/Stats_learning_trig/img/Stim/FN_015_g.png"",""time"":4082.2000000476837},{""stimulus"":""blank"",""time"":4390.099999904633}]","[{""key_press"":32,""rt"":3066.399999856949,""stimulus"":""blank""}]","339.59999990463257","https://ziweizhang0304.github.io/Stats_learning_trig/img/Stim/FN_011_g.png","post_prac","","","","","","","","","","","","",""
"","html-keyboard-response","8","84972","0.0-3.0-1.0-2.0","3672.4000000953674","","","<p>Your reaction time for this trial was 339.6 ms.</p><p>Remember that you should only press the SPACEBAR when you see the shape presented at the beginning of the trial. </b> </p><p>Press enter to move on.</p>","13","","","","","","","","","","","","","","","","","",""
"","image-keyboard-response","9","86834","0.0-3.0-2.0-0.0","1860.1000001430511","","","https://ziweizhang0304.github.io/Stats_learning_trig/img/Stim/FN_009_g.png","13","","","","","","","","","","","","","","","","","",""
"","animation","10","91259","0.0-3.0-2.0-1.0","","","","","","[{""stimulus"":""https://ziweizhang0304.github.io/Stats_learning_trig/img/Stim/FN_015_g.png"",""time"":346.2999999523163},{""stimulus"":""blank"",""time"":657.9000000953674},{""stimulus"":""https://ziweizhang0304.github.io/Stats_learning_trig/img/Stim/FN_008_g.png"",""time"":694.0999999046326},{""stimulus"":""blank"",""time"":999.7000000476837},{""stimulus"":""https://ziweizhang0304.github.io/Stats_learning_trig/img/Stim/FN_003_g.png"",""time"":1024.7000000476837},{""stimulus"":""blank"",""time"":1330.5999999046326},{""stimulus"":""https://ziweizhang0304.github.io/Stats_learning_trig/img/Stim/FN_019_g.png"",""time"":1365.2999999523163},{""stimulus"":""blank"",""time"":1667.9000000953674},{""stimulus"":""https://ziweizhang0304.github.io/Stats_learning_trig/img/Stim/FN_009_g.png"",""time"":1710.2999999523163},{""stimulus"":""blank"",""time"":2017.7000000476837},{""stimulus"":""https://ziweizhang0304.github.io/Stats_learning_trig/img/Stim/FN_013_g.png"",""time"":2043.2999999523163},{""stimulus"":""blank"",""time"":2358.7999999523163},{""stimulus"":""https://ziweizhang0304.github.io/Stats_learning_trig/img/Stim/FN_023_g.png"",""time"":2384.7999999523163},{""stimulus"":""blank"",""time"":2691},{""stimulus"":""https://ziweizhang0304.github.io/Stats_learning_trig/img/Stim/FN_018_g.png"",""time"":2726.2000000476837},{""stimulus"":""blank"",""time"":3032.7000000476837},{""stimulus"":""https://ziweizhang0304.github.io/Stats_learning_trig/img/Stim/FN_025_g.png"",""time"":3075.0999999046326},{""stimulus"":""blank"",""time"":3381.2000000476837},{""stimulus"":""https://ziweizhang0304.github.io/Stats_learning_trig/img/Stim/FN_026_g.png"",""time"":3402},{""stimulus"":""blank"",""time"":3708.7999999523163},{""stimulus"":""https://ziweizhang0304.github.io/Stats_learning_trig/img/Stim/FN_005_g.png"",""time"":3750.7000000476837},{""stimulus"":""blank"",""time"":4063.5999999046326},{""stimulus"":""https://ziweizhang0304.github.io/Stats_learning_trig/img/Stim/FN_017_g.png"",""time"":4090.9000000953674},{""stimulus"":""blank"",""time"":4407.099999904633}]","[{""key_press"":32,""rt"":2080.399999856949,""stimulus"":""https://ziweizhang0304.github.io/Stats_learning_trig/img/Stim/FN_013_g.png""}]","370.09999990463257","https://ziweizhang0304.github.io/Stats_learning_trig/img/Stim/FN_009_g.png","post_prac","","","","","","","","","","","","",""
"","html-keyboard-response","11","94089","0.0-3.0-2.0-2.0","2817.7999999523163","","","<p>Your reaction time for this trial was 370.1 ms.</p><p>Remember that you should only press the SPACEBAR when you see the shape presented at the beginning of the trial. </b> </p><p>Press enter to move on.</p>","13","","","","","","","","","","","","","","","","","",""
"","instructions","12","95863","0.0-4.0","1773.8999998569489","","[{""page_index"":0,""viewing_time"":1772.5}]","","","","","","","","","","","","","","","","","","","",""
"","image-keyboard-response","13","99408","0.0-5.0-0.0-0.0","3541","","","https://ziweizhang0304.github.io/Stats_learning_trig/img/Stim/FN_007_g.png","13","","","","","","","","","","","","","","","","","",""
"","animation","14","103844","0.0-5.0-0.0-1.0","","","","","","[{""stimulus"":""https://ziweizhang0304.github.io/Stats_learning_trig/img/Stim/FN_005_g.png"",""time"":354.39999985694885},{""stimulus"":""blank"",""time"":659.5},{""stimulus"":""https://ziweizhang0304.github.io/Stats_learning_trig/img/Stim/FN_003_g.png"",""time"":685.8999998569489},{""stimulus"":""blank"",""time"":994.0999999046326},{""stimulus"":""https://ziweizhang0304.github.io/Stats_learning_trig/img/Stim/FN_026_g.png"",""time"":1023},{""stimulus"":""blank"",""time"":1327.5},{""stimulus"":""https://ziweizhang0304.github.io/Stats_learning_trig/img/Stim/FN_023_g.png"",""time"":1362.5999999046326},{""stimulus"":""blank"",""time"":1676.8999998569489},{""stimulus"":""https://ziweizhang0304.github.io/Stats_learning_trig/img/Stim/FN_008_g.png"",""time"":1704.2000000476837},{""stimulus"":""blank"",""time"":2008.0999999046326},{""stimulus"":""https://ziweizhang0304.github.io/Stats_learning_trig/img/Stim/FN_017_g.png"",""time"":2048.2000000476837},{""stimulus"":""blank"",""time"":2360.2999999523163},{""stimulus"":""https://ziweizhang0304.github.io/Stats_learning_trig/img/Stim/FN_007_g.png"",""time"":2387},{""stimulus"":""blank"",""time"":2694},{""stimulus"":""https://ziweizhang0304.github.io/Stats_learning_trig/img/Stim/FN_011_g.png"",""time"":2730},{""stimulus"":""blank"",""time"":3034.5999999046326},{""stimulus"":""https://ziweizhang0304.github.io/Stats_learning_trig/img/Stim/FN_012_g.png"",""time"":3071.899999856949},{""stimulus"":""blank"",""time"":3374.7000000476837},{""stimulus"":""https://ziweizhang0304.github.io/Stats_learning_trig/img/Stim/FN_018_g.png"",""time"":3402.2999999523163},{""stimulus"":""blank"",""time"":3715.0999999046326},{""stimulus"":""https://ziweizhang0304.github.io/Stats_learning_trig/img/Stim/FN_025_g.png"",""time"":3748.399999856949},{""stimulus"":""blank"",""time"":4055.2000000476837},{""stimulus"":""https://ziweizhang0304.github.io/Stats_learning_trig/img/Stim/FN_015_g.png"",""time"":4085.399999856949},{""stimulus"":""blank"",""time"":4392}]","[]","NaN","https://ziweizhang0304.github.io/Stats_learning_trig/img/Stim/FN_007_g.png","post_TD","1","2387","","fast","7","1","60e8a63f733f423be3da1846","","","","","",""
"","image-keyboard-response","15","109266","0.0-5.0-1.0-0.0","5412.799999952316","","","https://ziweizhang0304.github.io/Stats_learning_trig/img/Stim/FN_011_g.png","13","","","","","","","","","","","","","","","","","",""
"","animation","16","113689","0.0-5.0-1.0-1.0","","","","","","[{""stimulus"":""https://ziweizhang0304.github.io/Stats_learning_trig/img/Stim/FN_005_g.png"",""time"":354},{""stimulus"":""blank"",""time"":669.5999999046326},{""stimulus"":""https://ziweizhang0304.github.io/Stats_learning_trig/img/Stim/FN_003_g.png"",""time"":697},{""stimulus"":""blank"",""time"":1005},{""stimulus"":""https://ziweizhang0304.github.io/Stats_learning_trig/img/Stim/FN_026_g.png"",""time"":1023.1999998092651},{""stimulus"":""blank"",""time"":1337.0999999046326},{""stimulus"":""https://ziweizhang0304.github.io/Stats_learning_trig/img/Stim/FN_023_g.png"",""time"":1362.3999998569489},{""stimulus"":""blank"",""time"":1668.5},{""stimulus"":""https://ziweizhang0304.github.io/Stats_learning_trig/img/Stim/FN_008_g.png"",""time"":1702.5999999046326},{""stimulus"":""blank"",""time"":2007.3999998569489},{""stimulus"":""https://ziweizhang0304.github.io/Stats_learning_trig/img/Stim/FN_017_g.png"",""time"":2058.399999856949},{""stimulus"":""blank"",""time"":2367.5999999046326},{""stimulus"":""https://ziweizhang0304.github.io/Stats_learning_trig/img/Stim/FN_007_g.png"",""time"":2385.0999999046326},{""stimulus"":""blank"",""time"":2706.399999856949},{""stimulus"":""https://ziweizhang0304.github.io/Stats_learning_trig/img/Stim/FN_011_g.png"",""time"":2733.0999999046326},{""stimulus"":""blank"",""time"":3037.5999999046326},{""stimulus"":""https://ziweizhang0304.github.io/Stats_learning_trig/img/Stim/FN_012_g.png"",""time"":3064.699999809265},{""stimulus"":""blank"",""time"":3370.2999999523163},{""stimulus"":""https://ziweizhang0304.github.io/Stats_learning_trig/img/Stim/FN_018_g.png"",""time"":3404.0999999046326},{""stimulus"":""blank"",""time"":3708.5},{""stimulus"":""https://ziweizhang0304.github.io/Stats_learning_trig/img/Stim/FN_025_g.png"",""time"":3749.5999999046326},{""stimulus"":""blank"",""time"":4064.699999809265},{""stimulus"":""https://ziweizhang0304.github.io/Stats_learning_trig/img/Stim/FN_015_g.png"",""time"":4082.899999856949},{""stimulus"":""blank"",""time"":4389.5}]","[{""key_press"":32,""rt"":3062.100000143051,""stimulus"":""blank""}]","329.0000002384186","https://ziweizhang0304.github.io/Stats_learning_trig/img/Stim/FN_011_g.png","post_TD","2","2733.0999999046326","3062.100000143051","fast","8","2","60e8a63f733f423be3da1846","","","","","",""
"","image-keyboard-response","17","115559","0.0-5.0-2.0-0.0","1860.8999998569489","","","https://ziweizhang0304.github.io/Stats_learning_trig/img/Stim/FN_013_g.png","13","","","","","","","","","","","","","","","","","",""
"","animation","18","119983","0.0-5.0-2.0-1.0","","","","","","[{""stimulus"":""https://ziweizhang0304.github.io/Stats_learning_trig/img/Stim/FN_025_g.png"",""time"":354.7999999523163},{""stimulus"":""blank"",""time"":661.2999999523163},{""stimulus"":""https://ziweizhang0304.github.io/Stats_learning_trig/img/Stim/FN_008_g.png"",""time"":687.3999998569489},{""stimulus"":""blank"",""time"":994.5},{""stimulus"":""https://ziweizhang0304.github.io/Stats_learning_trig/img/Stim/FN_015_g.png"",""time"":1028.0999999046326},{""stimulus"":""blank"",""time"":1343.1999998092651},{""stimulus"":""https://ziweizhang0304.github.io/Stats_learning_trig/img/Stim/FN_026_g.png"",""time"":1369.8999998569489},{""stimulus"":""blank"",""time"":1676.5},{""stimulus"":""https://ziweizhang0304.github.io/Stats_learning_trig/img/Stim/FN_005_g.png"",""time"":1703},{""stimulus"":""blank"",""time"":2005.5999999046326},{""stimulus"":""https://ziweizhang0304.github.io/Stats_learning_trig/img/Stim/FN_019_g.png"",""time"":2056.699999809265},{""stimulus"":""blank"",""time"":2371.5999999046326},{""stimulus"":""https://ziweizhang0304.github.io/Stats_learning_trig/img/Stim/FN_009_g.png"",""time"":2398.2999999523163},{""stimulus"":""blank"",""time"":2703.399999856949},{""stimulus"":""https://ziweizhang0304.github.io/Stats_learning_trig/img/Stim/FN_013_g.png"",""time"":2728.5},{""stimulus"":""blank"",""time"":3033.2999999523163},{""stimulus"":""https://ziweizhang0304.github.io/Stats_learning_trig/img/Stim/FN_023_g.png"",""time"":3063.699999809265},{""stimulus"":""blank"",""time"":3370.5},{""stimulus"":""https://ziweizhang0304.github.io/Stats_learning_trig/img/Stim/FN_018_g.png"",""time"":3404.2999999523163},{""stimulus"":""blank"",""time"":3707.5999999046326},{""stimulus"":""https://ziweizhang0304.github.io/Stats_learning_trig/img/Stim/FN_017_g.png"",""time"":3750.0999999046326},{""stimulus"":""blank"",""time"":4066.7999999523163},{""stimulus"":""https://ziweizhang0304.github.io/Stats_learning_trig/img/Stim/FN_003_g.png"",""time"":4084},{""stimulus"":""blank"",""time"":4390.699999809265}]","[{""key_press"":32,""rt"":2395.2999999523163,""stimulus"":""blank""},{""key_press"":32,""rt"":3542.4000000953674,""stimulus"":""https://ziweizhang0304.github.io/Stats_learning_trig/img/Stim/FN_018_g.png""}]","813.9000000953674","https://ziweizhang0304.github.io/Stats_learning_trig/img/Stim/FN_013_g.png","post_TD","3","2728.5","3542.4000000953674","slow","8","3","60e8a63f733f423be3da1846","","","","","",""
"","image-keyboard-response","19","121924","0.0-5.0-3.0-0.0","1930.4000000953674","","","https://ziweizhang0304.github.io/Stats_learning_trig/img/Stim/FN_012_g.png","13","","","","","","","","","","","","","","","","","",""
"","animation","20","126349","0.0-5.0-3.0-1.0","","","","","","[{""stimulus"":""https://ziweizhang0304.github.io/Stats_learning_trig/img/Stim/FN_017_g.png"",""time"":346.5},{""stimulus"":""blank"",""time"":652.7999999523163},{""stimulus"":""https://ziweizhang0304.github.io/Stats_learning_trig/img/Stim/FN_023_g.png"",""time"":686.2999999523163},{""stimulus"":""blank"",""time"":999.7000000476837},{""stimulus"":""https://ziweizhang0304.github.io/Stats_learning_trig/img/Stim/FN_008_g.png"",""time"":1025},{""stimulus"":""blank"",""time"":1330.7000000476837},{""stimulus"":""https://ziweizhang0304.github.io/Stats_learning_trig/img/Stim/FN_007_g.png"",""time"":1365.2000000476837},{""stimulus"":""blank"",""time"":1668.5},{""stimulus"":""https://ziweizhang0304.github.io/Stats_learning_trig/img/Stim/FN_011_g.png"",""time"":1702.0999999046326},{""stimulus"":""blank"",""time"":2010.7999999523163},{""stimulus"":""https://ziweizhang0304.github.io/Stats_learning_trig/img/Stim/FN_012_g.png"",""time"":2044.7000000476837},{""stimulus"":""blank"",""time"":2345.899999856949},{""stimulus"":""https://ziweizhang0304.github.io/Stats_learning_trig/img/Stim/FN_018_g.png"",""time"":2394.0999999046326},{""stimulus"":""blank"",""time"":2713.399999856949},{""stimulus"":""https://ziweizhang0304.github.io/Stats_learning_trig/img/Stim/FN_025_g.png"",""time"":2723.2999999523163},{""stimulus"":""blank"",""time"":3028.0999999046326},{""stimulus"":""https://ziweizhang0304.github.io/Stats_learning_trig/img/Stim/FN_015_g.png"",""time"":3062.7000000476837},{""stimulus"":""blank"",""time"":3376},{""stimulus"":""https://ziweizhang0304.github.io/Stats_learning_trig/img/Stim/FN_026_g.png"",""time"":3409.5},{""stimulus"":""blank"",""time"":3716.2000000476837},{""stimulus"":""https://ziweizhang0304.github.io/Stats_learning_trig/img/Stim/FN_005_g.png"",""time"":3742.0999999046326},{""stimulus"":""blank"",""time"":4058.2999999523163},{""stimulus"":""https://ziweizhang0304.github.io/Stats_learning_trig/img/Stim/FN_003_g.png"",""time"":4084.2000000476837},{""stimulus"":""blank"",""time"":4396.399999856949}]","[{""key_press"":32,""rt"":2390.600000143051,""stimulus"":""blank""}]","345.90000009536743","https://ziweizhang0304.github.io/Stats_learning_trig/img/Stim/FN_012_g.png","post_TD","4","2044.7000000476837","2390.600000143051","fast","6","3","60e8a63f733f423be3da1846","","","","","",""
"","image-keyboard-response","21","128384","0.0-5.0-4.0-0.0","2026.5","","","https://ziweizhang0304.github.io/Stats_learning_trig/img/Stim/FN_019_g.png","13","","","","","","","","","","","","","","","","","",""
"","animation","22","132808","0.0-5.0-4.0-1.0","","","","","","[{""stimulus"":""https://ziweizhang0304.github.io/Stats_learning_trig/img/Stim/FN_025_g.png"",""time"":347.7999999523163},{""stimulus"":""blank"",""time"":661.7000000476837},{""stimulus"":""https://ziweizhang0304.github.io/Stats_learning_trig/img/Stim/FN_008_g.png"",""time"":687.9000000953674},{""stimulus"":""blank"",""time"":988.5},{""stimulus"":""https://ziweizhang0304.github.io/Stats_learning_trig/img/Stim/FN_015_g.png"",""time"":1022.7999999523163},{""stimulus"":""blank"",""time"":1329},{""stimulus"":""https://ziweizhang0304.github.io/Stats_learning_trig/img/Stim/FN_026_g.png"",""time"":1362.7000000476837},{""stimulus"":""blank"",""time"":1667.7000000476837},{""stimulus"":""https://ziweizhang0304.github.io/Stats_learning_trig/img/Stim/FN_005_g.png"",""time"":1710},{""stimulus"":""blank"",""time"":2014.2999999523163},{""stimulus"":""https://ziweizhang0304.github.io/Stats_learning_trig/img/Stim/FN_019_g.png"",""time"":2043.0999999046326},{""stimulus"":""blank"",""time"":2349.9000000953674},{""stimulus"":""https://ziweizhang0304.github.io/Stats_learning_trig/img/Stim/FN_009_g.png"",""time"":2383.2999999523163},{""stimulus"":""blank"",""time"":2698.7999999523163},{""stimulus"":""https://ziweizhang0304.github.io/Stats_learning_trig/img/Stim/FN_013_g.png"",""time"":2725.7999999523163},{""stimulus"":""blank"",""time"":3040.5999999046326},{""stimulus"":""https://ziweizhang0304.github.io/Stats_learning_trig/img/Stim/FN_023_g.png"",""time"":3066.5999999046326},{""stimulus"":""blank"",""time"":3373.2999999523163},{""stimulus"":""https://ziweizhang0304.github.io/Stats_learning_trig/img/Stim/FN_018_g.png"",""time"":3407.2999999523163},{""stimulus"":""blank"",""time"":3713.2999999523163},{""stimulus"":""https://ziweizhang0304.github.io/Stats_learning_trig/img/Stim/FN_017_g.png"",""time"":3756.9000000953674},{""stimulus"":""blank"",""time"":4063.7999999523163},{""stimulus"":""https://ziweizhang0304.github.io/Stats_learning_trig/img/Stim/FN_003_g.png"",""time"":4089.7999999523163},{""stimulus"":""blank"",""time"":4396.5}]","[{""key_press"":32,""rt"":2432.2000000476837,""stimulus"":""https://ziweizhang0304.github.io/Stats_learning_trig/img/Stim/FN_009_g.png""}]","389.10000014305115","https://ziweizhang0304.github.io/Stats_learning_trig/img/Stim/FN_019_g.png","post_TD","5","2043.0999999046326","2432.2000000476837","slow","6","1","60e8a63f733f423be3da1846","","","","","",""
"","image-keyboard-response","23","134094","0.0-5.0-5.0-0.0","1279.7999999523163","","","https://ziweizhang0304.github.io/Stats_learning_trig/img/Stim/FN_011_g.png","13","","","","","","","","","","","","","","","","","",""
"","animation","24","138518","0.0-5.0-5.0-1.0","","","","","","[{""stimulus"":""https://ziweizhang0304.github.io/Stats_learning_trig/img/Stim/FN_017_g.png"",""time"":348.40000009536743},{""stimulus"":""blank"",""time"":660.7000000476837},{""stimulus"":""https://ziweizhang0304.github.io/Stats_learning_trig/img/Stim/FN_023_g.png"",""time"":686.7999999523163},{""stimulus"":""blank"",""time"":993.5},{""stimulus"":""https://ziweizhang0304.github.io/Stats_learning_trig/img/Stim/FN_008_g.png"",""time"":1028.2999999523163},{""stimulus"":""blank"",""time"":1335},{""stimulus"":""https://ziweizhang0304.github.io/Stats_learning_trig/img/Stim/FN_007_g.png"",""time"":1377.0999999046326},{""stimulus"":""blank"",""time"":1683.4000000953674},{""stimulus"":""https://ziweizhang0304.github.io/Stats_learning_trig/img/Stim/FN_011_g.png"",""time"":1701.5},{""stimulus"":""blank"",""time"":2008.5999999046326},{""stimulus"":""https://ziweizhang0304.github.io/Stats_learning_trig/img/Stim/FN_012_g.png"",""time"":2043.7999999523163},{""stimulus"":""blank"",""time"":2350.5},{""stimulus"":""https://ziweizhang0304.github.io/Stats_learning_trig/img/Stim/FN_018_g.png"",""time"":2383.9000000953674},{""stimulus"":""blank"",""time"":2693.5},{""stimulus"":""https://ziweizhang0304.github.io/Stats_learning_trig/img/Stim/FN_025_g.png"",""time"":2726.5999999046326},{""stimulus"":""blank"",""time"":3033.0999999046326},{""stimulus"":""https://ziweizhang0304.github.io/Stats_learning_trig/img/Stim/FN_015_g.png"",""time"":3066.5},{""stimulus"":""blank"",""time"":3375.0999999046326},{""stimulus"":""https://ziweizhang0304.github.io/Stats_learning_trig/img/Stim/FN_026_g.png"",""time"":3408},{""stimulus"":""blank"",""time"":3714.7000000476837},{""stimulus"":""https://ziweizhang0304.github.io/Stats_learning_trig/img/Stim/FN_005_g.png"",""time"":3748.4000000953674},{""stimulus"":""blank"",""time"":4064.4000000953674},{""stimulus"":""https://ziweizhang0304.github.io/Stats_learning_trig/img/Stim/FN_003_g.png"",""time"":4082.4000000953674},{""stimulus"":""blank"",""time"":4388.900000095367}]","[{""key_press"":32,""rt"":2103,""stimulus"":""https://ziweizhang0304.github.io/Stats_learning_trig/img/Stim/FN_012_g.png""}]","401.5","https://ziweizhang0304.github.io/Stats_learning_trig/img/Stim/FN_011_g.png","post_TD","6","1701.5","2103","fast","5","2","60e8a63f733f423be3da1846","","","","","",""
"","image-keyboard-response","25","139621","0.0-5.0-6.0-0.0","1093.2000000476837","","","https://ziweizhang0304.github.io/Stats_learning_trig/img/Stim/FN_019_g.png","13","","","","","","","","","","","","","","","","","",""
"","animation","26","144046","0.0-5.0-6.0-1.0","","","","","","[{""stimulus"":""https://ziweizhang0304.github.io/Stats_learning_trig/img/Stim/FN_026_g.png"",""time"":346.7999999523163},{""stimulus"":""blank"",""time"":662.2999999523163},{""stimulus"":""https://ziweizhang0304.github.io/Stats_learning_trig/img/Stim/FN_018_g.png"",""time"":684.2999999523163},{""stimulus"":""blank"",""time"":992.4000000953674},{""stimulus"":""https://ziweizhang0304.github.io/Stats_learning_trig/img/Stim/FN_008_g.png"",""time"":1028.2000000476837},{""stimulus"":""blank"",""time"":1335.2999999523163},{""stimulus"":""https://ziweizhang0304.github.io/Stats_learning_trig/img/Stim/FN_025_g.png"",""time"":1368.7999999523163},{""stimulus"":""blank"",""time"":1679.2000000476837},{""stimulus"":""https://ziweizhang0304.github.io/Stats_learning_trig/img/Stim/FN_019_g.png"",""time"":1704.4000000953674},{""stimulus"":""blank"",""time"":2017},{""stimulus"":""https://ziweizhang0304.github.io/Stats_learning_trig/img/Stim/FN_009_g.png"",""time"":2043.7000000476837},{""stimulus"":""blank"",""time"":2351},{""stimulus"":""https://ziweizhang0304.github.io/Stats_learning_trig/img/Stim/FN_013_g.png"",""time"":2384.5999999046326},{""stimulus"":""blank"",""time"":2699.2000000476837},{""stimulus"":""https://ziweizhang0304.github.io/Stats_learning_trig/img/Stim/FN_023_g.png"",""time"":2726.2999999523163},{""stimulus"":""blank"",""time"":3033.2000000476837},{""stimulus"":""https://ziweizhang0304.github.io/Stats_learning_trig/img/Stim/FN_015_g.png"",""time"":3066.7000000476837},{""stimulus"":""blank"",""time"":3378},{""stimulus"":""https://ziweizhang0304.github.io/Stats_learning_trig/img/Stim/FN_005_g.png"",""time"":3403.2999999523163},{""stimulus"":""blank"",""time"":3715},{""stimulus"":""https://ziweizhang0304.github.io/Stats_learning_trig/img/Stim/FN_017_g.png"",""time"":3741.5},{""stimulus"":""blank"",""time"":4047.7999999523163},{""stimulus"":""https://ziweizhang0304.github.io/Stats_learning_trig/img/Stim/FN_003_g.png"",""time"":4082.2000000476837},{""stimulus"":""blank"",""time"":4406.900000095367}]","[{""key_press"":32,""rt"":2070.0999999046326,""stimulus"":""https://ziweizhang0304.github.io/Stats_learning_trig/img/Stim/FN_009_g.png""}]","365.69999980926514","https://ziweizhang0304.github.io/Stats_learning_trig/img/Stim/FN_019_g.png","post_TD","7","1704.4000000953674","2070.0999999046326","slow","5","1","60e8a63f733f423be3da1846","","","","","",""
"","image-keyboard-response","27","145071","0.0-5.0-7.0-0.0","1012.5999999046326","","","https://ziweizhang0304.github.io/Stats_learning_trig/img/Stim/FN_011_g.png","13","","","","","","","","","","","","","","","","","",""
"","animation","28","149495","0.0-5.0-7.0-1.0","","","","","","[{""stimulus"":""https://ziweizhang0304.github.io/Stats_learning_trig/img/Stim/FN_003_g.png"",""time"":355.10000014305115},{""stimulus"":""blank"",""time"":662.9000000953674},{""stimulus"":""https://ziweizhang0304.github.io/Stats_learning_trig/img/Stim/FN_018_g.png"",""time"":689},{""stimulus"":""blank"",""time"":996.6000001430511},{""stimulus"":""https://ziweizhang0304.github.io/Stats_learning_trig/img/Stim/FN_023_g.png"",""time"":1021.9000000953674},{""stimulus"":""blank"",""time"":1328.9000000953674},{""stimulus"":""https://ziweizhang0304.github.io/Stats_learning_trig/img/Stim/FN_025_g.png"",""time"":1362.4000000953674},{""stimulus"":""blank"",""time"":1672.7000000476837},{""stimulus"":""https://ziweizhang0304.github.io/Stats_learning_trig/img/Stim/FN_007_g.png"",""time"":1704.7999999523163},{""stimulus"":""blank"",""time"":2011.2999999523163},{""stimulus"":""https://ziweizhang0304.github.io/Stats_learning_trig/img/Stim/FN_011_g.png"",""time"":2044.9000000953674},{""stimulus"":""blank"",""time"":2360.100000143051},{""stimulus"":""https://ziweizhang0304.github.io/Stats_learning_trig/img/Stim/FN_012_g.png"",""time"":2387.2000000476837},{""stimulus"":""blank"",""time"":2702.7999999523163},{""stimulus"":""https://ziweizhang0304.github.io/Stats_learning_trig/img/Stim/FN_015_g.png"",""time"":2728.9000000953674},{""stimulus"":""blank"",""time"":3034},{""stimulus"":""https://ziweizhang0304.github.io/Stats_learning_trig/img/Stim/FN_026_g.png"",""time"":3069.7999999523163},{""stimulus"":""blank"",""time"":3376.5},{""stimulus"":""https://ziweizhang0304.github.io/Stats_learning_trig/img/Stim/FN_008_g.png"",""time"":3402.7999999523163},{""stimulus"":""blank"",""time"":3710.7000000476837},{""stimulus"":""https://ziweizhang0304.github.io/Stats_learning_trig/img/Stim/FN_005_g.png"",""time"":3744.2999999523163},{""stimulus"":""blank"",""time"":4048.7999999523163},{""stimulus"":""https://ziweizhang0304.github.io/Stats_learning_trig/img/Stim/FN_017_g.png"",""time"":4084.2000000476837},{""stimulus"":""blank"",""time"":4390.299999952316}]","[{""key_press"":32,""rt"":2432.5,""stimulus"":""https://ziweizhang0304.github.io/Stats_learning_trig/img/Stim/FN_012_g.png""}]","387.59999990463257","https://ziweizhang0304.github.io/Stats_learning_trig/img/Stim/FN_011_g.png","post_TD","8","2044.9000000953674","2432.5","fast","6","2","60e8a63f733f423be3da1846","","","","","",""
"","image-keyboard-response","29","150780","0.0-5.0-8.0-0.0","1276.7000000476837","","","https://ziweizhang0304.github.io/Stats_learning_trig/img/Stim/FN_009_g.png","13","","","","","","","","","","","","","","","","","",""
"","animation","30","155206","0.0-5.0-8.0-1.0","","","","","","[{""stimulus"":""https://ziweizhang0304.github.io/Stats_learning_trig/img/Stim/FN_026_g.png"",""time"":345.7999999523163},{""stimulus"":""blank"",""time"":655.1000001430511},{""stimulus"":""https://ziweizhang0304.github.io/Stats_learning_trig/img/Stim/FN_023_g.png"",""time"":690.4000000953674},{""stimulus"":""blank"",""time"":996.5},{""stimulus"":""https://ziweizhang0304.github.io/Stats_learning_trig/img/Stim/FN_018_g.png"",""time"":1030},{""stimulus"":""blank"",""time"":1345.1000001430511},{""stimulus"":""https://ziweizhang0304.github.io/Stats_learning_trig/img/Stim/FN_017_g.png"",""time"":1362.2000000476837},{""stimulus"":""blank"",""time"":1669.4000000953674},{""stimulus"":""https://ziweizhang0304.github.io/Stats_learning_trig/img/Stim/FN_008_g.png"",""time"":1705.2999999523163},{""stimulus"":""blank"",""time"":2012.2999999523163},{""stimulus"":""https://ziweizhang0304.github.io/Stats_learning_trig/img/Stim/FN_005_g.png"",""time"":2046.1000001430511},{""stimulus"":""blank"",""time"":2360.7000000476837},{""stimulus"":""https://ziweizhang0304.github.io/Stats_learning_trig/img/Stim/FN_019_g.png"",""time"":2387.9000000953674},{""stimulus"":""blank"",""time"":2692.9000000953674},{""stimulus"":""https://ziweizhang0304.github.io/Stats_learning_trig/img/Stim/FN_009_g.png"",""time"":2726.7999999523163},{""stimulus"":""blank"",""time"":3031.600000143051},{""stimulus"":""https://ziweizhang0304.github.io/Stats_learning_trig/img/Stim/FN_013_g.png"",""time"":3065.2000000476837},{""stimulus"":""blank"",""time"":3376.100000143051},{""stimulus"":""https://ziweizhang0304.github.io/Stats_learning_trig/img/Stim/FN_025_g.png"",""time"":3403.100000143051},{""stimulus"":""blank"",""time"":3709.2999999523163},{""stimulus"":""https://ziweizhang0304.github.io/Stats_learning_trig/img/Stim/FN_015_g.png"",""time"":3743.600000143051},{""stimulus"":""blank"",""time"":4047.100000143051},{""stimulus"":""https://ziweizhang0304.github.io/Stats_learning_trig/img/Stim/FN_003_g.png"",""time"":4085.5},{""stimulus"":""blank"",""time"":4392.200000047684}]","[{""key_press"":32,""rt"":3028.5,""stimulus"":""https://ziweizhang0304.github.io/Stats_learning_trig/img/Stim/FN_009_g.png""}]","301.7000000476837","https://ziweizhang0304.github.io/Stats_learning_trig/img/Stim/FN_009_g.png","post_TD","9","2726.7999999523163","3028.5","slow","8","2","60e8a63f733f423be3da1846","","","","","",""
"","image-keyboard-response","31","156734","0.0-5.0-9.0-0.0","1514.1000001430511","","","https://ziweizhang0304.github.io/Stats_learning_trig/img/Stim/FN_007_g.png","13","","","","","","","","","","","","","","","","","",""
"","animation","32","161159","0.0-5.0-9.0-1.0","","","","","","[{""stimulus"":""https://ziweizhang0304.github.io/Stats_learning_trig/img/Stim/FN_003_g.png"",""time"":344.2999999523163},{""stimulus"":""blank"",""time"":650.7999999523163},{""stimulus"":""https://ziweizhang0304.github.io/Stats_learning_trig/img/Stim/FN_018_g.png"",""time"":685.2000000476837},{""stimulus"":""blank"",""time"":1001.9000000953674},{""stimulus"":""https://ziweizhang0304.github.io/Stats_learning_trig/img/Stim/FN_023_g.png"",""time"":1029},{""stimulus"":""blank"",""time"":1336},{""stimulus"":""https://ziweizhang0304.github.io/Stats_learning_trig/img/Stim/FN_025_g.png"",""time"":1365.7000000476837},{""stimulus"":""blank"",""time"":1670.9000000953674},{""stimulus"":""https://ziweizhang0304.github.io/Stats_learning_trig/img/Stim/FN_007_g.png"",""time"":1705},{""stimulus"":""blank"",""time"":2017.2000000476837},{""stimulus"":""https://ziweizhang0304.github.io/Stats_learning_trig/img/Stim/FN_011_g.png"",""time"":2044.7000000476837},{""stimulus"":""blank"",""time"":2350.7999999523163},{""stimulus"":""https://ziweizhang0304.github.io/Stats_learning_trig/img/Stim/FN_012_g.png"",""time"":2393.100000143051},{""stimulus"":""blank"",""time"":2697.4000000953674},{""stimulus"":""https://ziweizhang0304.github.io/Stats_learning_trig/img/Stim/FN_015_g.png"",""time"":2723.7999999523163},{""stimulus"":""blank"",""time"":3030.2999999523163},{""stimulus"":""https://ziweizhang0304.github.io/Stats_learning_trig/img/Stim/FN_026_g.png"",""time"":3064.100000143051},{""stimulus"":""blank"",""time"":3366.2000000476837},{""stimulus"":""https://ziweizhang0304.github.io/Stats_learning_trig/img/Stim/FN_008_g.png"",""time"":3416.4000000953674},{""stimulus"":""blank"",""time"":3724.2999999523163},{""stimulus"":""https://ziweizhang0304.github.io/Stats_learning_trig/img/Stim/FN_005_g.png"",""time"":3742.2000000476837},{""stimulus"":""blank"",""time"":4052.600000143051},{""stimulus"":""https://ziweizhang0304.github.io/Stats_learning_trig/img/Stim/FN_017_g.png"",""time"":4086.100000143051},{""stimulus"":""blank"",""time"":4398}]","[{""key_press"":32,""rt"":2119.199999809265,""stimulus"":""https://ziweizhang0304.github.io/Stats_learning_trig/img/Stim/FN_011_g.png""}]","414.19999980926514","https://ziweizhang0304.github.io/Stats_learning_trig/img/Stim/FN_007_g.png","post_TD","10","1705","2119.199999809265","fast","5","1","60e8a63f733f423be3da1846","","","","","",""
"","image-keyboard-response","33","161962","0.0-5.0-10.0-0.0","789.1999998092651","","","https://ziweizhang0304.github.io/Stats_learning_trig/img/Stim/FN_019_g.png","13","","","","","","","","","","","","","","","","","",""
"","animation","34","166386","0.0-5.0-10.0-1.0","","","","","","[{""stimulus"":""https://ziweizhang0304.github.io/Stats_learning_trig/img/Stim/FN_026_g.png"",""time"":349.09999990463257},{""stimulus"":""blank"",""time"":651},{""stimulus"":""https://ziweizhang0304.github.io/Stats_learning_trig/img/Stim/FN_023_g.png"",""time"":685.2999999523163},{""stimulus"":""blank"",""time"":994.2000000476837},{""stimulus"":""https://ziweizhang0304.github.io/Stats_learning_trig/img/Stim/FN_018_g.png"",""time"":1028.2000000476837},{""stimulus"":""blank"",""time"":1334.7000000476837},{""stimulus"":""https://ziweizhang0304.github.io/Stats_learning_trig/img/Stim/FN_017_g.png"",""time"":1377.2000000476837},{""stimulus"":""blank"",""time"":1679.7999999523163},{""stimulus"":""https://ziweizhang0304.github.io/Stats_learning_trig/img/Stim/FN_008_g.png"",""time"":1705.8999998569489},{""stimulus"":""blank"",""time"":2012.8999998569489},{""stimulus"":""https://ziweizhang0304.github.io/Stats_learning_trig/img/Stim/FN_005_g.png"",""time"":2043.7999999523163},{""stimulus"":""blank"",""time"":2350.7999999523163},{""stimulus"":""https://ziweizhang0304.github.io/Stats_learning_trig/img/Stim/FN_019_g.png"",""time"":2384.5},{""stimulus"":""blank"",""time"":2699.2000000476837},{""stimulus"":""https://ziweizhang0304.github.io/Stats_learning_trig/img/Stim/FN_009_g.png"",""time"":2727.2000000476837},{""stimulus"":""blank"",""time"":3041.899999856949},{""stimulus"":""https://ziweizhang0304.github.io/Stats_learning_trig/img/Stim/FN_013_g.png"",""time"":3067.2000000476837},{""stimulus"":""blank"",""time"":3372.7000000476837},{""stimulus"":""https://ziweizhang0304.github.io/Stats_learning_trig/img/Stim/FN_025_g.png"",""time"":3408.399999856949},{""stimulus"":""blank"",""time"":3715.2999999523163},{""stimulus"":""https://ziweizhang0304.github.io/Stats_learning_trig/img/Stim/FN_015_g.png"",""time"":3749},{""stimulus"":""blank"",""time"":4062.7000000476837},{""stimulus"":""https://ziweizhang0304.github.io/Stats_learning_trig/img/Stim/FN_003_g.png"",""time"":4081.899999856949},{""stimulus"":""blank"",""time"":4388.200000047684}]","[{""key_press"":32,""rt"":2710.2000000476837,""stimulus"":""blank""}]","325.7000000476837","https://ziweizhang0304.github.io/Stats_learning_trig/img/Stim/FN_019_g.png","post_TD","11","2384.5","2710.2000000476837","slow","7","1","60e8a63f733f423be3da1846","","","","","",""
"","image-keyboard-response","35","167105","0.0-5.0-11.0-0.0","709.8999998569489","","","https://ziweizhang0304.github.io/Stats_learning_trig/img/Stim/FN_012_g.png","13","","","","","","","","","","","","","","","","","",""
"","animation","36","171530","0.0-5.0-11.0-1.0","","","","","","[{""stimulus"":""https://ziweizhang0304.github.io/Stats_learning_trig/img/Stim/FN_005_g.png"",""time"":346.5},{""stimulus"":""blank"",""time"":649.9000000953674},{""stimulus"":""https://ziweizhang0304.github.io/Stats_learning_trig/img/Stim/FN_008_g.png"",""time"":683.7000000476837},{""stimulus"":""blank"",""time"":996.9000000953674},{""stimulus"":""https://ziweizhang0304.github.io/Stats_learning_trig/img/Stim/FN_025_g.png"",""time"":1022.5999999046326},{""stimulus"":""blank"",""time"":1328.5999999046326},{""stimulus"":""https://ziweizhang0304.github.io/Stats_learning_trig/img/Stim/FN_003_g.png"",""time"":1362.7999999523163},{""stimulus"":""blank"",""time"":1669.4000000953674},{""stimulus"":""https://ziweizhang0304.github.io/Stats_learning_trig/img/Stim/FN_023_g.png"",""time"":1702.7999999523163},{""stimulus"":""blank"",""time"":2016.7000000476837},{""stimulus"":""https://ziweizhang0304.github.io/Stats_learning_trig/img/Stim/FN_007_g.png"",""time"":2044.5999999046326},{""stimulus"":""blank"",""time"":2346.2999999523163},{""stimulus"":""https://ziweizhang0304.github.io/Stats_learning_trig/img/Stim/FN_011_g.png"",""time"":2396.5999999046326},{""stimulus"":""blank"",""time"":2711.2999999523163},{""stimulus"":""https://ziweizhang0304.github.io/Stats_learning_trig/img/Stim/FN_012_g.png"",""time"":2728.5},{""stimulus"":""blank"",""time"":3042.7000000476837},{""stimulus"":""https://ziweizhang0304.github.io/Stats_learning_trig/img/Stim/FN_018_g.png"",""time"":3067.7999999523163},{""stimulus"":""blank"",""time"":3374.0999999046326},{""stimulus"":""https://ziweizhang0304.github.io/Stats_learning_trig/img/Stim/FN_015_g.png"",""time"":3411},{""stimulus"":""blank"",""time"":3726.9000000953674},{""stimulus"":""https://ziweizhang0304.github.io/Stats_learning_trig/img/Stim/FN_026_g.png"",""time"":3743.9000000953674},{""stimulus"":""blank"",""time"":4058.2000000476837},{""stimulus"":""https://ziweizhang0304.github.io/Stats_learning_trig/img/Stim/FN_017_g.png"",""time"":4083.4000000953674},{""stimulus"":""blank"",""time"":4389.599999904633}]","[{""key_press"":32,""rt"":2767.4000000953674,""stimulus"":""https://ziweizhang0304.github.io/Stats_learning_trig/img/Stim/FN_012_g.png""}]","38.90000009536743","https://ziweizhang0304.github.io/Stats_learning_trig/img/Stim/FN_012_g.png","post_TD","12","2728.5","2767.4000000953674","fast","8","3","60e8a63f733f423be3da1846","","","","","",""
"","image-keyboard-response","37","172592","0.0-5.0-12.0-0.0","1051.9000000953674","","","https://ziweizhang0304.github.io/Stats_learning_trig/img/Stim/FN_011_g.png","13","","","","","","","","","","","","","","","","","",""
"","animation","38","177014","0.0-5.0-12.0-1.0","","","","","","[{""stimulus"":""https://ziweizhang0304.github.io/Stats_learning_trig/img/Stim/FN_005_g.png"",""time"":356.5},{""stimulus"":""blank"",""time"":667},{""stimulus"":""https://ziweizhang0304.github.io/Stats_learning_trig/img/Stim/FN_008_g.png"",""time"":685.5},{""stimulus"":""blank"",""time"":991.7000000476837},{""stimulus"":""https://ziweizhang0304.github.io/Stats_learning_trig/img/Stim/FN_025_g.png"",""time"":1025.5},{""stimulus"":""blank"",""time"":1339.7999999523163},{""stimulus"":""https://ziweizhang0304.github.io/Stats_learning_trig/img/Stim/FN_003_g.png"",""time"":1365.0999999046326},{""stimulus"":""blank"",""time"":1670.5},{""stimulus"":""https://ziweizhang0304.github.io/Stats_learning_trig/img/Stim/FN_023_g.png"",""time"":1705.5},{""stimulus"":""blank"",""time"":2026.2000000476837},{""stimulus"":""https://ziweizhang0304.github.io/Stats_learning_trig/img/Stim/FN_007_g.png"",""time"":2046.7000000476837},{""stimulus"":""blank"",""time"":2353.0999999046326},{""stimulus"":""https://ziweizhang0304.github.io/Stats_learning_trig/img/Stim/FN_011_g.png"",""time"":2384.2000000476837},{""stimulus"":""blank"",""time"":2691.4000000953674},{""stimulus"":""https://ziweizhang0304.github.io/Stats_learning_trig/img/Stim/FN_012_g.png"",""time"":2725},{""stimulus"":""blank"",""time"":3032.2999999523163},{""stimulus"":""https://ziweizhang0304.github.io/Stats_learning_trig/img/Stim/FN_018_g.png"",""time"":3063.5},{""stimulus"":""blank"",""time"":3365.9000000953674},{""stimulus"":""https://ziweizhang0304.github.io/Stats_learning_trig/img/Stim/FN_015_g.png"",""time"":3407.7999999523163},{""stimulus"":""blank"",""time"":3722.2999999523163},{""stimulus"":""https://ziweizhang0304.github.io/Stats_learning_trig/img/Stim/FN_026_g.png"",""time"":3750.5},{""stimulus"":""blank"",""time"":4055.5999999046326},{""stimulus"":""https://ziweizhang0304.github.io/Stats_learning_trig/img/Stim/FN_017_g.png"",""time"":4082.2999999523163},{""stimulus"":""blank"",""time"":4389.200000047684}]","[{""key_press"":32,""rt"":2132,""stimulus"":""https://ziweizhang0304.github.io/Stats_learning_trig/img/Stim/FN_007_g.png""},{""key_press"":32,""rt"":2957.7000000476837,""stimulus"":""https://ziweizhang0304.github.io/Stats_learning_trig/img/Stim/FN_012_g.png""}]","573.5","https://ziweizhang0304.github.io/Stats_learning_trig/img/Stim/FN_011_g.png","post_TD","13","2384.2000000476837","2957.7000000476837","fast","7","2","60e8a63f733f423be3da1846","","","","","",""
"","image-keyboard-response","39","178068","0.0-5.0-13.0-0.0","1042.9000000953674","","","https://ziweizhang0304.github.io/Stats_learning_trig/img/Stim/FN_013_g.png","13","","","","","","","","","","","","","","","","","",""
"","animation","40","182495","0.0-5.0-13.0-1.0","","","","","","[{""stimulus"":""https://ziweizhang0304.github.io/Stats_learning_trig/img/Stim/FN_015_g.png"",""time"":356.7000000476837},{""stimulus"":""blank"",""time"":671.2999999523163},{""stimulus"":""https://ziweizhang0304.github.io/Stats_learning_trig/img/Stim/FN_008_g.png"",""time"":688.4000000953674},{""stimulus"":""blank"",""time"":1002.5},{""stimulus"":""https://ziweizhang0304.github.io/Stats_learning_trig/img/Stim/FN_003_g.png"",""time"":1027.9000000953674},{""stimulus"":""blank"",""time"":1334},{""stimulus"":""https://ziweizhang0304.github.io/Stats_learning_trig/img/Stim/FN_019_g.png"",""time"":1362},{""stimulus"":""blank"",""time"":1667.4000000953674},{""stimulus"":""https://ziweizhang0304.github.io/Stats_learning_trig/img/Stim/FN_009_g.png"",""time"":1709.2000000476837},{""stimulus"":""blank"",""time"":2024.7999999523163},{""stimulus"":""https://ziweizhang0304.github.io/Stats_learning_trig/img/Stim/FN_013_g.png"",""time"":2042.2999999523163},{""stimulus"":""blank"",""time"":2349},{""stimulus"":""https://ziweizhang0304.github.io/Stats_learning_trig/img/Stim/FN_023_g.png"",""time"":2384.7000000476837},{""stimulus"":""blank"",""time"":2691.7000000476837},{""stimulus"":""https://ziweizhang0304.github.io/Stats_learning_trig/img/Stim/FN_018_g.png"",""time"":2725.2000000476837},{""stimulus"":""blank"",""time"":3040.4000000953674},{""stimulus"":""https://ziweizhang0304.github.io/Stats_learning_trig/img/Stim/FN_025_g.png"",""time"":3068},{""stimulus"":""blank"",""time"":3373.5999999046326},{""stimulus"":""https://ziweizhang0304.github.io/Stats_learning_trig/img/Stim/FN_026_g.png"",""time"":3407.9000000953674},{""stimulus"":""blank"",""time"":3722.5999999046326},{""stimulus"":""https://ziweizhang0304.github.io/Stats_learning_trig/img/Stim/FN_005_g.png"",""time"":3749.9000000953674},{""stimulus"":""blank"",""time"":4055.7000000476837},{""stimulus"":""https://ziweizhang0304.github.io/Stats_learning_trig/img/Stim/FN_017_g.png"",""time"":4090.2000000476837},{""stimulus"":""blank"",""time"":4391.5}]","[{""key_press"":32,""rt"":2427.5,""stimulus"":""https://ziweizhang0304.github.io/Stats_learning_trig/img/Stim/FN_023_g.png""}]","385.2000000476837","https://ziweizhang0304.github.io/Stats_learning_trig/img/Stim/FN_013_g.png","post_TD","14","2042.2999999523163","2427.5","slow","6","3","60e8a63f733f423be3da1846","","","","","",""
"","image-keyboard-response","41","183475","0.0-5.0-14.0-0.0","969.3000001907349","","","https://ziweizhang0304.github.io/Stats_learning_trig/img/Stim/FN_013_g.png","13","","","","","","","","","","","","","","","","","",""
"","animation","42","187904","0.0-5.0-14.0-1.0","","","","","","[{""stimulus"":""https://ziweizhang0304.github.io/Stats_learning_trig/img/Stim/FN_026_g.png"",""time"":355.10000014305115},{""stimulus"":""blank"",""time"":661.1000001430511},{""stimulus"":""https://ziweizhang0304.github.io/Stats_learning_trig/img/Stim/FN_023_g.png"",""time"":687.5},{""stimulus"":""blank"",""time"":993.1000001430511},{""stimulus"":""https://ziweizhang0304.github.io/Stats_learning_trig/img/Stim/FN_018_g.png"",""time"":1025},{""stimulus"":""blank"",""time"":1332},{""stimulus"":""https://ziweizhang0304.github.io/Stats_learning_trig/img/Stim/FN_017_g.png"",""time"":1365.4000000953674},{""stimulus"":""blank"",""time"":1680.7000000476837},{""stimulus"":""https://ziweizhang0304.github.io/Stats_learning_trig/img/Stim/FN_008_g.png"",""time"":1707.5},{""stimulus"":""blank"",""time"":2009.7000000476837},{""stimulus"":""https://ziweizhang0304.github.io/Stats_learning_trig/img/Stim/FN_005_g.png"",""time"":2044.4000000953674},{""stimulus"":""blank"",""time"":2347.4000000953674},{""stimulus"":""https://ziweizhang0304.github.io/Stats_learning_trig/img/Stim/FN_019_g.png"",""time"":2389.7000000476837},{""stimulus"":""blank"",""time"":2696.5},{""stimulus"":""https://ziweizhang0304.github.io/Stats_learning_trig/img/Stim/FN_009_g.png"",""time"":2722.9000000953674},{""stimulus"":""blank"",""time"":3038},{""stimulus"":""https://ziweizhang0304.github.io/Stats_learning_trig/img/Stim/FN_013_g.png"",""time"":3063.9000000953674},{""stimulus"":""blank"",""time"":3370.600000143051},{""stimulus"":""https://ziweizhang0304.github.io/Stats_learning_trig/img/Stim/FN_025_g.png"",""time"":3404.7000000476837},{""stimulus"":""blank"",""time"":3711.100000143051},{""stimulus"":""https://ziweizhang0304.github.io/Stats_learning_trig/img/Stim/FN_015_g.png"",""time"":3753.5},{""stimulus"":""blank"",""time"":4070.100000143051},{""stimulus"":""https://ziweizhang0304.github.io/Stats_learning_trig/img/Stim/FN_003_g.png"",""time"":4085.2000000476837},{""stimulus"":""blank"",""time"":4387.600000143051}]","[{""key_press"":32,""rt"":1487.2999999523163,""stimulus"":""https://ziweizhang0304.github.io/Stats_learning_trig/img/Stim/FN_017_g.png""},{""key_press"":32,""rt"":3438.7000000476837,""stimulus"":""https://ziweizhang0304.github.io/Stats_learning_trig/img/Stim/FN_025_g.png""}]","374.7999999523163","https://ziweizhang0304.github.io/Stats_learning_trig/img/Stim/FN_013_g.png","post_TD","15","3063.9000000953674","3438.7000000476837","slow","9","3","60e8a63f733f423be3da1846","","","","","",""
"","image-keyboard-response","43","189030","0.0-5.0-15.0-0.0","1114.2999999523163","","","https://ziweizhang0304.github.io/Stats_learning_trig/img/Stim/FN_009_g.png","13","","","","","","","","","","","","","","","","","",""
"","animation","44","193456","0.0-5.0-15.0-1.0","","","","","","[{""stimulus"":""https://ziweizhang0304.github.io/Stats_learning_trig/img/Stim/FN_025_g.png"",""time"":347.90000009536743},{""stimulus"":""blank"",""time"":664.9000000953674},{""stimulus"":""https://ziweizhang0304.github.io/Stats_learning_trig/img/Stim/FN_008_g.png"",""time"":682},{""stimulus"":""blank"",""time"":996.5},{""stimulus"":""https://ziweizhang0304.github.io/Stats_learning_trig/img/Stim/FN_015_g.png"",""time"":1021.7000000476837},{""stimulus"":""blank"",""time"":1336.5},{""stimulus"":""https://ziweizhang0304.github.io/Stats_learning_trig/img/Stim/FN_026_g.png"",""time"":1363},{""stimulus"":""blank"",""time"":1670.1000001430511},{""stimulus"":""https://ziweizhang0304.github.io/Stats_learning_trig/img/Stim/FN_005_g.png"",""time"":1704.6000001430511},{""stimulus"":""blank"",""time"":2017.7000000476837},{""stimulus"":""https://ziweizhang0304.github.io/Stats_learning_trig/img/Stim/FN_019_g.png"",""time"":2045.5},{""stimulus"":""blank"",""time"":2351.4000000953674},{""stimulus"":""https://ziweizhang0304.github.io/Stats_learning_trig/img/Stim/FN_009_g.png"",""time"":2385.7999999523163},{""stimulus"":""blank"",""time"":2701},{""stimulus"":""https://ziweizhang0304.github.io/Stats_learning_trig/img/Stim/FN_013_g.png"",""time"":2728.5},{""stimulus"":""blank"",""time"":3044},{""stimulus"":""https://ziweizhang0304.github.io/Stats_learning_trig/img/Stim/FN_023_g.png"",""time"":3069.4000000953674},{""stimulus"":""blank"",""time"":3375.5},{""stimulus"":""https://ziweizhang0304.github.io/Stats_learning_trig/img/Stim/FN_018_g.png"",""time"":3401.5},{""stimulus"":""blank"",""time"":3714},{""stimulus"":""https://ziweizhang0304.github.io/Stats_learning_trig/img/Stim/FN_017_g.png"",""time"":3744.600000143051},{""stimulus"":""blank"",""time"":4059.7999999523163},{""stimulus"":""https://ziweizhang0304.github.io/Stats_learning_trig/img/Stim/FN_003_g.png"",""time"":4085.2000000476837},{""stimulus"":""blank"",""time"":4391.200000047684}]","[{""key_press"":32,""rt"":2796.100000143051,""stimulus"":""https://ziweizhang0304.github.io/Stats_learning_trig/img/Stim/FN_013_g.png""}]","410.30000019073486","https://ziweizhang0304.github.io/Stats_learning_trig/img/Stim/FN_009_g.png","post_TD","16","2385.7999999523163","2796.100000143051","slow","7","2","60e8a63f733f423be3da1846","","","","","",""
"","image-keyboard-response","45","194371","0.0-5.0-16.0-0.0","901.9000000953674","","","https://ziweizhang0304.github.io/Stats_learning_trig/img/Stim/FN_012_g.png","13","","","","","","","","","","","","","","","","","",""
"","animation","46","198801","0.0-5.0-16.0-1.0","","","","","","[{""stimulus"":""https://ziweizhang0304.github.io/Stats_learning_trig/img/Stim/FN_003_g.png"",""time"":356.90000009536743},{""stimulus"":""blank"",""time"":665.9000000953674},{""stimulus"":""https://ziweizhang0304.github.io/Stats_learning_trig/img/Stim/FN_018_g.png"",""time"":683.2000000476837},{""stimulus"":""blank"",""time"":989.7000000476837},{""stimulus"":""https://ziweizhang0304.github.io/Stats_learning_trig/img/Stim/FN_023_g.png"",""time"":1027.7000000476837},{""stimulus"":""blank"",""time"":1339.2000000476837},{""stimulus"":""https://ziweizhang0304.github.io/Stats_learning_trig/img/Stim/FN_025_g.png"",""time"":1365.4000000953674},{""stimulus"":""blank"",""time"":1670.7999999523163},{""stimulus"":""https://ziweizhang0304.github.io/Stats_learning_trig/img/Stim/FN_007_g.png"",""time"":1704.5},{""stimulus"":""blank"",""time"":2005.1000001430511},{""stimulus"":""https://ziweizhang0304.github.io/Stats_learning_trig/img/Stim/FN_011_g.png"",""time"":2048.9000000953674},{""stimulus"":""blank"",""time"":2355.2999999523163},{""stimulus"":""https://ziweizhang0304.github.io/Stats_learning_trig/img/Stim/FN_012_g.png"",""time"":2389.7999999523163},{""stimulus"":""blank"",""time"":2696.9000000953674},{""stimulus"":""https://ziweizhang0304.github.io/Stats_learning_trig/img/Stim/FN_015_g.png"",""time"":2721.9000000953674},{""stimulus"":""blank"",""time"":3029.7000000476837},{""stimulus"":""https://ziweizhang0304.github.io/Stats_learning_trig/img/Stim/FN_026_g.png"",""time"":3065.2999999523163},{""stimulus"":""blank"",""time"":3379.2999999523163},{""stimulus"":""https://ziweizhang0304.github.io/Stats_learning_trig/img/Stim/FN_008_g.png"",""time"":3405.600000143051},{""stimulus"":""blank"",""time"":3713.4000000953674},{""stimulus"":""https://ziweizhang0304.github.io/Stats_learning_trig/img/Stim/FN_005_g.png"",""time"":3747.5},{""stimulus"":""blank"",""time"":4053.7999999523163},{""stimulus"":""https://ziweizhang0304.github.io/Stats_learning_trig/img/Stim/FN_017_g.png"",""time"":4087.7000000476837},{""stimulus"":""blank"",""time"":4402.600000143051}]","[{""key_press"":32,""rt"":2769.9000000953674,""stimulus"":""https://ziweizhang0304.github.io/Stats_learning_trig/img/Stim/FN_015_g.png""}]","380.10000014305115","https://ziweizhang0304.github.io/Stats_learning_trig/img/Stim/FN_012_g.png","post_TD","17","2389.7999999523163","2769.9000000953674","fast","7","3","60e8a63f733f423be3da1846","","","","","",""
"","image-keyboard-response","47","200390","0.0-5.0-17.0-0.0","1579.4000000953674","","","https://ziweizhang0304.github.io/Stats_learning_trig/img/Stim/FN_007_g.png","13","","","","","","","","","","","","","","","","","",""
"","animation","48","204814","0.0-5.0-17.0-1.0","","","","","","[{""stimulus"":""https://ziweizhang0304.github.io/Stats_learning_trig/img/Stim/FN_017_g.png"",""time"":357.09999990463257},{""stimulus"":""blank"",""time"":662.3999998569489},{""stimulus"":""https://ziweizhang0304.github.io/Stats_learning_trig/img/Stim/FN_023_g.png"",""time"":687.6999998092651},{""stimulus"":""blank"",""time"":994.1999998092651},{""stimulus"":""https://ziweizhang0304.github.io/Stats_learning_trig/img/Stim/FN_008_g.png"",""time"":1024.2999999523163},{""stimulus"":""blank"",""time"":1328.1999998092651},{""stimulus"":""https://ziweizhang0304.github.io/Stats_learning_trig/img/Stim/FN_007_g.png"",""time"":1361.8999998569489},{""stimulus"":""blank"",""time"":1664.5},{""stimulus"":""https://ziweizhang0304.github.io/Stats_learning_trig/img/Stim/FN_011_g.png"",""time"":1706.3999998569489},{""stimulus"":""blank"",""time"":2011},{""stimulus"":""https://ziweizhang0304.github.io/Stats_learning_trig/img/Stim/FN_012_g.png"",""time"":2045.6999998092651},{""stimulus"":""blank"",""time"":2346.699999809265},{""stimulus"":""https://ziweizhang0304.github.io/Stats_learning_trig/img/Stim/FN_018_g.png"",""time"":2388.899999856949},{""stimulus"":""blank"",""time"":2696},{""stimulus"":""https://ziweizhang0304.github.io/Stats_learning_trig/img/Stim/FN_025_g.png"",""time"":2722.699999809265},{""stimulus"":""blank"",""time"":3026.699999809265},{""stimulus"":""https://ziweizhang0304.github.io/Stats_learning_trig/img/Stim/FN_015_g.png"",""time"":3077.5},{""stimulus"":""blank"",""time"":3386.5},{""stimulus"":""https://ziweizhang0304.github.io/Stats_learning_trig/img/Stim/FN_026_g.png"",""time"":3402.699999809265},{""stimulus"":""blank"",""time"":3709.2999999523163},{""stimulus"":""https://ziweizhang0304.github.io/Stats_learning_trig/img/Stim/FN_005_g.png"",""time"":3743.7999999523163},{""stimulus"":""blank"",""time"":4054.5},{""stimulus"":""https://ziweizhang0304.github.io/Stats_learning_trig/img/Stim/FN_003_g.png"",""time"":4087.5},{""stimulus"":""blank"",""time"":4418.599999904633}]","[{""key_press"":32,""rt"":1799.3999998569489,""stimulus"":""https://ziweizhang0304.github.io/Stats_learning_trig/img/Stim/FN_011_g.png""}]","437.5","https://ziweizhang0304.github.io/Stats_learning_trig/img/Stim/FN_007_g.png","post_TD","18","1361.8999998569489","1799.3999998569489","fast","4","1","60e8a63f733f423be3da1846","","","","","",""
"","image-keyboard-response","49","205733","0.0-5.0-18.0-0.0","905.0999999046326","","","https://ziweizhang0304.github.io/Stats_learning_trig/img/Stim/FN_012_g.png","13","","","","","","","","","","","","","","","","","",""
"","animation","50","210161","0.0-5.0-18.0-1.0","","","","","","[{""stimulus"":""https://ziweizhang0304.github.io/Stats_learning_trig/img/Stim/FN_005_g.png"",""time"":354.89999985694885},{""stimulus"":""blank"",""time"":660.5999999046326},{""stimulus"":""https://ziweizhang0304.github.io/Stats_learning_trig/img/Stim/FN_003_g.png"",""time"":686.8999998569489},{""stimulus"":""blank"",""time"":993.2000000476837},{""stimulus"":""https://ziweizhang0304.github.io/Stats_learning_trig/img/Stim/FN_026_g.png"",""time"":1024.8999998569489},{""stimulus"":""blank"",""time"":1331.2999999523163},{""stimulus"":""https://ziweizhang0304.github.io/Stats_learning_trig/img/Stim/FN_023_g.png"",""time"":1365},{""stimulus"":""blank"",""time"":1677.7999999523163},{""stimulus"":""https://ziweizhang0304.github.io/Stats_learning_trig/img/Stim/FN_008_g.png"",""time"":1704.0999999046326},{""stimulus"":""blank"",""time"":2010.0999999046326},{""stimulus"":""https://ziweizhang0304.github.io/Stats_learning_trig/img/Stim/FN_017_g.png"",""time"":2043.7999999523163},{""stimulus"":""blank"",""time"":2346.2000000476837},{""stimulus"":""https://ziweizhang0304.github.io/Stats_learning_trig/img/Stim/FN_007_g.png"",""time"":2389.7000000476837},{""stimulus"":""blank"",""time"":2696.0999999046326},{""stimulus"":""https://ziweizhang0304.github.io/Stats_learning_trig/img/Stim/FN_011_g.png"",""time"":2730.399999856949},{""stimulus"":""blank"",""time"":3041.2000000476837},{""stimulus"":""https://ziweizhang0304.github.io/Stats_learning_trig/img/Stim/FN_012_g.png"",""time"":3067.0999999046326},{""stimulus"":""blank"",""time"":3373.7000000476837},{""stimulus"":""https://ziweizhang0304.github.io/Stats_learning_trig/img/Stim/FN_018_g.png"",""time"":3405.2000000476837},{""stimulus"":""blank"",""time"":3711.399999856949},{""stimulus"":""https://ziweizhang0304.github.io/Stats_learning_trig/img/Stim/FN_025_g.png"",""time"":3745.7999999523163},{""stimulus"":""blank"",""time"":4060.5999999046326},{""stimulus"":""https://ziweizhang0304.github.io/Stats_learning_trig/img/Stim/FN_015_g.png"",""time"":4087.7999999523163},{""stimulus"":""blank"",""time"":4393.599999904633}]","[{""key_press"":32,""rt"":3420.2999999523163,""stimulus"":""https://ziweizhang0304.github.io/Stats_learning_trig/img/Stim/FN_018_g.png""}]","353.2000000476837","https://ziweizhang0304.github.io/Stats_learning_trig/img/Stim/FN_012_g.png","post_TD","19","3067.0999999046326","3420.2999999523163","fast","9","3","60e8a63f733f423be3da1846","","","","","",""
"","image-keyboard-response","51","210965","0.0-5.0-19.0-0.0","793.4000000953674","","","https://ziweizhang0304.github.io/Stats_learning_trig/img/Stim/FN_007_g.png","13","","","","","","","","","","","","","","","","","",""
"","animation","52","215388","0.0-5.0-19.0-1.0","","","","","","[{""stimulus"":""https://ziweizhang0304.github.io/Stats_learning_trig/img/Stim/FN_005_g.png"",""time"":355.09999990463257},{""stimulus"":""blank"",""time"":668.6999998092651},{""stimulus"":""https://ziweizhang0304.github.io/Stats_learning_trig/img/Stim/FN_008_g.png"",""time"":686.6999998092651},{""stimulus"":""blank"",""time"":993.3999998569489},{""stimulus"":""https://ziweizhang0304.github.io/Stats_learning_trig/img/Stim/FN_025_g.png"",""time"":1027.0999999046326},{""stimulus"":""blank"",""time"":1342},{""stimulus"":""https://ziweizhang0304.github.io/Stats_learning_trig/img/Stim/FN_003_g.png"",""time"":1369.8999998569489},{""stimulus"":""blank"",""time"":1684.6999998092651},{""stimulus"":""https://ziweizhang0304.github.io/Stats_learning_trig/img/Stim/FN_023_g.png"",""time"":1703.0999999046326},{""stimulus"":""blank"",""time"":2017.7999999523163},{""stimulus"":""https://ziweizhang0304.github.io/Stats_learning_trig/img/Stim/FN_007_g.png"",""time"":2043.2999999523163},{""stimulus"":""blank"",""time"":2349.2999999523163},{""stimulus"":""https://ziweizhang0304.github.io/Stats_learning_trig/img/Stim/FN_011_g.png"",""time"":2384.899999856949},{""stimulus"":""blank"",""time"":2690.399999856949},{""stimulus"":""https://ziweizhang0304.github.io/Stats_learning_trig/img/Stim/FN_012_g.png"",""time"":2724.199999809265},{""stimulus"":""blank"",""time"":3035.199999809265},{""stimulus"":""https://ziweizhang0304.github.io/Stats_learning_trig/img/Stim/FN_018_g.png"",""time"":3068.2999999523163},{""stimulus"":""blank"",""time"":3373.7999999523163},{""stimulus"":""https://ziweizhang0304.github.io/Stats_learning_trig/img/Stim/FN_015_g.png"",""time"":3408.199999809265},{""stimulus"":""blank"",""time"":3723.399999856949},{""stimulus"":""https://ziweizhang0304.github.io/Stats_learning_trig/img/Stim/FN_026_g.png"",""time"":3750.7999999523163},{""stimulus"":""blank"",""time"":4066.199999809265},{""stimulus"":""https://ziweizhang0304.github.io/Stats_learning_trig/img/Stim/FN_017_g.png"",""time"":4083.899999856949},{""stimulus"":""blank"",""time"":4389.399999856949}]","[{""key_press"":32,""rt"":2417.9000000953674,""stimulus"":""https://ziweizhang0304.github.io/Stats_learning_trig/img/Stim/FN_011_g.png""}]","374.60000014305115","https://ziweizhang0304.github.io/Stats_learning_trig/img/Stim/FN_007_g.png","post_TD","20","2043.2999999523163","2417.9000000953674","fast","6","1","60e8a63f733f423be3da1846","","","","","",""
"","image-keyboard-response","53","216053","0.0-5.0-20.0-0.0","654.0999999046326","","","https://ziweizhang0304.github.io/Stats_learning_trig/img/Stim/FN_009_g.png","13","","","","","","","","","","","","","","","","","",""
"","animation","54","220475","0.0-5.0-20.0-1.0","","","","","","[{""stimulus"":""https://ziweizhang0304.github.io/Stats_learning_trig/img/Stim/FN_026_g.png"",""time"":356.39999985694885},{""stimulus"":""blank"",""time"":663.3999998569489},{""stimulus"":""https://ziweizhang0304.github.io/Stats_learning_trig/img/Stim/FN_018_g.png"",""time"":688.8999998569489},{""stimulus"":""blank"",""time"":995},{""stimulus"":""https://ziweizhang0304.github.io/Stats_learning_trig/img/Stim/FN_008_g.png"",""time"":1025.7999999523163},{""stimulus"":""blank"",""time"":1332},{""stimulus"":""https://ziweizhang0304.github.io/Stats_learning_trig/img/Stim/FN_025_g.png"",""time"":1366.2999999523163},{""stimulus"":""blank"",""time"":1680.2999999523163},{""stimulus"":""https://ziweizhang0304.github.io/Stats_learning_trig/img/Stim/FN_019_g.png"",""time"":1708.6999998092651},{""stimulus"":""blank"",""time"":2015.3999998569489},{""stimulus"":""https://ziweizhang0304.github.io/Stats_learning_trig/img/Stim/FN_009_g.png"",""time"":2049.199999809265},{""stimulus"":""blank"",""time"":2362.5999999046326},{""stimulus"":""https://ziweizhang0304.github.io/Stats_learning_trig/img/Stim/FN_013_g.png"",""time"":2389.5999999046326},{""stimulus"":""blank"",""time"":2701.5},{""stimulus"":""https://ziweizhang0304.github.io/Stats_learning_trig/img/Stim/FN_023_g.png"",""time"":2727.2999999523163},{""stimulus"":""blank"",""time"":3041.7999999523163},{""stimulus"":""https://ziweizhang0304.github.io/Stats_learning_trig/img/Stim/FN_015_g.png"",""time"":3066.899999856949},{""stimulus"":""blank"",""time"":3370.899999856949},{""stimulus"":""https://ziweizhang0304.github.io/Stats_learning_trig/img/Stim/FN_005_g.png"",""time"":3406.5999999046326},{""stimulus"":""blank"",""time"":3713.2999999523163},{""stimulus"":""https://ziweizhang0304.github.io/Stats_learning_trig/img/Stim/FN_017_g.png"",""time"":3747},{""stimulus"":""blank"",""time"":4062.699999809265},{""stimulus"":""https://ziweizhang0304.github.io/Stats_learning_trig/img/Stim/FN_003_g.png"",""time"":4089.2999999523163},{""stimulus"":""blank"",""time"":4404}]","[{""key_press"":32,""rt"":2430.7000000476837,""stimulus"":""https://ziweizhang0304.github.io/Stats_learning_trig/img/Stim/FN_013_g.png""}]","381.5000002384186","https://ziweizhang0304.github.io/Stats_learning_trig/img/Stim/FN_009_g.png","post_TD","21","2049.199999809265","2430.7000000476837","slow","6","2","60e8a63f733f423be3da1846","","","","","",""
"","image-keyboard-response","55","221193","0.0-5.0-21.0-0.0","708.5","","","https://ziweizhang0304.github.io/Stats_learning_trig/img/Stim/FN_019_g.png","13","","","","","","","","","","","","","","","","","",""
"","animation","56","225619","0.0-5.0-21.0-1.0","","","","","","[{""stimulus"":""https://ziweizhang0304.github.io/Stats_learning_trig/img/Stim/FN_015_g.png"",""time"":347.60000014305115},{""stimulus"":""blank"",""time"":654.4000000953674},{""stimulus"":""https://ziweizhang0304.github.io/Stats_learning_trig/img/Stim/FN_008_g.png"",""time"":687.8000001907349},{""stimulus"":""blank"",""time"":1001},{""stimulus"":""https://ziweizhang0304.github.io/Stats_learning_trig/img/Stim/FN_003_g.png"",""time"":1026.3000001907349},{""stimulus"":""blank"",""time"":1331.9000000953674},{""stimulus"":""https://ziweizhang0304.github.io/Stats_learning_trig/img/Stim/FN_019_g.png"",""time"":1363},{""stimulus"":""blank"",""time"":1668.6000001430511},{""stimulus"":""https://ziweizhang0304.github.io/Stats_learning_trig/img/Stim/FN_009_g.png"",""time"":1703.1000001430511},{""stimulus"":""blank"",""time"":2018.4000000953674},{""stimulus"":""https://ziweizhang0304.github.io/Stats_learning_trig/img/Stim/FN_013_g.png"",""time"":2041.5},{""stimulus"":""blank"",""time"":2347.5},{""stimulus"":""https://ziweizhang0304.github.io/Stats_learning_trig/img/Stim/FN_023_g.png"",""time"":2390.100000143051},{""stimulus"":""blank"",""time"":2701.5},{""stimulus"":""https://ziweizhang0304.github.io/Stats_learning_trig/img/Stim/FN_018_g.png"",""time"":2728},{""stimulus"":""blank"",""time"":3044.800000190735},{""stimulus"":""https://ziweizhang0304.github.io/Stats_learning_trig/img/Stim/FN_025_g.png"",""time"":3067.600000143051},{""stimulus"":""blank"",""time"":3375.2000000476837},{""stimulus"":""https://ziweizhang0304.github.io/Stats_learning_trig/img/Stim/FN_026_g.png"",""time"":3411.100000143051},{""stimulus"":""blank"",""time"":3717.300000190735},{""stimulus"":""https://ziweizhang0304.github.io/Stats_learning_trig/img/Stim/FN_005_g.png"",""time"":3750.7000000476837},{""stimulus"":""blank"",""time"":4065.7000000476837},{""stimulus"":""https://ziweizhang0304.github.io/Stats_learning_trig/img/Stim/FN_017_g.png"",""time"":4082.800000190735},{""stimulus"":""blank"",""time"":4390.200000047684}]","[{""key_press"":32,""rt"":1778.8999998569489,""stimulus"":""https://ziweizhang0304.github.io/Stats_learning_trig/img/Stim/FN_009_g.png""}]","415.89999985694885","https://ziweizhang0304.github.io/Stats_learning_trig/img/Stim/FN_019_g.png","post_TD","22","1363","1778.8999998569489","slow","4","1","60e8a63f733f423be3da1846","","","","","",""
"","image-keyboard-response","57","226688","0.0-5.0-22.0-0.0","1058","","","https://ziweizhang0304.github.io/Stats_learning_trig/img/Stim/FN_013_g.png","13","","","","","","","","","","","","","","","","","",""
"","animation","58","231113","0.0-5.0-22.0-1.0","","","","","","[{""stimulus"":""https://ziweizhang0304.github.io/Stats_learning_trig/img/Stim/FN_026_g.png"",""time"":346.2000000476837},{""stimulus"":""blank"",""time"":652},{""stimulus"":""https://ziweizhang0304.github.io/Stats_learning_trig/img/Stim/FN_018_g.png"",""time"":686.2999999523163},{""stimulus"":""blank"",""time"":995},{""stimulus"":""https://ziweizhang0304.github.io/Stats_learning_trig/img/Stim/FN_008_g.png"",""time"":1029.0999999046326},{""stimulus"":""blank"",""time"":1382.2000000476837},{""stimulus"":""https://ziweizhang0304.github.io/Stats_learning_trig/img/Stim/FN_025_g.png"",""time"":1389.5999999046326},{""stimulus"":""blank"",""time"":1697.0999999046326},{""stimulus"":""https://ziweizhang0304.github.io/Stats_learning_trig/img/Stim/FN_019_g.png"",""time"":1707.2000000476837},{""stimulus"":""blank"",""time"":2014.0999999046326},{""stimulus"":""https://ziweizhang0304.github.io/Stats_learning_trig/img/Stim/FN_009_g.png"",""time"":2044.5},{""stimulus"":""blank"",""time"":2351.0999999046326},{""stimulus"":""https://ziweizhang0304.github.io/Stats_learning_trig/img/Stim/FN_013_g.png"",""time"":2384.5999999046326},{""stimulus"":""blank"",""time"":2699},{""stimulus"":""https://ziweizhang0304.github.io/Stats_learning_trig/img/Stim/FN_023_g.png"",""time"":2728.7999999523163},{""stimulus"":""blank"",""time"":3034.399999856949},{""stimulus"":""https://ziweizhang0304.github.io/Stats_learning_trig/img/Stim/FN_015_g.png"",""time"":3068.0999999046326},{""stimulus"":""blank"",""time"":3382.399999856949},{""stimulus"":""https://ziweizhang0304.github.io/Stats_learning_trig/img/Stim/FN_005_g.png"",""time"":3409.5999999046326},{""stimulus"":""blank"",""time"":3716.399999856949},{""stimulus"":""https://ziweizhang0304.github.io/Stats_learning_trig/img/Stim/FN_017_g.png"",""time"":3750.0999999046326},{""stimulus"":""blank"",""time"":4066},{""stimulus"":""https://ziweizhang0304.github.io/Stats_learning_trig/img/Stim/FN_003_g.png"",""time"":4083.2999999523163},{""stimulus"":""blank"",""time"":4385.099999904633}]","[{""key_press"":32,""rt"":1170.6000001430511,""stimulus"":""https://ziweizhang0304.github.io/Stats_learning_trig/img/Stim/FN_008_g.png""},{""key_press"":32,""rt"":2729.600000143051,""stimulus"":""https://ziweizhang0304.github.io/Stats_learning_trig/img/Stim/FN_023_g.png""}]","345.0000002384186","https://ziweizhang0304.github.io/Stats_learning_trig/img/Stim/FN_013_g.png","post_TD","23","2384.5999999046326","2729.600000143051","slow","7","3","60e8a63f733f423be3da1846","","","","","",""
"","image-keyboard-response","59","232038","0.0-5.0-23.0-0.0","912","","","https://ziweizhang0304.github.io/Stats_learning_trig/img/Stim/FN_009_g.png","13","","","","","","","","","","","","","","","","","",""
"","animation","60","236466","0.0-5.0-23.0-1.0","","","","","","[{""stimulus"":""https://ziweizhang0304.github.io/Stats_learning_trig/img/Stim/FN_015_g.png"",""time"":354.7000000476837},{""stimulus"":""blank"",""time"":663.8999998569489},{""stimulus"":""https://ziweizhang0304.github.io/Stats_learning_trig/img/Stim/FN_008_g.png"",""time"":689.5},{""stimulus"":""blank"",""time"":990.7999999523163},{""stimulus"":""https://ziweizhang0304.github.io/Stats_learning_trig/img/Stim/FN_003_g.png"",""time"":1023.2999999523163},{""stimulus"":""blank"",""time"":1329.3999998569489},{""stimulus"":""https://ziweizhang0304.github.io/Stats_learning_trig/img/Stim/FN_019_g.png"",""time"":1363.5},{""stimulus"":""blank"",""time"":1677.8999998569489},{""stimulus"":""https://ziweizhang0304.github.io/Stats_learning_trig/img/Stim/FN_009_g.png"",""time"":1705},{""stimulus"":""blank"",""time"":2011.5999999046326},{""stimulus"":""https://ziweizhang0304.github.io/Stats_learning_trig/img/Stim/FN_013_g.png"",""time"":2046.0999999046326},{""stimulus"":""blank"",""time"":2353.2000000476837},{""stimulus"":""https://ziweizhang0304.github.io/Stats_learning_trig/img/Stim/FN_023_g.png"",""time"":2387.7000000476837},{""stimulus"":""blank"",""time"":2694},{""stimulus"":""https://ziweizhang0304.github.io/Stats_learning_trig/img/Stim/FN_018_g.png"",""time"":2727.5999999046326},{""stimulus"":""blank"",""time"":3040.2999999523163},{""stimulus"":""https://ziweizhang0304.github.io/Stats_learning_trig/img/Stim/FN_025_g.png"",""time"":3066.2999999523163},{""stimulus"":""blank"",""time"":3372.2000000476837},{""stimulus"":""https://ziweizhang0304.github.io/Stats_learning_trig/img/Stim/FN_026_g.png"",""time"":3403.2000000476837},{""stimulus"":""blank"",""time"":3709.5999999046326},{""stimulus"":""https://ziweizhang0304.github.io/Stats_learning_trig/img/Stim/FN_005_g.png"",""time"":3743.2000000476837},{""stimulus"":""blank"",""time"":4058},{""stimulus"":""https://ziweizhang0304.github.io/Stats_learning_trig/img/Stim/FN_017_g.png"",""time"":4085.399999856949},{""stimulus"":""blank"",""time"":4401.200000047684}]","[{""key_press"":32,""rt"":2022.0999999046326,""stimulus"":""blank""}]","317.09999990463257","https://ziweizhang0304.github.io/Stats_learning_trig/img/Stim/FN_009_g.png","post_TD","24","1705","2022.0999999046326","slow","5","2","60e8a63f733f423be3da1846","4d2a9","","","","",""
"","survey-text","61","262752","0.0-6.0","26245.400000095367","","","","","","","","","","","","","","","","","","{""Q0"":""i just tried to focus as best as i could and react with the spacebar as soon as i seen the target shape""}","","","",""
"","survey-text","62","278232","0.0-7.0","15458.400000095367","","","","","","","","","","","","","","","","","","{""[object Object]"":""no i did not notice any pattern""}","","","",""
"","instructions","63","288784","0.0-8.0","10547.700000047684","","[{""page_index"":0,""viewing_time"":10546.599999904633}]","","","","","","","","","","","","","","","","","","","",""
"","free-sort","64","309666","0.0-9.0","20872.60000014305","","","","","","","","","post_drag","","","","fast","","","","","","[{""src"":""https://ziweizhang0304.github.io/Stats_learning_trig/img/Stim/FN_007_g.png"",""x"":475,""y"":0},{""src"":""https://ziweizhang0304.github.io/Stats_learning_trig/img/Stim/FN_011_g.png"",""x"":-225,""y"":50},{""src"":""https://ziweizhang0304.github.io/Stats_learning_trig/img/Stim/FN_012_g.png"",""x"":475,""y"":50}]","[{""src"":""https://ziweizhang0304.github.io/Stats_learning_trig/img/Stim/FN_007_g.png"",""x"":170,""y"":22},{""src"":""https://ziweizhang0304.github.io/Stats_learning_trig/img/Stim/FN_012_g.png"",""x"":107,""y"":3},{""src"":""https://ziweizhang0304.github.io/Stats_learning_trig/img/Stim/FN_012_g.png"",""x"":223,""y"":29},{""src"":""https://ziweizhang0304.github.io/Stats_learning_trig/img/Stim/FN_007_g.png"",""x"":37,""y"":17},{""src"":""https://ziweizhang0304.github.io/Stats_learning_trig/img/Stim/FN_011_g.png"",""x"":126,""y"":20}]","[{""src"":""https://ziweizhang0304.github.io/Stats_learning_trig/img/Stim/FN_007_g.png"",""x"":37,""y"":17},{""src"":""https://ziweizhang0304.github.io/Stats_learning_trig/img/Stim/FN_011_g.png"",""x"":126,""y"":20},{""src"":""https://ziweizhang0304.github.io/Stats_learning_trig/img/Stim/FN_012_g.png"",""x"":223,""y"":29}]",""
"","free-sort","65","322868","0.0-10.0","13197.299999952316","","","","","","","","","post_drag","","","","slow","","","","","","[{""src"":""https://ziweizhang0304.github.io/Stats_learning_trig/img/Stim/FN_019_g.png"",""x"":475,""y"":0},{""src"":""https://ziweizhang0304.github.io/Stats_learning_trig/img/Stim/FN_009_g.png"",""x"":-225,""y"":50},{""src"":""https://ziweizhang0304.github.io/Stats_learning_trig/img/Stim/FN_013_g.png"",""x"":475,""y"":50}]","[{""src"":""https://ziweizhang0304.github.io/Stats_learning_trig/img/Stim/FN_013_g.png"",""x"":29,""y"":27},{""src"":""https://ziweizhang0304.github.io/Stats_learning_trig/img/Stim/FN_009_g.png"",""x"":127,""y"":44},{""src"":""https://ziweizhang0304.github.io/Stats_learning_trig/img/Stim/FN_019_g.png"",""x"":225,""y"":13},{""src"":""https://ziweizhang0304.github.io/Stats_learning_trig/img/Stim/FN_009_g.png"",""x"":122,""y"":14}]","[{""src"":""https://ziweizhang0304.github.io/Stats_learning_trig/img/Stim/FN_019_g.png"",""x"":225,""y"":13},{""src"":""https://ziweizhang0304.github.io/Stats_learning_trig/img/Stim/FN_009_g.png"",""x"":122,""y"":14},{""src"":""https://ziweizhang0304.github.io/Stats_learning_trig/img/Stim/FN_013_g.png"",""x"":29,""y"":27}]",""
"","survey-multi-choice","66","339192","0.0-11.0","16288.299999952316","","","","","","","","","","","","","","","","60e8a63f733f423be3da1846","","{""awareness"":""No"",""attention_check"":""Press SPACEBAR to a target""}","","","","[0,1]"
