"success","trial_type","trial_index","time_elapsed","internal_node_id","rt","url","view_history","stimulus","key_press","animation_sequence","response","TD_rt","TD_target","test_part","TD_trial_number","onset","offset","attention_state","TD_target_position","TD_within_triplet_counter","participant","yoke_participant","responses","init_locations","moves","final_locations","question_order"
"true","fullscreen","0","2089","0.0-0.0","","","","","","","","","","","","","","","","","","","","","","",""
"","external-html","1","11640","0.0-1.0","9403.100000023842","https://ziweizhang0304.github.io/Stats_learning_trig/content/consent.html","","","","","","","","","","","","","","","","","","","","",""
"","instructions","2","49088","0.0-2.0","37447","","[{""page_index"":0,""viewing_time"":1857.2000000476837},{""page_index"":1,""viewing_time"":29650},{""page_index"":2,""viewing_time"":4379.699999928474},{""page_index"":3,""viewing_time"":1559.6000000238419}]","","","","","","","","","","","","","","","","","","","",""
"","image-keyboard-response","3","52416","0.0-3.0-0.0-0.0","3327.2999999523163","","","https://ziweizhang0304.github.io/Stats_learning_trig/img/Stim/FN_001_g.png","13","","","","","","","","","","","","","","","","","",""
"","animation","4","56839","0.0-3.0-0.0-1.0","","","","","","[{""stimulus"":""https://ziweizhang0304.github.io/Stats_learning_trig/img/Stim/FN_025_g.png"",""time"":351.2999999523163},{""stimulus"":""blank"",""time"":652.3999999761581},{""stimulus"":""https://ziweizhang0304.github.io/Stats_learning_trig/img/Stim/FN_001_g.png"",""time"":681.5},{""stimulus"":""blank"",""time"":982.7000000476837},{""stimulus"":""https://ziweizhang0304.github.io/Stats_learning_trig/img/Stim/FN_024_g.png"",""time"":1021},{""stimulus"":""blank"",""time"":1322.5},{""stimulus"":""https://ziweizhang0304.github.io/Stats_learning_trig/img/Stim/FN_011_g.png"",""time"":1360.8999999761581},{""stimulus"":""blank"",""time"":1661.7999999523163},{""stimulus"":""https://ziweizhang0304.github.io/Stats_learning_trig/img/Stim/FN_019_g.png"",""time"":1701.6000000238419},{""stimulus"":""blank"",""time"":2002.3999999761581},{""stimulus"":""https://ziweizhang0304.github.io/Stats_learning_trig/img/Stim/FN_015_g.png"",""time"":2041.7999999523163},{""stimulus"":""blank"",""time"":2342.7000000476837},{""stimulus"":""https://ziweizhang0304.github.io/Stats_learning_trig/img/Stim/FN_008_g.png"",""time"":2381.100000023842},{""stimulus"":""blank"",""time"":2687.7999999523163},{""stimulus"":""https://ziweizhang0304.github.io/Stats_learning_trig/img/Stim/FN_003_g.png"",""time"":2721.100000023842},{""stimulus"":""blank"",""time"":3022.100000023842},{""stimulus"":""https://ziweizhang0304.github.io/Stats_learning_trig/img/Stim/FN_009_g.png"",""time"":3061.7999999523163},{""stimulus"":""blank"",""time"":3362.7999999523163},{""stimulus"":""https://ziweizhang0304.github.io/Stats_learning_trig/img/Stim/FN_022_g.png"",""time"":3401.100000023842},{""stimulus"":""blank"",""time"":3701.600000023842},{""stimulus"":""https://ziweizhang0304.github.io/Stats_learning_trig/img/Stim/FN_013_g.png"",""time"":3741.2999999523163},{""stimulus"":""blank"",""time"":4042.2000000476837},{""stimulus"":""https://ziweizhang0304.github.io/Stats_learning_trig/img/Stim/FN_020_g.png"",""time"":4082},{""stimulus"":""blank"",""time"":4382.399999976158}]","[{""key_press"":32,""rt"":1167.7999999523163,""stimulus"":""https://ziweizhang0304.github.io/Stats_learning_trig/img/Stim/FN_024_g.png""}]","486.2999999523163","https://ziweizhang0304.github.io/Stats_learning_trig/img/Stim/FN_001_g.png","post_prac","","","","","","","","","","","","",""
"","html-keyboard-response","5","62271","0.0-3.0-0.0-2.0","5428","","","<p>Your reaction time for this trial was 486.3 ms.</p><p>Remember that you should only press the SPACEBAR when you see the shape presented at the beginning of the trial. </b> </p><p>Press enter to move on.</p>","13","","","","","","","","","","","","","","","","","",""
"","image-keyboard-response","6","65543","0.0-3.0-1.0-0.0","3271.100000023842","","","https://ziweizhang0304.github.io/Stats_learning_trig/img/Stim/FN_014_g.png","13","","","","","","","","","","","","","","","","","",""
"","animation","7","69966","0.0-3.0-1.0-1.0","","","","","","[{""stimulus"":""https://ziweizhang0304.github.io/Stats_learning_trig/img/Stim/FN_013_g.png"",""time"":341.5},{""stimulus"":""blank"",""time"":641.8999999761581},{""stimulus"":""https://ziweizhang0304.github.io/Stats_learning_trig/img/Stim/FN_003_g.png"",""time"":681},{""stimulus"":""blank"",""time"":981.2999999523163},{""stimulus"":""https://ziweizhang0304.github.io/Stats_learning_trig/img/Stim/FN_022_g.png"",""time"":1021.2999999523163},{""stimulus"":""blank"",""time"":1321.7000000476837},{""stimulus"":""https://ziweizhang0304.github.io/Stats_learning_trig/img/Stim/FN_020_g.png"",""time"":1360.8999999761581},{""stimulus"":""blank"",""time"":1661.5},{""stimulus"":""https://ziweizhang0304.github.io/Stats_learning_trig/img/Stim/FN_019_g.png"",""time"":1701.5},{""stimulus"":""blank"",""time"":2002.5},{""stimulus"":""https://ziweizhang0304.github.io/Stats_learning_trig/img/Stim/FN_008_g.png"",""time"":2041},{""stimulus"":""blank"",""time"":2341.7999999523163},{""stimulus"":""https://ziweizhang0304.github.io/Stats_learning_trig/img/Stim/FN_004_g.png"",""time"":2381.100000023842},{""stimulus"":""blank"",""time"":2681.7999999523163},{""stimulus"":""https://ziweizhang0304.github.io/Stats_learning_trig/img/Stim/FN_014_g.png"",""time"":2721},{""stimulus"":""blank"",""time"":3022.100000023842},{""stimulus"":""https://ziweizhang0304.github.io/Stats_learning_trig/img/Stim/FN_016_g.png"",""time"":3061.5},{""stimulus"":""blank"",""time"":3363.2000000476837},{""stimulus"":""https://ziweizhang0304.github.io/Stats_learning_trig/img/Stim/FN_015_g.png"",""time"":3401.2000000476837},{""stimulus"":""blank"",""time"":3701.600000023842},{""stimulus"":""https://ziweizhang0304.github.io/Stats_learning_trig/img/Stim/FN_011_g.png"",""time"":3741.600000023842},{""stimulus"":""blank"",""time"":4042.100000023842},{""stimulus"":""https://ziweizhang0304.github.io/Stats_learning_trig/img/Stim/FN_024_g.png"",""time"":4081.5},{""stimulus"":""blank"",""time"":4382.299999952316}]","[{""key_press"":32,""rt"":3186.600000023842,""stimulus"":""https://ziweizhang0304.github.io/Stats_learning_trig/img/Stim/FN_016_g.png""}]","465.60000002384186","https://ziweizhang0304.github.io/Stats_learning_trig/img/Stim/FN_014_g.png","post_prac","","","","","","","","","","","","",""
"","html-keyboard-response","8","73258","0.0-3.0-1.0-2.0","3291.1999999284744","","","<p>Your reaction time for this trial was 465.6 ms.</p><p>Remember that you should only press the SPACEBAR when you see the shape presented at the beginning of the trial. </b> </p><p>Press enter to move on.</p>","13","","","","","","","","","","","","","","","","","",""
"","image-keyboard-response","9","75208","0.0-3.0-2.0-0.0","1949.3999999761581","","","https://ziweizhang0304.github.io/Stats_learning_trig/img/Stim/FN_001_g.png","13","","","","","","","","","","","","","","","","","",""
"","animation","10","79630","0.0-3.0-2.0-1.0","","","","","","[{""stimulus"":""https://ziweizhang0304.github.io/Stats_learning_trig/img/Stim/FN_024_g.png"",""time"":340.89999997615814},{""stimulus"":""blank"",""time"":642.1000000238419},{""stimulus"":""https://ziweizhang0304.github.io/Stats_learning_trig/img/Stim/FN_011_g.png"",""time"":681.3999999761581},{""stimulus"":""blank"",""time"":981.8999999761581},{""stimulus"":""https://ziweizhang0304.github.io/Stats_learning_trig/img/Stim/FN_019_g.png"",""time"":1021.6999999284744},{""stimulus"":""blank"",""time"":1322.8999999761581},{""stimulus"":""https://ziweizhang0304.github.io/Stats_learning_trig/img/Stim/FN_022_g.png"",""time"":1361},{""stimulus"":""blank"",""time"":1661.6999999284744},{""stimulus"":""https://ziweizhang0304.github.io/Stats_learning_trig/img/Stim/FN_008_g.png"",""time"":1700.6000000238419},{""stimulus"":""blank"",""time"":2000.7999999523163},{""stimulus"":""https://ziweizhang0304.github.io/Stats_learning_trig/img/Stim/FN_001_g.png"",""time"":2040.6000000238419},{""stimulus"":""blank"",""time"":2341},{""stimulus"":""https://ziweizhang0304.github.io/Stats_learning_trig/img/Stim/FN_025_g.png"",""time"":2380.7999999523163},{""stimulus"":""blank"",""time"":2682.6999999284744},{""stimulus"":""https://ziweizhang0304.github.io/Stats_learning_trig/img/Stim/FN_009_g.png"",""time"":2721.5},{""stimulus"":""blank"",""time"":3022.6999999284744},{""stimulus"":""https://ziweizhang0304.github.io/Stats_learning_trig/img/Stim/FN_015_g.png"",""time"":3060.600000023842},{""stimulus"":""blank"",""time"":3361.1999999284744},{""stimulus"":""https://ziweizhang0304.github.io/Stats_learning_trig/img/Stim/FN_020_g.png"",""time"":3401.1999999284744},{""stimulus"":""blank"",""time"":3702.399999976158},{""stimulus"":""https://ziweizhang0304.github.io/Stats_learning_trig/img/Stim/FN_003_g.png"",""time"":3741},{""stimulus"":""blank"",""time"":4041.7999999523163},{""stimulus"":""https://ziweizhang0304.github.io/Stats_learning_trig/img/Stim/FN_013_g.png"",""time"":4080.899999976158},{""stimulus"":""blank"",""time"":4381.5}]","[{""key_press"":32,""rt"":2464.2999999523163,""stimulus"":""https://ziweizhang0304.github.io/Stats_learning_trig/img/Stim/FN_025_g.png""}]","423.6999999284744","https://ziweizhang0304.github.io/Stats_learning_trig/img/Stim/FN_001_g.png","post_prac","","","","","","","","","","","","",""
"","html-keyboard-response","11","82479","0.0-3.0-2.0-2.0","2846.6999999284744","","","<p>Your reaction time for this trial was 423.7 ms.</p><p>Remember that you should only press the SPACEBAR when you see the shape presented at the beginning of the trial. </b> </p><p>Press enter to move on.</p>","13","","","","","","","","","","","","","","","","","",""
"","instructions","12","84146","0.0-4.0","1666.5999999046326","","[{""page_index"":0,""viewing_time"":1666.3999999761581}]","","","","","","","","","","","","","","","","","","","",""
"","image-keyboard-response","13","85934","0.0-5.0-0.0-0.0","1787.1000000238419","","","https://ziweizhang0304.github.io/Stats_learning_trig/img/Stim/FN_014_g.png","13","","","","","","","","","","","","","","","","","",""
"","animation","14","90355","0.0-5.0-0.0-1.0","","","","","","[{""stimulus"":""https://ziweizhang0304.github.io/Stats_learning_trig/img/Stim/FN_013_g.png"",""time"":341},{""stimulus"":""blank"",""time"":642.2999999523163},{""stimulus"":""https://ziweizhang0304.github.io/Stats_learning_trig/img/Stim/FN_003_g.png"",""time"":681.5},{""stimulus"":""blank"",""time"":981.6999999284744},{""stimulus"":""https://ziweizhang0304.github.io/Stats_learning_trig/img/Stim/FN_022_g.png"",""time"":1020.8999999761581},{""stimulus"":""blank"",""time"":1321.5},{""stimulus"":""https://ziweizhang0304.github.io/Stats_learning_trig/img/Stim/FN_020_g.png"",""time"":1360.6999999284744},{""stimulus"":""blank"",""time"":1661.5},{""stimulus"":""https://ziweizhang0304.github.io/Stats_learning_trig/img/Stim/FN_019_g.png"",""time"":1701.5},{""stimulus"":""blank"",""time"":2002.1999999284744},{""stimulus"":""https://ziweizhang0304.github.io/Stats_learning_trig/img/Stim/FN_008_g.png"",""time"":2041.5},{""stimulus"":""blank"",""time"":2342},{""stimulus"":""https://ziweizhang0304.github.io/Stats_learning_trig/img/Stim/FN_004_g.png"",""time"":2381.399999976158},{""stimulus"":""blank"",""time"":2681.899999976158},{""stimulus"":""https://ziweizhang0304.github.io/Stats_learning_trig/img/Stim/FN_014_g.png"",""time"":2721.1999999284744},{""stimulus"":""blank"",""time"":3022.600000023842},{""stimulus"":""https://ziweizhang0304.github.io/Stats_learning_trig/img/Stim/FN_016_g.png"",""time"":3060.6999999284744},{""stimulus"":""blank"",""time"":3361.5},{""stimulus"":""https://ziweizhang0304.github.io/Stats_learning_trig/img/Stim/FN_015_g.png"",""time"":3400.6999999284744},{""stimulus"":""blank"",""time"":3701.7999999523163},{""stimulus"":""https://ziweizhang0304.github.io/Stats_learning_trig/img/Stim/FN_011_g.png"",""time"":3741.100000023842},{""stimulus"":""blank"",""time"":4041.600000023842},{""stimulus"":""https://ziweizhang0304.github.io/Stats_learning_trig/img/Stim/FN_024_g.png"",""time"":4081.7999999523163},{""stimulus"":""blank"",""time"":4382.600000023842}]","[{""key_press"":32,""rt"":3081.5999999046326,""stimulus"":""https://ziweizhang0304.github.io/Stats_learning_trig/img/Stim/FN_016_g.png""}]","360.39999997615814","https://ziweizhang0304.github.io/Stats_learning_trig/img/Stim/FN_014_g.png","post_TD","1","2721.1999999284744","3081.5999999046326","fast","8","2","5f9b15889c51902ece84d3e7","","","","","",""
"","image-keyboard-response","15","92459","0.0-5.0-1.0-0.0","2102.5","","","https://ziweizhang0304.github.io/Stats_learning_trig/img/Stim/FN_016_g.png","13","","","","","","","","","","","","","","","","","",""
"","animation","16","96881","0.0-5.0-1.0-1.0","","","","","","[{""stimulus"":""https://ziweizhang0304.github.io/Stats_learning_trig/img/Stim/FN_020_g.png"",""time"":342.2000000476837},{""stimulus"":""blank"",""time"":642.5},{""stimulus"":""https://ziweizhang0304.github.io/Stats_learning_trig/img/Stim/FN_011_g.png"",""time"":680.7000000476837},{""stimulus"":""blank"",""time"":982.3999999761581},{""stimulus"":""https://ziweizhang0304.github.io/Stats_learning_trig/img/Stim/FN_019_g.png"",""time"":1021.8999999761581},{""stimulus"":""blank"",""time"":1322.6000000238419},{""stimulus"":""https://ziweizhang0304.github.io/Stats_learning_trig/img/Stim/FN_003_g.png"",""time"":1361.1000000238419},{""stimulus"":""blank"",""time"":1661.8000000715256},{""stimulus"":""https://ziweizhang0304.github.io/Stats_learning_trig/img/Stim/FN_004_g.png"",""time"":1700.8999999761581},{""stimulus"":""blank"",""time"":2001.7000000476837},{""stimulus"":""https://ziweizhang0304.github.io/Stats_learning_trig/img/Stim/FN_014_g.png"",""time"":2041.3000000715256},{""stimulus"":""blank"",""time"":2341.8000000715256},{""stimulus"":""https://ziweizhang0304.github.io/Stats_learning_trig/img/Stim/FN_016_g.png"",""time"":2380.7000000476837},{""stimulus"":""blank"",""time"":2682},{""stimulus"":""https://ziweizhang0304.github.io/Stats_learning_trig/img/Stim/FN_015_g.png"",""time"":2720.8000000715256},{""stimulus"":""blank"",""time"":3021.7000000476837},{""stimulus"":""https://ziweizhang0304.github.io/Stats_learning_trig/img/Stim/FN_008_g.png"",""time"":3060.8000000715256},{""stimulus"":""blank"",""time"":3361.8000000715256},{""stimulus"":""https://ziweizhang0304.github.io/Stats_learning_trig/img/Stim/FN_013_g.png"",""time"":3400.899999976158},{""stimulus"":""blank"",""time"":3702},{""stimulus"":""https://ziweizhang0304.github.io/Stats_learning_trig/img/Stim/FN_022_g.png"",""time"":3742.399999976158},{""stimulus"":""blank"",""time"":4043.5},{""stimulus"":""https://ziweizhang0304.github.io/Stats_learning_trig/img/Stim/FN_024_g.png"",""time"":4080.899999976158},{""stimulus"":""blank"",""time"":4382.399999976158}]","[{""key_press"":32,""rt"":2755.5,""stimulus"":""https://ziweizhang0304.github.io/Stats_learning_trig/img/Stim/FN_015_g.png""}]","374.7999999523163","https://ziweizhang0304.github.io/Stats_learning_trig/img/Stim/FN_016_g.png","post_TD","2","2380.7000000476837","2755.5","fast","7","3","5f9b15889c51902ece84d3e7","","","","","",""
"","image-keyboard-response","17","100168","0.0-5.0-2.0-0.0","3286.0999999046326","","","https://ziweizhang0304.github.io/Stats_learning_trig/img/Stim/FN_004_g.png","13","","","","","","","","","","","","","","","","","",""
"","animation","18","104590","0.0-5.0-2.0-1.0","","","","","","[{""stimulus"":""https://ziweizhang0304.github.io/Stats_learning_trig/img/Stim/FN_020_g.png"",""time"":340.7999999523163},{""stimulus"":""blank"",""time"":641.2000000476837},{""stimulus"":""https://ziweizhang0304.github.io/Stats_learning_trig/img/Stim/FN_011_g.png"",""time"":680.7999999523163},{""stimulus"":""blank"",""time"":981.1000000238419},{""stimulus"":""https://ziweizhang0304.github.io/Stats_learning_trig/img/Stim/FN_019_g.png"",""time"":1021.2999999523163},{""stimulus"":""blank"",""time"":1323.2999999523163},{""stimulus"":""https://ziweizhang0304.github.io/Stats_learning_trig/img/Stim/FN_003_g.png"",""time"":1361.5},{""stimulus"":""blank"",""time"":1662.8999999761581},{""stimulus"":""https://ziweizhang0304.github.io/Stats_learning_trig/img/Stim/FN_004_g.png"",""time"":1701.1000000238419},{""stimulus"":""blank"",""time"":2002.5},{""stimulus"":""https://ziweizhang0304.github.io/Stats_learning_trig/img/Stim/FN_014_g.png"",""time"":2040.6000000238419},{""stimulus"":""blank"",""time"":2340.7999999523163},{""stimulus"":""https://ziweizhang0304.github.io/Stats_learning_trig/img/Stim/FN_016_g.png"",""time"":2380.7999999523163},{""stimulus"":""blank"",""time"":2682.7000000476837},{""stimulus"":""https://ziweizhang0304.github.io/Stats_learning_trig/img/Stim/FN_015_g.png"",""time"":2720.7999999523163},{""stimulus"":""blank"",""time"":3022.399999976158},{""stimulus"":""https://ziweizhang0304.github.io/Stats_learning_trig/img/Stim/FN_008_g.png"",""time"":3060.7999999523163},{""stimulus"":""blank"",""time"":3361.7000000476837},{""stimulus"":""https://ziweizhang0304.github.io/Stats_learning_trig/img/Stim/FN_013_g.png"",""time"":3401.600000023842},{""stimulus"":""blank"",""time"":3702.7000000476837},{""stimulus"":""https://ziweizhang0304.github.io/Stats_learning_trig/img/Stim/FN_022_g.png"",""time"":3741.2000000476837},{""stimulus"":""blank"",""time"":4042.600000023842},{""stimulus"":""https://ziweizhang0304.github.io/Stats_learning_trig/img/Stim/FN_024_g.png"",""time"":4081.2999999523163},{""stimulus"":""blank"",""time"":4382.799999952316}]","[{""key_press"":32,""rt"":2262.899999976158,""stimulus"":""https://ziweizhang0304.github.io/Stats_learning_trig/img/Stim/FN_014_g.png""}]","561.7999999523163","https://ziweizhang0304.github.io/Stats_learning_trig/img/Stim/FN_004_g.png","post_TD","3","1701.1000000238419","2262.899999976158","fast","5","1","5f9b15889c51902ece84d3e7","","","","","",""
"","image-keyboard-response","19","106450","0.0-5.0-3.0-0.0","1858.2999999523163","","","https://ziweizhang0304.github.io/Stats_learning_trig/img/Stim/FN_016_g.png","13","","","","","","","","","","","","","","","","","",""
"","animation","20","110873","0.0-5.0-3.0-1.0","","","","","","[{""stimulus"":""https://ziweizhang0304.github.io/Stats_learning_trig/img/Stim/FN_003_g.png"",""time"":341.89999997615814},{""stimulus"":""blank"",""time"":642.5},{""stimulus"":""https://ziweizhang0304.github.io/Stats_learning_trig/img/Stim/FN_008_g.png"",""time"":681.1000000238419},{""stimulus"":""blank"",""time"":981.7000000476837},{""stimulus"":""https://ziweizhang0304.github.io/Stats_learning_trig/img/Stim/FN_011_g.png"",""time"":1021.3999999761581},{""stimulus"":""blank"",""time"":1322.1000000238419},{""stimulus"":""https://ziweizhang0304.github.io/Stats_learning_trig/img/Stim/FN_004_g.png"",""time"":1361.6000000238419},{""stimulus"":""blank"",""time"":1663.2000000476837},{""stimulus"":""https://ziweizhang0304.github.io/Stats_learning_trig/img/Stim/FN_014_g.png"",""time"":1701.2000000476837},{""stimulus"":""blank"",""time"":2002.2000000476837},{""stimulus"":""https://ziweizhang0304.github.io/Stats_learning_trig/img/Stim/FN_016_g.png"",""time"":2041.5},{""stimulus"":""blank"",""time"":2342},{""stimulus"":""https://ziweizhang0304.github.io/Stats_learning_trig/img/Stim/FN_019_g.png"",""time"":2381.5},{""stimulus"":""blank"",""time"":2682.2000000476837},{""stimulus"":""https://ziweizhang0304.github.io/Stats_learning_trig/img/Stim/FN_015_g.png"",""time"":2720.7999999523163},{""stimulus"":""blank"",""time"":3022.5},{""stimulus"":""https://ziweizhang0304.github.io/Stats_learning_trig/img/Stim/FN_020_g.png"",""time"":3061.899999976158},{""stimulus"":""blank"",""time"":3362.600000023842},{""stimulus"":""https://ziweizhang0304.github.io/Stats_learning_trig/img/Stim/FN_013_g.png"",""time"":3401.5},{""stimulus"":""blank"",""time"":3702.100000023842},{""stimulus"":""https://ziweizhang0304.github.io/Stats_learning_trig/img/Stim/FN_022_g.png"",""time"":3741.100000023842},{""stimulus"":""blank"",""time"":4042.399999976158},{""stimulus"":""https://ziweizhang0304.github.io/Stats_learning_trig/img/Stim/FN_024_g.png"",""time"":4081},{""stimulus"":""blank"",""time"":4381.5}]","[{""key_press"":32,""rt"":2435.899999976158,""stimulus"":""https://ziweizhang0304.github.io/Stats_learning_trig/img/Stim/FN_019_g.png""}]","394.39999997615814","https://ziweizhang0304.github.io/Stats_learning_trig/img/Stim/FN_016_g.png","post_TD","4","2041.5","2435.899999976158","fast","6","3","5f9b15889c51902ece84d3e7","","","","","",""
"","image-keyboard-response","21","112234","0.0-5.0-4.0-0.0","1359.0999999046326","","","https://ziweizhang0304.github.io/Stats_learning_trig/img/Stim/FN_001_g.png","13","","","","","","","","","","","","","","","","","",""
"","animation","22","116655","0.0-5.0-4.0-1.0","","","","","","[{""stimulus"":""https://ziweizhang0304.github.io/Stats_learning_trig/img/Stim/FN_013_g.png"",""time"":341.5},{""stimulus"":""blank"",""time"":642.6000000238419},{""stimulus"":""https://ziweizhang0304.github.io/Stats_learning_trig/img/Stim/FN_011_g.png"",""time"":681.3000000715256},{""stimulus"":""blank"",""time"":981.7000000476837},{""stimulus"":""https://ziweizhang0304.github.io/Stats_learning_trig/img/Stim/FN_024_g.png"",""time"":1021.5},{""stimulus"":""blank"",""time"":1322.4000000953674},{""stimulus"":""https://ziweizhang0304.github.io/Stats_learning_trig/img/Stim/FN_001_g.png"",""time"":1361.1000000238419},{""stimulus"":""blank"",""time"":1662},{""stimulus"":""https://ziweizhang0304.github.io/Stats_learning_trig/img/Stim/FN_025_g.png"",""time"":1701.4000000953674},{""stimulus"":""blank"",""time"":2002.7000000476837},{""stimulus"":""https://ziweizhang0304.github.io/Stats_learning_trig/img/Stim/FN_009_g.png"",""time"":2041.3000000715256},{""stimulus"":""blank"",""time"":2341.5},{""stimulus"":""https://ziweizhang0304.github.io/Stats_learning_trig/img/Stim/FN_019_g.png"",""time"":2380.7000000476837},{""stimulus"":""blank"",""time"":2681.2000000476837},{""stimulus"":""https://ziweizhang0304.github.io/Stats_learning_trig/img/Stim/FN_015_g.png"",""time"":2721.3000000715256},{""stimulus"":""blank"",""time"":3022.3000000715256},{""stimulus"":""https://ziweizhang0304.github.io/Stats_learning_trig/img/Stim/FN_020_g.png"",""time"":3061.5},{""stimulus"":""blank"",""time"":3361.8000000715256},{""stimulus"":""https://ziweizhang0304.github.io/Stats_learning_trig/img/Stim/FN_003_g.png"",""time"":3400.7000000476837},{""stimulus"":""blank"",""time"":3701.5},{""stimulus"":""https://ziweizhang0304.github.io/Stats_learning_trig/img/Stim/FN_008_g.png"",""time"":3741.7000000476837},{""stimulus"":""blank"",""time"":4042.8000000715256},{""stimulus"":""https://ziweizhang0304.github.io/Stats_learning_trig/img/Stim/FN_022_g.png"",""time"":4081.5},{""stimulus"":""blank"",""time"":4382.300000071526}]","[{""key_press"":32,""rt"":1767.3000000715256,""stimulus"":""https://ziweizhang0304.github.io/Stats_learning_trig/img/Stim/FN_025_g.png""}]","406.2000000476837","https://ziweizhang0304.github.io/Stats_learning_trig/img/Stim/FN_001_g.png","post_TD","5","1361.1000000238419","1767.3000000715256","slow","4","1","5f9b15889c51902ece84d3e7","","","","","",""
"","image-keyboard-response","23","117679","0.0-5.0-5.0-0.0","1022.1000000238419","","","https://ziweizhang0304.github.io/Stats_learning_trig/img/Stim/FN_016_g.png","13","","","","","","","","","","","","","","","","","",""
"","animation","24","122099","0.0-5.0-5.0-1.0","","","","","","[{""stimulus"":""https://ziweizhang0304.github.io/Stats_learning_trig/img/Stim/FN_013_g.png"",""time"":340.89999997615814},{""stimulus"":""blank"",""time"":641.1999999284744},{""stimulus"":""https://ziweizhang0304.github.io/Stats_learning_trig/img/Stim/FN_003_g.png"",""time"":681.5},{""stimulus"":""blank"",""time"":983},{""stimulus"":""https://ziweizhang0304.github.io/Stats_learning_trig/img/Stim/FN_022_g.png"",""time"":1021.5},{""stimulus"":""blank"",""time"":1323.2999999523163},{""stimulus"":""https://ziweizhang0304.github.io/Stats_learning_trig/img/Stim/FN_020_g.png"",""time"":1360.6999999284744},{""stimulus"":""blank"",""time"":1661.6000000238419},{""stimulus"":""https://ziweizhang0304.github.io/Stats_learning_trig/img/Stim/FN_019_g.png"",""time"":1701.1000000238419},{""stimulus"":""blank"",""time"":2001.8999999761581},{""stimulus"":""https://ziweizhang0304.github.io/Stats_learning_trig/img/Stim/FN_008_g.png"",""time"":2041.1000000238419},{""stimulus"":""blank"",""time"":2342.1999999284744},{""stimulus"":""https://ziweizhang0304.github.io/Stats_learning_trig/img/Stim/FN_004_g.png"",""time"":2381.600000023842},{""stimulus"":""blank"",""time"":2683.5},{""stimulus"":""https://ziweizhang0304.github.io/Stats_learning_trig/img/Stim/FN_014_g.png"",""time"":2721.100000023842},{""stimulus"":""blank"",""time"":3022.1999999284744},{""stimulus"":""https://ziweizhang0304.github.io/Stats_learning_trig/img/Stim/FN_016_g.png"",""time"":3062.399999976158},{""stimulus"":""blank"",""time"":3363.5},{""stimulus"":""https://ziweizhang0304.github.io/Stats_learning_trig/img/Stim/FN_015_g.png"",""time"":3401.600000023842},{""stimulus"":""blank"",""time"":3703.5},{""stimulus"":""https://ziweizhang0304.github.io/Stats_learning_trig/img/Stim/FN_011_g.png"",""time"":3741},{""stimulus"":""blank"",""time"":4041.5},{""stimulus"":""https://ziweizhang0304.github.io/Stats_learning_trig/img/Stim/FN_024_g.png"",""time"":4081.399999976158},{""stimulus"":""blank"",""time"":4382.199999928474}]","[{""key_press"":32,""rt"":2396.6999999284744,""stimulus"":""https://ziweizhang0304.github.io/Stats_learning_trig/img/Stim/FN_004_g.png""}]","NaN","https://ziweizhang0304.github.io/Stats_learning_trig/img/Stim/FN_016_g.png","post_TD","6","3062.399999976158","","fast","9","3","5f9b15889c51902ece84d3e7","","","","","",""
"","image-keyboard-response","25","123839","0.0-5.0-6.0-0.0","1737.5","","","https://ziweizhang0304.github.io/Stats_learning_trig/img/Stim/FN_001_g.png","13","","","","","","","","","","","","","","","","","",""
"","animation","26","128260","0.0-5.0-6.0-1.0","","","","","","[{""stimulus"":""https://ziweizhang0304.github.io/Stats_learning_trig/img/Stim/FN_020_g.png"",""time"":340.7999999523163},{""stimulus"":""blank"",""time"":641.6999999284744},{""stimulus"":""https://ziweizhang0304.github.io/Stats_learning_trig/img/Stim/FN_011_g.png"",""time"":681.6000000238419},{""stimulus"":""blank"",""time"":982.7999999523163},{""stimulus"":""https://ziweizhang0304.github.io/Stats_learning_trig/img/Stim/FN_008_g.png"",""time"":1020.7999999523163},{""stimulus"":""blank"",""time"":1321.5},{""stimulus"":""https://ziweizhang0304.github.io/Stats_learning_trig/img/Stim/FN_019_g.png"",""time"":1360.7999999523163},{""stimulus"":""blank"",""time"":1661.3999999761581},{""stimulus"":""https://ziweizhang0304.github.io/Stats_learning_trig/img/Stim/FN_015_g.png"",""time"":1701.2999999523163},{""stimulus"":""blank"",""time"":2003.2999999523163},{""stimulus"":""https://ziweizhang0304.github.io/Stats_learning_trig/img/Stim/FN_003_g.png"",""time"":2041.1999999284744},{""stimulus"":""blank"",""time"":2341.6999999284744},{""stimulus"":""https://ziweizhang0304.github.io/Stats_learning_trig/img/Stim/FN_001_g.png"",""time"":2381.899999976158},{""stimulus"":""blank"",""time"":2683.399999976158},{""stimulus"":""https://ziweizhang0304.github.io/Stats_learning_trig/img/Stim/FN_025_g.png"",""time"":2720.6999999284744},{""stimulus"":""blank"",""time"":3021.6999999284744},{""stimulus"":""https://ziweizhang0304.github.io/Stats_learning_trig/img/Stim/FN_009_g.png"",""time"":3061.2999999523163},{""stimulus"":""blank"",""time"":3363.100000023842},{""stimulus"":""https://ziweizhang0304.github.io/Stats_learning_trig/img/Stim/FN_013_g.png"",""time"":3400.899999976158},{""stimulus"":""blank"",""time"":3702.899999976158},{""stimulus"":""https://ziweizhang0304.github.io/Stats_learning_trig/img/Stim/FN_022_g.png"",""time"":3741.100000023842},{""stimulus"":""blank"",""time"":4043.2999999523163},{""stimulus"":""https://ziweizhang0304.github.io/Stats_learning_trig/img/Stim/FN_024_g.png"",""time"":4080.5},{""stimulus"":""blank"",""time"":4380.799999952316}]","[{""key_press"":32,""rt"":2747.2999999523163,""stimulus"":""https://ziweizhang0304.github.io/Stats_learning_trig/img/Stim/FN_025_g.png""}]","365.39999997615814","https://ziweizhang0304.github.io/Stats_learning_trig/img/Stim/FN_001_g.png","post_TD","7","2381.899999976158","2747.2999999523163","slow","7","1","5f9b15889c51902ece84d3e7","","","","","",""
"","image-keyboard-response","27","130576","0.0-5.0-7.0-0.0","2313.5","","","https://ziweizhang0304.github.io/Stats_learning_trig/img/Stim/FN_014_g.png","13","","","","","","","","","","","","","","","","","",""
"","animation","28","134999","0.0-5.0-7.0-1.0","","","","","","[{""stimulus"":""https://ziweizhang0304.github.io/Stats_learning_trig/img/Stim/FN_011_g.png"",""time"":341.7000000476837},{""stimulus"":""blank"",""time"":642.6000000238419},{""stimulus"":""https://ziweizhang0304.github.io/Stats_learning_trig/img/Stim/FN_015_g.png"",""time"":680.6000000238419},{""stimulus"":""blank"",""time"":981.8000000715256},{""stimulus"":""https://ziweizhang0304.github.io/Stats_learning_trig/img/Stim/FN_022_g.png"",""time"":1021.5},{""stimulus"":""blank"",""time"":1322.2000000476837},{""stimulus"":""https://ziweizhang0304.github.io/Stats_learning_trig/img/Stim/FN_008_g.png"",""time"":1361},{""stimulus"":""blank"",""time"":1661.4000000953674},{""stimulus"":""https://ziweizhang0304.github.io/Stats_learning_trig/img/Stim/FN_024_g.png"",""time"":1701.6000000238419},{""stimulus"":""blank"",""time"":2002.6000000238419},{""stimulus"":""https://ziweizhang0304.github.io/Stats_learning_trig/img/Stim/FN_004_g.png"",""time"":2040.8000000715256},{""stimulus"":""blank"",""time"":2341.600000023842},{""stimulus"":""https://ziweizhang0304.github.io/Stats_learning_trig/img/Stim/FN_014_g.png"",""time"":2381.3000000715256},{""stimulus"":""blank"",""time"":2682.4000000953674},{""stimulus"":""https://ziweizhang0304.github.io/Stats_learning_trig/img/Stim/FN_016_g.png"",""time"":2721.2000000476837},{""stimulus"":""blank"",""time"":3021.5},{""stimulus"":""https://ziweizhang0304.github.io/Stats_learning_trig/img/Stim/FN_019_g.png"",""time"":3061.7000000476837},{""stimulus"":""blank"",""time"":3361.8000000715256},{""stimulus"":""https://ziweizhang0304.github.io/Stats_learning_trig/img/Stim/FN_020_g.png"",""time"":3400.7000000476837},{""stimulus"":""blank"",""time"":3701.5},{""stimulus"":""https://ziweizhang0304.github.io/Stats_learning_trig/img/Stim/FN_003_g.png"",""time"":3741.600000023842},{""stimulus"":""blank"",""time"":4042.4000000953674},{""stimulus"":""https://ziweizhang0304.github.io/Stats_learning_trig/img/Stim/FN_013_g.png"",""time"":4080.9000000953674},{""stimulus"":""blank"",""time"":4381.300000071526}]","[{""key_press"":32,""rt"":2763.5,""stimulus"":""https://ziweizhang0304.github.io/Stats_learning_trig/img/Stim/FN_016_g.png""}]","382.1999999284744","https://ziweizhang0304.github.io/Stats_learning_trig/img/Stim/FN_014_g.png","post_TD","8","2381.3000000715256","2763.5","fast","7","2","5f9b15889c51902ece84d3e7","","","","","",""
"","image-keyboard-response","29","136973","0.0-5.0-8.0-0.0","1972.1999999284744","","","https://ziweizhang0304.github.io/Stats_learning_trig/img/Stim/FN_009_g.png","13","","","","","","","","","","","","","","","","","",""
"","animation","30","141393","0.0-5.0-8.0-1.0","","","","","","[{""stimulus"":""https://ziweizhang0304.github.io/Stats_learning_trig/img/Stim/FN_020_g.png"",""time"":341.7000000476837},{""stimulus"":""blank"",""time"":642.6000000238419},{""stimulus"":""https://ziweizhang0304.github.io/Stats_learning_trig/img/Stim/FN_011_g.png"",""time"":681.7000000476837},{""stimulus"":""blank"",""time"":982.1000000238419},{""stimulus"":""https://ziweizhang0304.github.io/Stats_learning_trig/img/Stim/FN_008_g.png"",""time"":1020.7000000476837},{""stimulus"":""blank"",""time"":1321.3999999761581},{""stimulus"":""https://ziweizhang0304.github.io/Stats_learning_trig/img/Stim/FN_019_g.png"",""time"":1361.6000000238419},{""stimulus"":""blank"",""time"":1662.2999999523163},{""stimulus"":""https://ziweizhang0304.github.io/Stats_learning_trig/img/Stim/FN_015_g.png"",""time"":1701.3999999761581},{""stimulus"":""blank"",""time"":2002.3999999761581},{""stimulus"":""https://ziweizhang0304.github.io/Stats_learning_trig/img/Stim/FN_003_g.png"",""time"":2040.7999999523163},{""stimulus"":""blank"",""time"":2341.2999999523163},{""stimulus"":""https://ziweizhang0304.github.io/Stats_learning_trig/img/Stim/FN_001_g.png"",""time"":2381.5},{""stimulus"":""blank"",""time"":2682.100000023842},{""stimulus"":""https://ziweizhang0304.github.io/Stats_learning_trig/img/Stim/FN_025_g.png"",""time"":2721.2000000476837},{""stimulus"":""blank"",""time"":3021.600000023842},{""stimulus"":""https://ziweizhang0304.github.io/Stats_learning_trig/img/Stim/FN_009_g.png"",""time"":3060.7999999523163},{""stimulus"":""blank"",""time"":3361.899999976158},{""stimulus"":""https://ziweizhang0304.github.io/Stats_learning_trig/img/Stim/FN_013_g.png"",""time"":3400.7000000476837},{""stimulus"":""blank"",""time"":3701.2000000476837},{""stimulus"":""https://ziweizhang0304.github.io/Stats_learning_trig/img/Stim/FN_022_g.png"",""time"":3740.7000000476837},{""stimulus"":""blank"",""time"":4041},{""stimulus"":""https://ziweizhang0304.github.io/Stats_learning_trig/img/Stim/FN_024_g.png"",""time"":4081.100000023842},{""stimulus"":""blank"",""time"":4382}]","[{""key_press"":32,""rt"":3402.399999976158,""stimulus"":""https://ziweizhang0304.github.io/Stats_learning_trig/img/Stim/FN_013_g.png""}]","341.60000002384186","https://ziweizhang0304.github.io/Stats_learning_trig/img/Stim/FN_009_g.png","post_TD","9","3060.7999999523163","3402.399999976158","slow","9","3","5f9b15889c51902ece84d3e7","","","","","",""
"","image-keyboard-response","31","142296","0.0-5.0-9.0-0.0","901.3999999761581","","","https://ziweizhang0304.github.io/Stats_learning_trig/img/Stim/FN_009_g.png","13","","","","","","","","","","","","","","","","","",""
"","animation","32","146717","0.0-5.0-9.0-1.0","","","","","","[{""stimulus"":""https://ziweizhang0304.github.io/Stats_learning_trig/img/Stim/FN_024_g.png"",""time"":341.59999990463257},{""stimulus"":""blank"",""time"":642.5999999046326},{""stimulus"":""https://ziweizhang0304.github.io/Stats_learning_trig/img/Stim/FN_011_g.png"",""time"":681},{""stimulus"":""blank"",""time"":981.8999999761581},{""stimulus"":""https://ziweizhang0304.github.io/Stats_learning_trig/img/Stim/FN_019_g.png"",""time"":1021.5999999046326},{""stimulus"":""blank"",""time"":1322.0999999046326},{""stimulus"":""https://ziweizhang0304.github.io/Stats_learning_trig/img/Stim/FN_022_g.png"",""time"":1361.2999999523163},{""stimulus"":""blank"",""time"":1662.2999999523163},{""stimulus"":""https://ziweizhang0304.github.io/Stats_learning_trig/img/Stim/FN_008_g.png"",""time"":1701.0999999046326},{""stimulus"":""blank"",""time"":2001.8999999761581},{""stimulus"":""https://ziweizhang0304.github.io/Stats_learning_trig/img/Stim/FN_001_g.png"",""time"":2041.0999999046326},{""stimulus"":""blank"",""time"":2341.6999999284744},{""stimulus"":""https://ziweizhang0304.github.io/Stats_learning_trig/img/Stim/FN_025_g.png"",""time"":2381.399999976158},{""stimulus"":""blank"",""time"":2682.0999999046326},{""stimulus"":""https://ziweizhang0304.github.io/Stats_learning_trig/img/Stim/FN_009_g.png"",""time"":2721},{""stimulus"":""blank"",""time"":3022},{""stimulus"":""https://ziweizhang0304.github.io/Stats_learning_trig/img/Stim/FN_015_g.png"",""time"":3060.7999999523163},{""stimulus"":""blank"",""time"":3361},{""stimulus"":""https://ziweizhang0304.github.io/Stats_learning_trig/img/Stim/FN_020_g.png"",""time"":3401.0999999046326},{""stimulus"":""blank"",""time"":3701.2999999523163},{""stimulus"":""https://ziweizhang0304.github.io/Stats_learning_trig/img/Stim/FN_003_g.png"",""time"":3741.2999999523163},{""stimulus"":""blank"",""time"":4041.7999999523163},{""stimulus"":""https://ziweizhang0304.github.io/Stats_learning_trig/img/Stim/FN_013_g.png"",""time"":4081.6999999284744},{""stimulus"":""blank"",""time"":4383.699999928474}]","[{""key_press"":32,""rt"":3093.7000000476837,""stimulus"":""https://ziweizhang0304.github.io/Stats_learning_trig/img/Stim/FN_015_g.png""}]","372.7000000476837","https://ziweizhang0304.github.io/Stats_learning_trig/img/Stim/FN_009_g.png","post_TD","10","2721","3093.7000000476837","slow","8","3","5f9b15889c51902ece84d3e7","","","","","",""
"","image-keyboard-response","33","148087","0.0-5.0-10.0-0.0","1367.8999999761581","","","https://ziweizhang0304.github.io/Stats_learning_trig/img/Stim/FN_025_g.png","13","","","","","","","","","","","","","","","","","",""
"","animation","34","152508","0.0-5.0-10.0-1.0","","","","","","[{""stimulus"":""https://ziweizhang0304.github.io/Stats_learning_trig/img/Stim/FN_024_g.png"",""time"":341.5},{""stimulus"":""blank"",""time"":642},{""stimulus"":""https://ziweizhang0304.github.io/Stats_learning_trig/img/Stim/FN_011_g.png"",""time"":681.0999999046326},{""stimulus"":""blank"",""time"":981.8999999761581},{""stimulus"":""https://ziweizhang0304.github.io/Stats_learning_trig/img/Stim/FN_019_g.png"",""time"":1020.8999999761581},{""stimulus"":""blank"",""time"":1322},{""stimulus"":""https://ziweizhang0304.github.io/Stats_learning_trig/img/Stim/FN_022_g.png"",""time"":1361.1999999284744},{""stimulus"":""blank"",""time"":1662.5},{""stimulus"":""https://ziweizhang0304.github.io/Stats_learning_trig/img/Stim/FN_008_g.png"",""time"":1700.3999999761581},{""stimulus"":""blank"",""time"":2001},{""stimulus"":""https://ziweizhang0304.github.io/Stats_learning_trig/img/Stim/FN_001_g.png"",""time"":2041},{""stimulus"":""blank"",""time"":2342.2999999523163},{""stimulus"":""https://ziweizhang0304.github.io/Stats_learning_trig/img/Stim/FN_025_g.png"",""time"":2380.5999999046326},{""stimulus"":""blank"",""time"":2681.399999976158},{""stimulus"":""https://ziweizhang0304.github.io/Stats_learning_trig/img/Stim/FN_009_g.png"",""time"":2721.899999976158},{""stimulus"":""blank"",""time"":3022.399999976158},{""stimulus"":""https://ziweizhang0304.github.io/Stats_learning_trig/img/Stim/FN_015_g.png"",""time"":3060.7999999523163},{""stimulus"":""blank"",""time"":3361.0999999046326},{""stimulus"":""https://ziweizhang0304.github.io/Stats_learning_trig/img/Stim/FN_020_g.png"",""time"":3400.6999999284744},{""stimulus"":""blank"",""time"":3701.5},{""stimulus"":""https://ziweizhang0304.github.io/Stats_learning_trig/img/Stim/FN_003_g.png"",""time"":3742.2999999523163},{""stimulus"":""blank"",""time"":4044},{""stimulus"":""https://ziweizhang0304.github.io/Stats_learning_trig/img/Stim/FN_013_g.png"",""time"":4081.5},{""stimulus"":""blank"",""time"":4382.099999904633}]","[{""key_press"":32,""rt"":1723.1999999284744,""stimulus"":""https://ziweizhang0304.github.io/Stats_learning_trig/img/Stim/FN_008_g.png""}]","NaN","https://ziweizhang0304.github.io/Stats_learning_trig/img/Stim/FN_025_g.png","post_TD","11","2380.5999999046326","","slow","7","2","5f9b15889c51902ece84d3e7","","","","","",""
"","image-keyboard-response","35","153105","0.0-5.0-11.0-0.0","595","","","https://ziweizhang0304.github.io/Stats_learning_trig/img/Stim/FN_016_g.png","13","","","","","","","","","","","","","","","","","",""
"","animation","36","157526","0.0-5.0-11.0-1.0","","","","","","[{""stimulus"":""https://ziweizhang0304.github.io/Stats_learning_trig/img/Stim/FN_011_g.png"",""time"":341.2999999523163},{""stimulus"":""blank"",""time"":642},{""stimulus"":""https://ziweizhang0304.github.io/Stats_learning_trig/img/Stim/FN_015_g.png"",""time"":681.6000000238419},{""stimulus"":""blank"",""time"":982.6999999284744},{""stimulus"":""https://ziweizhang0304.github.io/Stats_learning_trig/img/Stim/FN_022_g.png"",""time"":1021.1999999284744},{""stimulus"":""blank"",""time"":1322.2999999523163},{""stimulus"":""https://ziweizhang0304.github.io/Stats_learning_trig/img/Stim/FN_008_g.png"",""time"":1361.1999999284744},{""stimulus"":""blank"",""time"":1661.6999999284744},{""stimulus"":""https://ziweizhang0304.github.io/Stats_learning_trig/img/Stim/FN_024_g.png"",""time"":1701.5},{""stimulus"":""blank"",""time"":2002.3999999761581},{""stimulus"":""https://ziweizhang0304.github.io/Stats_learning_trig/img/Stim/FN_004_g.png"",""time"":2041.1999999284744},{""stimulus"":""blank"",""time"":2341.5},{""stimulus"":""https://ziweizhang0304.github.io/Stats_learning_trig/img/Stim/FN_014_g.png"",""time"":2381.1999999284744},{""stimulus"":""blank"",""time"":2682.100000023842},{""stimulus"":""https://ziweizhang0304.github.io/Stats_learning_trig/img/Stim/FN_016_g.png"",""time"":2720.6999999284744},{""stimulus"":""blank"",""time"":3021.5},{""stimulus"":""https://ziweizhang0304.github.io/Stats_learning_trig/img/Stim/FN_019_g.png"",""time"":3060.7999999523163},{""stimulus"":""blank"",""time"":3361.6999999284744},{""stimulus"":""https://ziweizhang0304.github.io/Stats_learning_trig/img/Stim/FN_020_g.png"",""time"":3400.899999976158},{""stimulus"":""blank"",""time"":3702.100000023842},{""stimulus"":""https://ziweizhang0304.github.io/Stats_learning_trig/img/Stim/FN_003_g.png"",""time"":3741.600000023842},{""stimulus"":""blank"",""time"":4042.6999999284744},{""stimulus"":""https://ziweizhang0304.github.io/Stats_learning_trig/img/Stim/FN_013_g.png"",""time"":4080.899999976158},{""stimulus"":""blank"",""time"":4382}]","[{""key_press"":32,""rt"":3046.5999999046326,""stimulus"":""blank""}]","325.89999997615814","https://ziweizhang0304.github.io/Stats_learning_trig/img/Stim/FN_016_g.png","post_TD","12","2720.6999999284744","3046.5999999046326","fast","8","3","5f9b15889c51902ece84d3e7","","","","","",""
"","image-keyboard-response","37","158946","0.0-5.0-12.0-0.0","1418.3999999761581","","","https://ziweizhang0304.github.io/Stats_learning_trig/img/Stim/FN_025_g.png","13","","","","","","","","","","","","","","","","","",""
"","animation","38","163368","0.0-5.0-12.0-1.0","","","","","","[{""stimulus"":""https://ziweizhang0304.github.io/Stats_learning_trig/img/Stim/FN_020_g.png"",""time"":340.7999999523163},{""stimulus"":""blank"",""time"":641.2999999523163},{""stimulus"":""https://ziweizhang0304.github.io/Stats_learning_trig/img/Stim/FN_011_g.png"",""time"":681.7999999523163},{""stimulus"":""blank"",""time"":982.8999999761581},{""stimulus"":""https://ziweizhang0304.github.io/Stats_learning_trig/img/Stim/FN_008_g.png"",""time"":1020.8999999761581},{""stimulus"":""blank"",""time"":1321.6999999284744},{""stimulus"":""https://ziweizhang0304.github.io/Stats_learning_trig/img/Stim/FN_019_g.png"",""time"":1361.5},{""stimulus"":""blank"",""time"":1662},{""stimulus"":""https://ziweizhang0304.github.io/Stats_learning_trig/img/Stim/FN_015_g.png"",""time"":1701.3999999761581},{""stimulus"":""blank"",""time"":2002.3999999761581},{""stimulus"":""https://ziweizhang0304.github.io/Stats_learning_trig/img/Stim/FN_003_g.png"",""time"":2041.8999999761581},{""stimulus"":""blank"",""time"":2343.0999999046326},{""stimulus"":""https://ziweizhang0304.github.io/Stats_learning_trig/img/Stim/FN_001_g.png"",""time"":2381.0999999046326},{""stimulus"":""blank"",""time"":2681.5},{""stimulus"":""https://ziweizhang0304.github.io/Stats_learning_trig/img/Stim/FN_025_g.png"",""time"":2720.7999999523163},{""stimulus"":""blank"",""time"":3021.899999976158},{""stimulus"":""https://ziweizhang0304.github.io/Stats_learning_trig/img/Stim/FN_009_g.png"",""time"":3060.7999999523163},{""stimulus"":""blank"",""time"":3361.899999976158},{""stimulus"":""https://ziweizhang0304.github.io/Stats_learning_trig/img/Stim/FN_013_g.png"",""time"":3401.5},{""stimulus"":""blank"",""time"":3702.2999999523163},{""stimulus"":""https://ziweizhang0304.github.io/Stats_learning_trig/img/Stim/FN_022_g.png"",""time"":3741.0999999046326},{""stimulus"":""blank"",""time"":4041.399999976158},{""stimulus"":""https://ziweizhang0304.github.io/Stats_learning_trig/img/Stim/FN_024_g.png"",""time"":4080.6999999284744},{""stimulus"":""blank"",""time"":4381.399999976158}]","[{""key_press"":32,""rt"":3092.7000000476837,""stimulus"":""https://ziweizhang0304.github.io/Stats_learning_trig/img/Stim/FN_009_g.png""}]","371.90000009536743","https://ziweizhang0304.github.io/Stats_learning_trig/img/Stim/FN_025_g.png","post_TD","13","2720.7999999523163","3092.7000000476837","slow","8","2","5f9b15889c51902ece84d3e7","","","","","",""
"","image-keyboard-response","39","164187","0.0-5.0-13.0-0.0","817.7000000476837","","","https://ziweizhang0304.github.io/Stats_learning_trig/img/Stim/FN_009_g.png","13","","","","","","","","","","","","","","","","","",""
"","animation","40","168608","0.0-5.0-13.0-1.0","","","","","","[{""stimulus"":""https://ziweizhang0304.github.io/Stats_learning_trig/img/Stim/FN_013_g.png"",""time"":342.39999997615814},{""stimulus"":""blank"",""time"":643.2999999523163},{""stimulus"":""https://ziweizhang0304.github.io/Stats_learning_trig/img/Stim/FN_011_g.png"",""time"":681},{""stimulus"":""blank"",""time"":982.7000000476837},{""stimulus"":""https://ziweizhang0304.github.io/Stats_learning_trig/img/Stim/FN_024_g.png"",""time"":1020.6000000238419},{""stimulus"":""blank"",""time"":1321},{""stimulus"":""https://ziweizhang0304.github.io/Stats_learning_trig/img/Stim/FN_001_g.png"",""time"":1362.7000000476837},{""stimulus"":""blank"",""time"":1663.2999999523163},{""stimulus"":""https://ziweizhang0304.github.io/Stats_learning_trig/img/Stim/FN_025_g.png"",""time"":1701.1000000238419},{""stimulus"":""blank"",""time"":2002},{""stimulus"":""https://ziweizhang0304.github.io/Stats_learning_trig/img/Stim/FN_009_g.png"",""time"":2041.5},{""stimulus"":""blank"",""time"":2342.100000023842},{""stimulus"":""https://ziweizhang0304.github.io/Stats_learning_trig/img/Stim/FN_019_g.png"",""time"":2381.2999999523163},{""stimulus"":""blank"",""time"":2681.899999976158},{""stimulus"":""https://ziweizhang0304.github.io/Stats_learning_trig/img/Stim/FN_015_g.png"",""time"":2721.600000023842},{""stimulus"":""blank"",""time"":3023.2999999523163},{""stimulus"":""https://ziweizhang0304.github.io/Stats_learning_trig/img/Stim/FN_020_g.png"",""time"":3060.899999976158},{""stimulus"":""blank"",""time"":3361.2999999523163},{""stimulus"":""https://ziweizhang0304.github.io/Stats_learning_trig/img/Stim/FN_003_g.png"",""time"":3402.2999999523163},{""stimulus"":""blank"",""time"":3702.600000023842},{""stimulus"":""https://ziweizhang0304.github.io/Stats_learning_trig/img/Stim/FN_008_g.png"",""time"":3740.600000023842},{""stimulus"":""blank"",""time"":4042.5},{""stimulus"":""https://ziweizhang0304.github.io/Stats_learning_trig/img/Stim/FN_022_g.png"",""time"":4081.5},{""stimulus"":""blank"",""time"":4382.600000023842}]","[{""key_press"":32,""rt"":2413.899999976158,""stimulus"":""https://ziweizhang0304.github.io/Stats_learning_trig/img/Stim/FN_019_g.png""}]","372.39999997615814","https://ziweizhang0304.github.io/Stats_learning_trig/img/Stim/FN_009_g.png","post_TD","14","2041.5","2413.899999976158","slow","6","3","5f9b15889c51902ece84d3e7","","","","","",""
"","image-keyboard-response","41","169418","0.0-5.0-14.0-0.0","808.0999999046326","","","https://ziweizhang0304.github.io/Stats_learning_trig/img/Stim/FN_004_g.png","13","","","","","","","","","","","","","","","","","",""
"","animation","42","173840","0.0-5.0-14.0-1.0","","","","","","[{""stimulus"":""https://ziweizhang0304.github.io/Stats_learning_trig/img/Stim/FN_003_g.png"",""time"":341.40000009536743},{""stimulus"":""blank"",""time"":641.9000000953674},{""stimulus"":""https://ziweizhang0304.github.io/Stats_learning_trig/img/Stim/FN_008_g.png"",""time"":681.5},{""stimulus"":""blank"",""time"":982},{""stimulus"":""https://ziweizhang0304.github.io/Stats_learning_trig/img/Stim/FN_011_g.png"",""time"":1021.3000000715256},{""stimulus"":""blank"",""time"":1323},{""stimulus"":""https://ziweizhang0304.github.io/Stats_learning_trig/img/Stim/FN_004_g.png"",""time"":1361},{""stimulus"":""blank"",""time"":1661.8000000715256},{""stimulus"":""https://ziweizhang0304.github.io/Stats_learning_trig/img/Stim/FN_014_g.png"",""time"":1701.2000000476837},{""stimulus"":""blank"",""time"":2001.8000000715256},{""stimulus"":""https://ziweizhang0304.github.io/Stats_learning_trig/img/Stim/FN_016_g.png"",""time"":2041},{""stimulus"":""blank"",""time"":2341.3000000715256},{""stimulus"":""https://ziweizhang0304.github.io/Stats_learning_trig/img/Stim/FN_019_g.png"",""time"":2381.4000000953674},{""stimulus"":""blank"",""time"":2681.9000000953674},{""stimulus"":""https://ziweizhang0304.github.io/Stats_learning_trig/img/Stim/FN_015_g.png"",""time"":2720.8000000715256},{""stimulus"":""blank"",""time"":3021.3000000715256},{""stimulus"":""https://ziweizhang0304.github.io/Stats_learning_trig/img/Stim/FN_020_g.png"",""time"":3060.9000000953674},{""stimulus"":""blank"",""time"":3361.8000000715256},{""stimulus"":""https://ziweizhang0304.github.io/Stats_learning_trig/img/Stim/FN_013_g.png"",""time"":3400.600000023842},{""stimulus"":""blank"",""time"":3701.600000023842},{""stimulus"":""https://ziweizhang0304.github.io/Stats_learning_trig/img/Stim/FN_022_g.png"",""time"":3740.8000000715256},{""stimulus"":""blank"",""time"":4041.8000000715256},{""stimulus"":""https://ziweizhang0304.github.io/Stats_learning_trig/img/Stim/FN_024_g.png"",""time"":4081.600000023842},{""stimulus"":""blank"",""time"":4382.700000047684}]","[{""key_press"":32,""rt"":1785,""stimulus"":""https://ziweizhang0304.github.io/Stats_learning_trig/img/Stim/FN_014_g.png""}]","424","https://ziweizhang0304.github.io/Stats_learning_trig/img/Stim/FN_004_g.png","post_TD","15","1361","1785","fast","4","1","5f9b15889c51902ece84d3e7","","","","","",""
"","image-keyboard-response","43","174512","0.0-5.0-15.0-0.0","669.7000000476837","","","https://ziweizhang0304.github.io/Stats_learning_trig/img/Stim/FN_025_g.png","13","","","","","","","","","","","","","","","","","",""
"","animation","44","178933","0.0-5.0-15.0-1.0","","","","","","[{""stimulus"":""https://ziweizhang0304.github.io/Stats_learning_trig/img/Stim/FN_015_g.png"",""time"":342.60000002384186},{""stimulus"":""blank"",""time"":643.1000000238419},{""stimulus"":""https://ziweizhang0304.github.io/Stats_learning_trig/img/Stim/FN_008_g.png"",""time"":693.1999999284744},{""stimulus"":""blank"",""time"":993.8999999761581},{""stimulus"":""https://ziweizhang0304.github.io/Stats_learning_trig/img/Stim/FN_024_g.png"",""time"":1020.8999999761581},{""stimulus"":""blank"",""time"":1321.5},{""stimulus"":""https://ziweizhang0304.github.io/Stats_learning_trig/img/Stim/FN_003_g.png"",""time"":1360.7999999523163},{""stimulus"":""blank"",""time"":1661.1999999284744},{""stimulus"":""https://ziweizhang0304.github.io/Stats_learning_trig/img/Stim/FN_001_g.png"",""time"":1700.8999999761581},{""stimulus"":""blank"",""time"":2002.1000000238419},{""stimulus"":""https://ziweizhang0304.github.io/Stats_learning_trig/img/Stim/FN_025_g.png"",""time"":2041.8999999761581},{""stimulus"":""blank"",""time"":2342.399999976158},{""stimulus"":""https://ziweizhang0304.github.io/Stats_learning_trig/img/Stim/FN_009_g.png"",""time"":2381.399999976158},{""stimulus"":""blank"",""time"":2682.7999999523163},{""stimulus"":""https://ziweizhang0304.github.io/Stats_learning_trig/img/Stim/FN_019_g.png"",""time"":2721.100000023842},{""stimulus"":""blank"",""time"":3021.6999999284744},{""stimulus"":""https://ziweizhang0304.github.io/Stats_learning_trig/img/Stim/FN_020_g.png"",""time"":3071},{""stimulus"":""blank"",""time"":3372.100000023842},{""stimulus"":""https://ziweizhang0304.github.io/Stats_learning_trig/img/Stim/FN_013_g.png"",""time"":3401.399999976158},{""stimulus"":""blank"",""time"":3701.7999999523163},{""stimulus"":""https://ziweizhang0304.github.io/Stats_learning_trig/img/Stim/FN_011_g.png"",""time"":3742.399999976158},{""stimulus"":""blank"",""time"":4043.100000023842},{""stimulus"":""https://ziweizhang0304.github.io/Stats_learning_trig/img/Stim/FN_022_g.png"",""time"":4080.6999999284744},{""stimulus"":""blank"",""time"":4381.600000023842}]","[{""key_press"":32,""rt"":2404.1999999284744,""stimulus"":""https://ziweizhang0304.github.io/Stats_learning_trig/img/Stim/FN_009_g.png""}]","362.2999999523163","https://ziweizhang0304.github.io/Stats_learning_trig/img/Stim/FN_025_g.png","post_TD","16","2041.8999999761581","2404.1999999284744","slow","6","2","5f9b15889c51902ece84d3e7","","","","","",""
"","image-keyboard-response","45","179511","0.0-5.0-16.0-0.0","576.5","","","https://ziweizhang0304.github.io/Stats_learning_trig/img/Stim/FN_025_g.png","13","","","","","","","","","","","","","","","","","",""
"","animation","46","183933","0.0-5.0-16.0-1.0","","","","","","[{""stimulus"":""https://ziweizhang0304.github.io/Stats_learning_trig/img/Stim/FN_013_g.png"",""time"":341.89999997615814},{""stimulus"":""blank"",""time"":643},{""stimulus"":""https://ziweizhang0304.github.io/Stats_learning_trig/img/Stim/FN_011_g.png"",""time"":682},{""stimulus"":""blank"",""time"":982.8999999761581},{""stimulus"":""https://ziweizhang0304.github.io/Stats_learning_trig/img/Stim/FN_024_g.png"",""time"":1021.3999999761581},{""stimulus"":""blank"",""time"":1321.7000000476837},{""stimulus"":""https://ziweizhang0304.github.io/Stats_learning_trig/img/Stim/FN_001_g.png"",""time"":1361.1000000238419},{""stimulus"":""blank"",""time"":1661.8000000715256},{""stimulus"":""https://ziweizhang0304.github.io/Stats_learning_trig/img/Stim/FN_025_g.png"",""time"":1701},{""stimulus"":""blank"",""time"":2002.2000000476837},{""stimulus"":""https://ziweizhang0304.github.io/Stats_learning_trig/img/Stim/FN_009_g.png"",""time"":2040.7000000476837},{""stimulus"":""blank"",""time"":2341.2000000476837},{""stimulus"":""https://ziweizhang0304.github.io/Stats_learning_trig/img/Stim/FN_019_g.png"",""time"":2380.899999976158},{""stimulus"":""blank"",""time"":2682.2000000476837},{""stimulus"":""https://ziweizhang0304.github.io/Stats_learning_trig/img/Stim/FN_015_g.png"",""time"":2722.5},{""stimulus"":""blank"",""time"":3023.3000000715256},{""stimulus"":""https://ziweizhang0304.github.io/Stats_learning_trig/img/Stim/FN_020_g.png"",""time"":3061.7000000476837},{""stimulus"":""blank"",""time"":3362.100000023842},{""stimulus"":""https://ziweizhang0304.github.io/Stats_learning_trig/img/Stim/FN_003_g.png"",""time"":3401.600000023842},{""stimulus"":""blank"",""time"":3702.600000023842},{""stimulus"":""https://ziweizhang0304.github.io/Stats_learning_trig/img/Stim/FN_008_g.png"",""time"":3740.8000000715256},{""stimulus"":""blank"",""time"":4041.7000000476837},{""stimulus"":""https://ziweizhang0304.github.io/Stats_learning_trig/img/Stim/FN_022_g.png"",""time"":4080.8000000715256},{""stimulus"":""blank"",""time"":4382}]","[{""key_press"":32,""rt"":2304.7999999523163,""stimulus"":""https://ziweizhang0304.github.io/Stats_learning_trig/img/Stim/FN_009_g.png""}]","603.7999999523163","https://ziweizhang0304.github.io/Stats_learning_trig/img/Stim/FN_025_g.png","post_TD","17","1701","2304.7999999523163","slow","5","2","5f9b15889c51902ece84d3e7","","","","","",""
"","image-keyboard-response","47","186147","0.0-5.0-17.0-0.0","2212.5","","","https://ziweizhang0304.github.io/Stats_learning_trig/img/Stim/FN_009_g.png","13","","","","","","","","","","","","","","","","","",""
"","animation","48","190569","0.0-5.0-17.0-1.0","","","","","","[{""stimulus"":""https://ziweizhang0304.github.io/Stats_learning_trig/img/Stim/FN_015_g.png"",""time"":341.7000000476837},{""stimulus"":""blank"",""time"":643.1000000238419},{""stimulus"":""https://ziweizhang0304.github.io/Stats_learning_trig/img/Stim/FN_008_g.png"",""time"":680.9000000953674},{""stimulus"":""blank"",""time"":981.7000000476837},{""stimulus"":""https://ziweizhang0304.github.io/Stats_learning_trig/img/Stim/FN_024_g.png"",""time"":1020.6000000238419},{""stimulus"":""blank"",""time"":1320.9000000953674},{""stimulus"":""https://ziweizhang0304.github.io/Stats_learning_trig/img/Stim/FN_003_g.png"",""time"":1360.8000000715256},{""stimulus"":""blank"",""time"":1661.6000000238419},{""stimulus"":""https://ziweizhang0304.github.io/Stats_learning_trig/img/Stim/FN_001_g.png"",""time"":1701.1000000238419},{""stimulus"":""blank"",""time"":2002.4000000953674},{""stimulus"":""https://ziweizhang0304.github.io/Stats_learning_trig/img/Stim/FN_025_g.png"",""time"":2041.5},{""stimulus"":""blank"",""time"":2342.4000000953674},{""stimulus"":""https://ziweizhang0304.github.io/Stats_learning_trig/img/Stim/FN_009_g.png"",""time"":2381.100000023842},{""stimulus"":""blank"",""time"":2694.600000023842},{""stimulus"":""https://ziweizhang0304.github.io/Stats_learning_trig/img/Stim/FN_019_g.png"",""time"":2721.5},{""stimulus"":""blank"",""time"":3022},{""stimulus"":""https://ziweizhang0304.github.io/Stats_learning_trig/img/Stim/FN_020_g.png"",""time"":3060.8000000715256},{""stimulus"":""blank"",""time"":3361},{""stimulus"":""https://ziweizhang0304.github.io/Stats_learning_trig/img/Stim/FN_013_g.png"",""time"":3401.7000000476837},{""stimulus"":""blank"",""time"":3702.8000000715256},{""stimulus"":""https://ziweizhang0304.github.io/Stats_learning_trig/img/Stim/FN_011_g.png"",""time"":3741.600000023842},{""stimulus"":""blank"",""time"":4042.5},{""stimulus"":""https://ziweizhang0304.github.io/Stats_learning_trig/img/Stim/FN_022_g.png"",""time"":4081.7000000476837},{""stimulus"":""blank"",""time"":4382.700000047684}]","[{""key_press"":32,""rt"":2834.899999976158,""stimulus"":""https://ziweizhang0304.github.io/Stats_learning_trig/img/Stim/FN_019_g.png""}]","453.7999999523163","https://ziweizhang0304.github.io/Stats_learning_trig/img/Stim/FN_009_g.png","post_TD","18","2381.100000023842","2834.899999976158","slow","7","3","5f9b15889c51902ece84d3e7","","","","","",""
"","image-keyboard-response","49","191105","0.0-5.0-18.0-0.0","534.3000000715256","","","https://ziweizhang0304.github.io/Stats_learning_trig/img/Stim/FN_001_g.png","13","","","","","","","","","","","","","","","","","",""
"","animation","50","195527","0.0-5.0-18.0-1.0","","","","","","[{""stimulus"":""https://ziweizhang0304.github.io/Stats_learning_trig/img/Stim/FN_024_g.png"",""time"":341.59999990463257},{""stimulus"":""blank"",""time"":642.2999999523163},{""stimulus"":""https://ziweizhang0304.github.io/Stats_learning_trig/img/Stim/FN_011_g.png"",""time"":680.8999999761581},{""stimulus"":""blank"",""time"":981.1999999284744},{""stimulus"":""https://ziweizhang0304.github.io/Stats_learning_trig/img/Stim/FN_019_g.png"",""time"":1021},{""stimulus"":""blank"",""time"":1321.7999999523163},{""stimulus"":""https://ziweizhang0304.github.io/Stats_learning_trig/img/Stim/FN_022_g.png"",""time"":1361.2999999523163},{""stimulus"":""blank"",""time"":1661.5},{""stimulus"":""https://ziweizhang0304.github.io/Stats_learning_trig/img/Stim/FN_008_g.png"",""time"":1701.2999999523163},{""stimulus"":""blank"",""time"":2002},{""stimulus"":""https://ziweizhang0304.github.io/Stats_learning_trig/img/Stim/FN_001_g.png"",""time"":2041.0999999046326},{""stimulus"":""blank"",""time"":2342.6999999284744},{""stimulus"":""https://ziweizhang0304.github.io/Stats_learning_trig/img/Stim/FN_025_g.png"",""time"":2381.5999999046326},{""stimulus"":""blank"",""time"":2682.6999999284744},{""stimulus"":""https://ziweizhang0304.github.io/Stats_learning_trig/img/Stim/FN_009_g.png"",""time"":2721.899999976158},{""stimulus"":""blank"",""time"":3022.399999976158},{""stimulus"":""https://ziweizhang0304.github.io/Stats_learning_trig/img/Stim/FN_015_g.png"",""time"":3061},{""stimulus"":""blank"",""time"":3361.7999999523163},{""stimulus"":""https://ziweizhang0304.github.io/Stats_learning_trig/img/Stim/FN_020_g.png"",""time"":3400.899999976158},{""stimulus"":""blank"",""time"":3701.2999999523163},{""stimulus"":""https://ziweizhang0304.github.io/Stats_learning_trig/img/Stim/FN_003_g.png"",""time"":3741.1999999284744},{""stimulus"":""blank"",""time"":4041.5},{""stimulus"":""https://ziweizhang0304.github.io/Stats_learning_trig/img/Stim/FN_013_g.png"",""time"":4080.7999999523163},{""stimulus"":""blank"",""time"":4381.599999904633}]","[{""key_press"":32,""rt"":2479.2000000476837,""stimulus"":""https://ziweizhang0304.github.io/Stats_learning_trig/img/Stim/FN_025_g.png""}]","438.10000014305115","https://ziweizhang0304.github.io/Stats_learning_trig/img/Stim/FN_001_g.png","post_TD","19","2041.0999999046326","2479.2000000476837","slow","6","1","5f9b15889c51902ece84d3e7","","","","","",""
"","image-keyboard-response","51","196992","0.0-5.0-19.0-0.0","1463.1000000238419","","","https://ziweizhang0304.github.io/Stats_learning_trig/img/Stim/FN_004_g.png","13","","","","","","","","","","","","","","","","","",""
"","animation","52","201413","0.0-5.0-19.0-1.0","","","","","","[{""stimulus"":""https://ziweizhang0304.github.io/Stats_learning_trig/img/Stim/FN_011_g.png"",""time"":341.2999999523163},{""stimulus"":""blank"",""time"":641.6999999284744},{""stimulus"":""https://ziweizhang0304.github.io/Stats_learning_trig/img/Stim/FN_015_g.png"",""time"":681.2999999523163},{""stimulus"":""blank"",""time"":981.6999999284744},{""stimulus"":""https://ziweizhang0304.github.io/Stats_learning_trig/img/Stim/FN_022_g.png"",""time"":1021.5},{""stimulus"":""blank"",""time"":1321.8999999761581},{""stimulus"":""https://ziweizhang0304.github.io/Stats_learning_trig/img/Stim/FN_008_g.png"",""time"":1360.6999999284744},{""stimulus"":""blank"",""time"":1661.2999999523163},{""stimulus"":""https://ziweizhang0304.github.io/Stats_learning_trig/img/Stim/FN_024_g.png"",""time"":1701.1999999284744},{""stimulus"":""blank"",""time"":2001.7999999523163},{""stimulus"":""https://ziweizhang0304.github.io/Stats_learning_trig/img/Stim/FN_004_g.png"",""time"":2041.2999999523163},{""stimulus"":""blank"",""time"":2343.100000023842},{""stimulus"":""https://ziweizhang0304.github.io/Stats_learning_trig/img/Stim/FN_014_g.png"",""time"":2380.7999999523163},{""stimulus"":""blank"",""time"":2681.2999999523163},{""stimulus"":""https://ziweizhang0304.github.io/Stats_learning_trig/img/Stim/FN_016_g.png"",""time"":2721.100000023842},{""stimulus"":""blank"",""time"":3021.7999999523163},{""stimulus"":""https://ziweizhang0304.github.io/Stats_learning_trig/img/Stim/FN_019_g.png"",""time"":3061.1999999284744},{""stimulus"":""blank"",""time"":3362.399999976158},{""stimulus"":""https://ziweizhang0304.github.io/Stats_learning_trig/img/Stim/FN_020_g.png"",""time"":3401},{""stimulus"":""blank"",""time"":3701.899999976158},{""stimulus"":""https://ziweizhang0304.github.io/Stats_learning_trig/img/Stim/FN_003_g.png"",""time"":3740.899999976158},{""stimulus"":""blank"",""time"":4041.6999999284744},{""stimulus"":""https://ziweizhang0304.github.io/Stats_learning_trig/img/Stim/FN_013_g.png"",""time"":4080.7999999523163},{""stimulus"":""blank"",""time"":4381.899999976158}]","[{""key_press"":32,""rt"":2455.6999999284744,""stimulus"":""https://ziweizhang0304.github.io/Stats_learning_trig/img/Stim/FN_014_g.png""}]","414.39999997615814","https://ziweizhang0304.github.io/Stats_learning_trig/img/Stim/FN_004_g.png","post_TD","20","2041.2999999523163","2455.6999999284744","fast","6","1","5f9b15889c51902ece84d3e7","","","","","",""
"","image-keyboard-response","53","202040","0.0-5.0-20.0-0.0","625.3999999761581","","","https://ziweizhang0304.github.io/Stats_learning_trig/img/Stim/FN_014_g.png","13","","","","","","","","","","","","","","","","","",""
"","animation","54","206461","0.0-5.0-20.0-1.0","","","","","","[{""stimulus"":""https://ziweizhang0304.github.io/Stats_learning_trig/img/Stim/FN_020_g.png"",""time"":342.40000009536743},{""stimulus"":""blank"",""time"":643},{""stimulus"":""https://ziweizhang0304.github.io/Stats_learning_trig/img/Stim/FN_011_g.png"",""time"":681},{""stimulus"":""blank"",""time"":981.8000000715256},{""stimulus"":""https://ziweizhang0304.github.io/Stats_learning_trig/img/Stim/FN_019_g.png"",""time"":1021.8000000715256},{""stimulus"":""blank"",""time"":1322.2000000476837},{""stimulus"":""https://ziweizhang0304.github.io/Stats_learning_trig/img/Stim/FN_003_g.png"",""time"":1362.1000000238419},{""stimulus"":""blank"",""time"":1662.3000000715256},{""stimulus"":""https://ziweizhang0304.github.io/Stats_learning_trig/img/Stim/FN_004_g.png"",""time"":1702.2000000476837},{""stimulus"":""blank"",""time"":2003},{""stimulus"":""https://ziweizhang0304.github.io/Stats_learning_trig/img/Stim/FN_014_g.png"",""time"":2042.3000000715256},{""stimulus"":""blank"",""time"":2342.7000000476837},{""stimulus"":""https://ziweizhang0304.github.io/Stats_learning_trig/img/Stim/FN_016_g.png"",""time"":2381.8000000715256},{""stimulus"":""blank"",""time"":2682.2000000476837},{""stimulus"":""https://ziweizhang0304.github.io/Stats_learning_trig/img/Stim/FN_015_g.png"",""time"":2721},{""stimulus"":""blank"",""time"":3022.3000000715256},{""stimulus"":""https://ziweizhang0304.github.io/Stats_learning_trig/img/Stim/FN_008_g.png"",""time"":3061.8000000715256},{""stimulus"":""blank"",""time"":3362.2000000476837},{""stimulus"":""https://ziweizhang0304.github.io/Stats_learning_trig/img/Stim/FN_013_g.png"",""time"":3400.8000000715256},{""stimulus"":""blank"",""time"":3701.9000000953674},{""stimulus"":""https://ziweizhang0304.github.io/Stats_learning_trig/img/Stim/FN_022_g.png"",""time"":3740.7000000476837},{""stimulus"":""blank"",""time"":4041.3000000715256},{""stimulus"":""https://ziweizhang0304.github.io/Stats_learning_trig/img/Stim/FN_024_g.png"",""time"":4081.5},{""stimulus"":""blank"",""time"":4382.200000047684}]","[{""key_press"":32,""rt"":2089.5,""stimulus"":""https://ziweizhang0304.github.io/Stats_learning_trig/img/Stim/FN_014_g.png""}]","47.199999928474426","https://ziweizhang0304.github.io/Stats_learning_trig/img/Stim/FN_014_g.png","post_TD","21","2042.3000000715256","2089.5","fast","6","2","5f9b15889c51902ece84d3e7","","","","","",""
"","image-keyboard-response","55","206890","0.0-5.0-21.0-0.0","426.7000000476837","","","https://ziweizhang0304.github.io/Stats_learning_trig/img/Stim/FN_014_g.png","13","","","","","","","","","","","","","","","","","",""
"","animation","56","211310","0.0-5.0-21.0-1.0","","","","","","[{""stimulus"":""https://ziweizhang0304.github.io/Stats_learning_trig/img/Stim/FN_003_g.png"",""time"":342.39999997615814},{""stimulus"":""blank"",""time"":642.8999999761581},{""stimulus"":""https://ziweizhang0304.github.io/Stats_learning_trig/img/Stim/FN_008_g.png"",""time"":682.2999999523163},{""stimulus"":""blank"",""time"":983.1999999284744},{""stimulus"":""https://ziweizhang0304.github.io/Stats_learning_trig/img/Stim/FN_011_g.png"",""time"":1021.1999999284744},{""stimulus"":""blank"",""time"":1321.8999999761581},{""stimulus"":""https://ziweizhang0304.github.io/Stats_learning_trig/img/Stim/FN_004_g.png"",""time"":1361.6999999284744},{""stimulus"":""blank"",""time"":1662.6999999284744},{""stimulus"":""https://ziweizhang0304.github.io/Stats_learning_trig/img/Stim/FN_014_g.png"",""time"":1701.6999999284744},{""stimulus"":""blank"",""time"":2002.7999999523163},{""stimulus"":""https://ziweizhang0304.github.io/Stats_learning_trig/img/Stim/FN_016_g.png"",""time"":2041.3999999761581},{""stimulus"":""blank"",""time"":2342.7999999523163},{""stimulus"":""https://ziweizhang0304.github.io/Stats_learning_trig/img/Stim/FN_019_g.png"",""time"":2380.7999999523163},{""stimulus"":""blank"",""time"":2682.2999999523163},{""stimulus"":""https://ziweizhang0304.github.io/Stats_learning_trig/img/Stim/FN_015_g.png"",""time"":2721},{""stimulus"":""blank"",""time"":3022},{""stimulus"":""https://ziweizhang0304.github.io/Stats_learning_trig/img/Stim/FN_020_g.png"",""time"":3061.399999976158},{""stimulus"":""blank"",""time"":3362.399999976158},{""stimulus"":""https://ziweizhang0304.github.io/Stats_learning_trig/img/Stim/FN_013_g.png"",""time"":3401},{""stimulus"":""blank"",""time"":3702.5},{""stimulus"":""https://ziweizhang0304.github.io/Stats_learning_trig/img/Stim/FN_022_g.png"",""time"":3740.899999976158},{""stimulus"":""blank"",""time"":4041.6999999284744},{""stimulus"":""https://ziweizhang0304.github.io/Stats_learning_trig/img/Stim/FN_024_g.png"",""time"":4081.2999999523163},{""stimulus"":""blank"",""time"":4383.199999928474}]","[{""key_press"":32,""rt"":2093.7999999523163,""stimulus"":""https://ziweizhang0304.github.io/Stats_learning_trig/img/Stim/FN_016_g.png""}]","392.10000002384186","https://ziweizhang0304.github.io/Stats_learning_trig/img/Stim/FN_014_g.png","post_TD","22","1701.6999999284744","2093.7999999523163","fast","5","2","5f9b15889c51902ece84d3e7","","","","","",""
"","image-keyboard-response","57","211788","0.0-5.0-22.0-0.0","476.09999990463257","","","https://ziweizhang0304.github.io/Stats_learning_trig/img/Stim/FN_004_g.png","13","","","","","","","","","","","","","","","","","",""
"","animation","58","216209","0.0-5.0-22.0-1.0","","","","","","[{""stimulus"":""https://ziweizhang0304.github.io/Stats_learning_trig/img/Stim/FN_013_g.png"",""time"":341.5},{""stimulus"":""blank"",""time"":642.2000000476837},{""stimulus"":""https://ziweizhang0304.github.io/Stats_learning_trig/img/Stim/FN_003_g.png"",""time"":681.4000000953674},{""stimulus"":""blank"",""time"":981.8000000715256},{""stimulus"":""https://ziweizhang0304.github.io/Stats_learning_trig/img/Stim/FN_022_g.png"",""time"":1020.6000000238419},{""stimulus"":""blank"",""time"":1321.2000000476837},{""stimulus"":""https://ziweizhang0304.github.io/Stats_learning_trig/img/Stim/FN_020_g.png"",""time"":1361.3000000715256},{""stimulus"":""blank"",""time"":1662.3000000715256},{""stimulus"":""https://ziweizhang0304.github.io/Stats_learning_trig/img/Stim/FN_019_g.png"",""time"":1701.3000000715256},{""stimulus"":""blank"",""time"":2002.3000000715256},{""stimulus"":""https://ziweizhang0304.github.io/Stats_learning_trig/img/Stim/FN_008_g.png"",""time"":2041.4000000953674},{""stimulus"":""blank"",""time"":2342.600000023842},{""stimulus"":""https://ziweizhang0304.github.io/Stats_learning_trig/img/Stim/FN_004_g.png"",""time"":2381},{""stimulus"":""blank"",""time"":2681.3000000715256},{""stimulus"":""https://ziweizhang0304.github.io/Stats_learning_trig/img/Stim/FN_014_g.png"",""time"":2720.9000000953674},{""stimulus"":""blank"",""time"":3021.9000000953674},{""stimulus"":""https://ziweizhang0304.github.io/Stats_learning_trig/img/Stim/FN_016_g.png"",""time"":3061.600000023842},{""stimulus"":""blank"",""time"":3362.600000023842},{""stimulus"":""https://ziweizhang0304.github.io/Stats_learning_trig/img/Stim/FN_015_g.png"",""time"":3401.2000000476837},{""stimulus"":""blank"",""time"":3701.9000000953674},{""stimulus"":""https://ziweizhang0304.github.io/Stats_learning_trig/img/Stim/FN_011_g.png"",""time"":3740.8000000715256},{""stimulus"":""blank"",""time"":4041.8000000715256},{""stimulus"":""https://ziweizhang0304.github.io/Stats_learning_trig/img/Stim/FN_024_g.png"",""time"":4081.600000023842},{""stimulus"":""blank"",""time"":4382.400000095367}]","[{""key_press"":32,""rt"":2763.899999976158,""stimulus"":""https://ziweizhang0304.github.io/Stats_learning_trig/img/Stim/FN_014_g.png""}]","382.89999997615814","https://ziweizhang0304.github.io/Stats_learning_trig/img/Stim/FN_004_g.png","post_TD","23","2381","2763.899999976158","fast","7","1","5f9b15889c51902ece84d3e7","","","","","",""
"","image-keyboard-response","59","216658","0.0-5.0-23.0-0.0","447.60000002384186","","","https://ziweizhang0304.github.io/Stats_learning_trig/img/Stim/FN_001_g.png","13","","","","","","","","","","","","","","","","","",""
"","animation","60","221082","0.0-5.0-23.0-1.0","","","","","","[{""stimulus"":""https://ziweizhang0304.github.io/Stats_learning_trig/img/Stim/FN_015_g.png"",""time"":342.89999997615814},{""stimulus"":""blank"",""time"":643.3999999761581},{""stimulus"":""https://ziweizhang0304.github.io/Stats_learning_trig/img/Stim/FN_008_g.png"",""time"":680.6000000238419},{""stimulus"":""blank"",""time"":982},{""stimulus"":""https://ziweizhang0304.github.io/Stats_learning_trig/img/Stim/FN_024_g.png"",""time"":1021.1000000238419},{""stimulus"":""blank"",""time"":1322.1000000238419},{""stimulus"":""https://ziweizhang0304.github.io/Stats_learning_trig/img/Stim/FN_003_g.png"",""time"":1360.8999999761581},{""stimulus"":""blank"",""time"":1662.8999999761581},{""stimulus"":""https://ziweizhang0304.github.io/Stats_learning_trig/img/Stim/FN_001_g.png"",""time"":1701.3999999761581},{""stimulus"":""blank"",""time"":2002},{""stimulus"":""https://ziweizhang0304.github.io/Stats_learning_trig/img/Stim/FN_025_g.png"",""time"":2040.7000000476837},{""stimulus"":""blank"",""time"":2342.600000023842},{""stimulus"":""https://ziweizhang0304.github.io/Stats_learning_trig/img/Stim/FN_009_g.png"",""time"":2381.100000023842},{""stimulus"":""blank"",""time"":2681.600000023842},{""stimulus"":""https://ziweizhang0304.github.io/Stats_learning_trig/img/Stim/FN_019_g.png"",""time"":2720.7000000476837},{""stimulus"":""blank"",""time"":3022.8000000715256},{""stimulus"":""https://ziweizhang0304.github.io/Stats_learning_trig/img/Stim/FN_020_g.png"",""time"":3061.8000000715256},{""stimulus"":""blank"",""time"":3362.899999976158},{""stimulus"":""https://ziweizhang0304.github.io/Stats_learning_trig/img/Stim/FN_013_g.png"",""time"":3402.2000000476837},{""stimulus"":""blank"",""time"":3703.2000000476837},{""stimulus"":""https://ziweizhang0304.github.io/Stats_learning_trig/img/Stim/FN_011_g.png"",""time"":3740.899999976158},{""stimulus"":""blank"",""time"":4041.399999976158},{""stimulus"":""https://ziweizhang0304.github.io/Stats_learning_trig/img/Stim/FN_022_g.png"",""time"":4080.8000000715256},{""stimulus"":""blank"",""time"":4382.700000047684}]","[{""key_press"":32,""rt"":2001.3999999761581,""stimulus"":""https://ziweizhang0304.github.io/Stats_learning_trig/img/Stim/FN_001_g.png""}]","300","https://ziweizhang0304.github.io/Stats_learning_trig/img/Stim/FN_001_g.png","post_TD","24","1701.3999999761581","2001.3999999761581","slow","5","1","5f9b15889c51902ece84d3e7","1360c","","","","",""
"","survey-text","61","226167","0.0-6.0","5078.199999928474","","","","","","","","","","","","","","","","","","{""Q0"":""No""}","","","",""
"","survey-text","62","232921","0.0-7.0","6752.200000047684","","","","","","","","","","","","","","","","","","{""[object Object]"":""No""}","","","",""
"","instructions","63","242467","0.0-8.0","9544.700000047684","","[{""page_index"":0,""viewing_time"":9544.5}]","","","","","","","","","","","","","","","","","","","",""
"","free-sort","64","253133","0.0-9.0","10665.299999952316","","","","","","","","","post_drag","","","","fast","","","","","","[{""src"":""https://ziweizhang0304.github.io/Stats_learning_trig/img/Stim/FN_004_g.png"",""x"":475,""y"":0},{""src"":""https://ziweizhang0304.github.io/Stats_learning_trig/img/Stim/FN_014_g.png"",""x"":-225,""y"":50},{""src"":""https://ziweizhang0304.github.io/Stats_learning_trig/img/Stim/FN_016_g.png"",""x"":475,""y"":50}]","[{""src"":""https://ziweizhang0304.github.io/Stats_learning_trig/img/Stim/FN_004_g.png"",""x"":16,""y"":6},{""src"":""https://ziweizhang0304.github.io/Stats_learning_trig/img/Stim/FN_016_g.png"",""x"":111,""y"":11},{""src"":""https://ziweizhang0304.github.io/Stats_learning_trig/img/Stim/FN_014_g.png"",""x"":248,""y"":47}]","[{""src"":""https://ziweizhang0304.github.io/Stats_learning_trig/img/Stim/FN_004_g.png"",""x"":16,""y"":6},{""src"":""https://ziweizhang0304.github.io/Stats_learning_trig/img/Stim/FN_014_g.png"",""x"":248,""y"":47},{""src"":""https://ziweizhang0304.github.io/Stats_learning_trig/img/Stim/FN_016_g.png"",""x"":111,""y"":11}]",""
"","free-sort","65","265823","0.0-10.0","12688.600000023842","","","","","","","","","post_drag","","","","slow","","","","","","[{""src"":""https://ziweizhang0304.github.io/Stats_learning_trig/img/Stim/FN_025_g.png"",""x"":475,""y"":0},{""src"":""https://ziweizhang0304.github.io/Stats_learning_trig/img/Stim/FN_009_g.png"",""x"":-225,""y"":50},{""src"":""https://ziweizhang0304.github.io/Stats_learning_trig/img/Stim/FN_001_g.png"",""x"":475,""y"":50}]","[{""src"":""https://ziweizhang0304.github.io/Stats_learning_trig/img/Stim/FN_001_g.png"",""x"":133,""y"":27},{""src"":""https://ziweizhang0304.github.io/Stats_learning_trig/img/Stim/FN_025_g.png"",""x"":209,""y"":23},{""src"":""https://ziweizhang0304.github.io/Stats_learning_trig/img/Stim/FN_009_g.png"",""x"":-225,""y"":50},{""src"":""https://ziweizhang0304.github.io/Stats_learning_trig/img/Stim/FN_001_g.png"",""x"":18,""y"":28},{""src"":""https://ziweizhang0304.github.io/Stats_learning_trig/img/Stim/FN_009_g.png"",""x"":123,""y"":41}]","[{""src"":""https://ziweizhang0304.github.io/Stats_learning_trig/img/Stim/FN_025_g.png"",""x"":209,""y"":23},{""src"":""https://ziweizhang0304.github.io/Stats_learning_trig/img/Stim/FN_009_g.png"",""x"":123,""y"":41},{""src"":""https://ziweizhang0304.github.io/Stats_learning_trig/img/Stim/FN_001_g.png"",""x"":18,""y"":28}]",""
"","survey-multi-choice","66","277504","0.0-11.0","11678.899999976158","","","","","","","","","","","","","","","","5f9b15889c51902ece84d3e7","","{""awareness"":""No"",""attention_check"":""Press SPACEBAR to a target""}","","","","[0,1]"
