"success","trial_type","trial_index","time_elapsed","internal_node_id","rt","url","view_history","stimulus","key_press","animation_sequence","response","TD_rt","TD_target","test_part","TD_trial_number","onset","offset","attention_state","TD_target_position","TD_within_triplet_counter","participant","yoke_participant","responses","init_locations","moves","final_locations","question_order"
"true","fullscreen","0","13213","0.0-0.0","","","","","","","","","","","","","","","","","","","","","","",""
"","external-html","1","17296","0.0-1.0","3859","https://ziweizhang0304.github.io/Stats_learning_trig/content/consent.html","","","","","","","","","","","","","","","","","","","","",""
"","instructions","2","49263","0.0-2.0","31964","","[{""page_index"":0,""viewing_time"":3668},{""page_index"":1,""viewing_time"":13041},{""page_index"":2,""viewing_time"":11679},{""page_index"":3,""viewing_time"":3576}]","","","","","","","","","","","","","","","","","","","",""
"","image-keyboard-response","3","58175","0.0-3.0-0.0-0.0","8910","","","https://ziweizhang0304.github.io/Stats_learning_trig/img/Stim/FN_017_g.png","13","","","","","","","","","","","","","","","","","",""
"","animation","4","62673","0.0-3.0-0.0-1.0","","","","","","[{""stimulus"":""https://ziweizhang0304.github.io/Stats_learning_trig/img/Stim/FN_002_g.png"",""time"":347},{""stimulus"":""blank"",""time"":651},{""stimulus"":""https://ziweizhang0304.github.io/Stats_learning_trig/img/Stim/FN_010_g.png"",""time"":699},{""stimulus"":""blank"",""time"":1010},{""stimulus"":""https://ziweizhang0304.github.io/Stats_learning_trig/img/Stim/FN_011_g.png"",""time"":1043},{""stimulus"":""blank"",""time"":1354},{""stimulus"":""https://ziweizhang0304.github.io/Stats_learning_trig/img/Stim/FN_008_g.png"",""time"":1386},{""stimulus"":""blank"",""time"":1693},{""stimulus"":""https://ziweizhang0304.github.io/Stats_learning_trig/img/Stim/FN_015_g.png"",""time"":1728},{""stimulus"":""blank"",""time"":2041},{""stimulus"":""https://ziweizhang0304.github.io/Stats_learning_trig/img/Stim/FN_021_g.png"",""time"":2075},{""stimulus"":""blank"",""time"":2381},{""stimulus"":""https://ziweizhang0304.github.io/Stats_learning_trig/img/Stim/FN_017_g.png"",""time"":2415},{""stimulus"":""blank"",""time"":2724},{""stimulus"":""https://ziweizhang0304.github.io/Stats_learning_trig/img/Stim/FN_019_g.png"",""time"":2769},{""stimulus"":""blank"",""time"":3078},{""stimulus"":""https://ziweizhang0304.github.io/Stats_learning_trig/img/Stim/FN_024_g.png"",""time"":3109},{""stimulus"":""blank"",""time"":3420},{""stimulus"":""https://ziweizhang0304.github.io/Stats_learning_trig/img/Stim/FN_023_g.png"",""time"":3458},{""stimulus"":""blank"",""time"":3764},{""stimulus"":""https://ziweizhang0304.github.io/Stats_learning_trig/img/Stim/FN_026_g.png"",""time"":3811},{""stimulus"":""blank"",""time"":4120},{""stimulus"":""https://ziweizhang0304.github.io/Stats_learning_trig/img/Stim/FN_018_g.png"",""time"":4154},{""stimulus"":""blank"",""time"":4461}]","[{""key_press"":32,""rt"":2848,""stimulus"":""https://ziweizhang0304.github.io/Stats_learning_trig/img/Stim/FN_019_g.png""}]","433","https://ziweizhang0304.github.io/Stats_learning_trig/img/Stim/FN_017_g.png","post_prac","","","","","","","","","","","","",""
"","html-keyboard-response","5","67543","0.0-3.0-0.0-2.0","4864","","","<p>Your reaction time for this trial was 433 ms.</p><p>Remember that you should only press the SPACEBAR when you see the shape presented at the beginning of the trial. </b> </p><p>Press enter to move on.</p>","13","","","","","","","","","","","","","","","","","",""
"","image-keyboard-response","6","72213","0.0-3.0-1.0-0.0","4669","","","https://ziweizhang0304.github.io/Stats_learning_trig/img/Stim/FN_004_g.png","13","","","","","","","","","","","","","","","","","",""
"","animation","7","76736","0.0-3.0-1.0-1.0","","","","","","[{""stimulus"":""https://ziweizhang0304.github.io/Stats_learning_trig/img/Stim/FN_018_g.png"",""time"":351},{""stimulus"":""blank"",""time"":655},{""stimulus"":""https://ziweizhang0304.github.io/Stats_learning_trig/img/Stim/FN_002_g.png"",""time"":704},{""stimulus"":""blank"",""time"":1006},{""stimulus"":""https://ziweizhang0304.github.io/Stats_learning_trig/img/Stim/FN_008_g.png"",""time"":1060},{""stimulus"":""blank"",""time"":1373},{""stimulus"":""https://ziweizhang0304.github.io/Stats_learning_trig/img/Stim/FN_019_g.png"",""time"":1404},{""stimulus"":""blank"",""time"":1720},{""stimulus"":""https://ziweizhang0304.github.io/Stats_learning_trig/img/Stim/FN_024_g.png"",""time"":1753},{""stimulus"":""blank"",""time"":2069},{""stimulus"":""https://ziweizhang0304.github.io/Stats_learning_trig/img/Stim/FN_010_g.png"",""time"":2100},{""stimulus"":""blank"",""time"":2410},{""stimulus"":""https://ziweizhang0304.github.io/Stats_learning_trig/img/Stim/FN_004_g.png"",""time"":2450},{""stimulus"":""blank"",""time"":2760},{""stimulus"":""https://ziweizhang0304.github.io/Stats_learning_trig/img/Stim/FN_005_g.png"",""time"":2795},{""stimulus"":""blank"",""time"":3105},{""stimulus"":""https://ziweizhang0304.github.io/Stats_learning_trig/img/Stim/FN_016_g.png"",""time"":3135},{""stimulus"":""blank"",""time"":3450},{""stimulus"":""https://ziweizhang0304.github.io/Stats_learning_trig/img/Stim/FN_015_g.png"",""time"":3484},{""stimulus"":""blank"",""time"":3790},{""stimulus"":""https://ziweizhang0304.github.io/Stats_learning_trig/img/Stim/FN_023_g.png"",""time"":3838},{""stimulus"":""blank"",""time"":4145},{""stimulus"":""https://ziweizhang0304.github.io/Stats_learning_trig/img/Stim/FN_021_g.png"",""time"":4177},{""stimulus"":""blank"",""time"":4490}]","[{""key_press"":32,""rt"":2878,""stimulus"":""https://ziweizhang0304.github.io/Stats_learning_trig/img/Stim/FN_005_g.png""}]","428","https://ziweizhang0304.github.io/Stats_learning_trig/img/Stim/FN_004_g.png","post_prac","","","","","","","","","","","","",""
"","html-keyboard-response","8","80308","0.0-3.0-1.0-2.0","3567","","","<p>Your reaction time for this trial was 428 ms.</p><p>Remember that you should only press the SPACEBAR when you see the shape presented at the beginning of the trial. </b> </p><p>Press enter to move on.</p>","13","","","","","","","","","","","","","","","","","",""
"","image-keyboard-response","9","82665","0.0-3.0-2.0-0.0","2356","","","https://ziweizhang0304.github.io/Stats_learning_trig/img/Stim/FN_005_g.png","13","","","","","","","","","","","","","","","","","",""
"","animation","10","87177","0.0-3.0-2.0-1.0","","","","","","[{""stimulus"":""https://ziweizhang0304.github.io/Stats_learning_trig/img/Stim/FN_021_g.png"",""time"":341},{""stimulus"":""blank"",""time"":647},{""stimulus"":""https://ziweizhang0304.github.io/Stats_learning_trig/img/Stim/FN_024_g.png"",""time"":692},{""stimulus"":""blank"",""time"":1007},{""stimulus"":""https://ziweizhang0304.github.io/Stats_learning_trig/img/Stim/FN_019_g.png"",""time"":1039},{""stimulus"":""blank"",""time"":1349},{""stimulus"":""https://ziweizhang0304.github.io/Stats_learning_trig/img/Stim/FN_010_g.png"",""time"":1381},{""stimulus"":""blank"",""time"":1682},{""stimulus"":""https://ziweizhang0304.github.io/Stats_learning_trig/img/Stim/FN_018_g.png"",""time"":1728},{""stimulus"":""blank"",""time"":2039},{""stimulus"":""https://ziweizhang0304.github.io/Stats_learning_trig/img/Stim/FN_004_g.png"",""time"":2072},{""stimulus"":""blank"",""time"":2380},{""stimulus"":""https://ziweizhang0304.github.io/Stats_learning_trig/img/Stim/FN_005_g.png"",""time"":2413},{""stimulus"":""blank"",""time"":2719},{""stimulus"":""https://ziweizhang0304.github.io/Stats_learning_trig/img/Stim/FN_016_g.png"",""time"":2766},{""stimulus"":""blank"",""time"":3077},{""stimulus"":""https://ziweizhang0304.github.io/Stats_learning_trig/img/Stim/FN_015_g.png"",""time"":3112},{""stimulus"":""blank"",""time"":3417},{""stimulus"":""https://ziweizhang0304.github.io/Stats_learning_trig/img/Stim/FN_002_g.png"",""time"":3463},{""stimulus"":""blank"",""time"":3771},{""stimulus"":""https://ziweizhang0304.github.io/Stats_learning_trig/img/Stim/FN_023_g.png"",""time"":3818},{""stimulus"":""blank"",""time"":4126},{""stimulus"":""https://ziweizhang0304.github.io/Stats_learning_trig/img/Stim/FN_008_g.png"",""time"":4170},{""stimulus"":""blank"",""time"":4480}]","[{""key_press"":32,""rt"":2822,""stimulus"":""https://ziweizhang0304.github.io/Stats_learning_trig/img/Stim/FN_016_g.png""}]","409","https://ziweizhang0304.github.io/Stats_learning_trig/img/Stim/FN_005_g.png","post_prac","","","","","","","","","","","","",""
"","html-keyboard-response","11","90836","0.0-3.0-2.0-2.0","3657","","","<p>Your reaction time for this trial was 409 ms.</p><p>Remember that you should only press the SPACEBAR when you see the shape presented at the beginning of the trial. </b> </p><p>Press enter to move on.</p>","13","","","","","","","","","","","","","","","","","",""
"","instructions","12","94024","0.0-4.0","3188","","[{""page_index"":0,""viewing_time"":3187}]","","","","","","","","","","","","","","","","","","","",""
"","image-keyboard-response","13","99917","0.0-5.0-0.0-0.0","5891","","","https://ziweizhang0304.github.io/Stats_learning_trig/img/Stim/FN_016_g.png","13","","","","","","","","","","","","","","","","","",""
"","animation","14","104423","0.0-5.0-0.0-1.0","","","","","","[{""stimulus"":""https://ziweizhang0304.github.io/Stats_learning_trig/img/Stim/FN_018_g.png"",""time"":350},{""stimulus"":""blank"",""time"":663},{""stimulus"":""https://ziweizhang0304.github.io/Stats_learning_trig/img/Stim/FN_002_g.png"",""time"":696},{""stimulus"":""blank"",""time"":1009},{""stimulus"":""https://ziweizhang0304.github.io/Stats_learning_trig/img/Stim/FN_008_g.png"",""time"":1040},{""stimulus"":""blank"",""time"":1356},{""stimulus"":""https://ziweizhang0304.github.io/Stats_learning_trig/img/Stim/FN_019_g.png"",""time"":1385},{""stimulus"":""blank"",""time"":1692},{""stimulus"":""https://ziweizhang0304.github.io/Stats_learning_trig/img/Stim/FN_024_g.png"",""time"":1736},{""stimulus"":""blank"",""time"":2047},{""stimulus"":""https://ziweizhang0304.github.io/Stats_learning_trig/img/Stim/FN_010_g.png"",""time"":2080},{""stimulus"":""blank"",""time"":2383},{""stimulus"":""https://ziweizhang0304.github.io/Stats_learning_trig/img/Stim/FN_004_g.png"",""time"":2430},{""stimulus"":""blank"",""time"":2743},{""stimulus"":""https://ziweizhang0304.github.io/Stats_learning_trig/img/Stim/FN_005_g.png"",""time"":2776},{""stimulus"":""blank"",""time"":3089},{""stimulus"":""https://ziweizhang0304.github.io/Stats_learning_trig/img/Stim/FN_016_g.png"",""time"":3118},{""stimulus"":""blank"",""time"":3425},{""stimulus"":""https://ziweizhang0304.github.io/Stats_learning_trig/img/Stim/FN_015_g.png"",""time"":3460},{""stimulus"":""blank"",""time"":3766},{""stimulus"":""https://ziweizhang0304.github.io/Stats_learning_trig/img/Stim/FN_023_g.png"",""time"":3812},{""stimulus"":""blank"",""time"":4119},{""stimulus"":""https://ziweizhang0304.github.io/Stats_learning_trig/img/Stim/FN_021_g.png"",""time"":4160},{""stimulus"":""blank"",""time"":4461}]","[{""key_press"":32,""rt"":1467,""stimulus"":""https://ziweizhang0304.github.io/Stats_learning_trig/img/Stim/FN_019_g.png""},{""key_press"":32,""rt"":3530,""stimulus"":""https://ziweizhang0304.github.io/Stats_learning_trig/img/Stim/FN_015_g.png""}]","412","https://ziweizhang0304.github.io/Stats_learning_trig/img/Stim/FN_016_g.png","post_TD","1","3118","3530","slow","9","3","5d5f07cdca10e90016bc0103","","","","","",""
"","image-keyboard-response","15","106915","0.0-5.0-1.0-0.0","2489","","","https://ziweizhang0304.github.io/Stats_learning_trig/img/Stim/FN_017_g.png","13","","","","","","","","","","","","","","","","","",""
"","animation","16","111437","0.0-5.0-1.0-1.0","","","","","","[{""stimulus"":""https://ziweizhang0304.github.io/Stats_learning_trig/img/Stim/FN_002_g.png"",""time"":352},{""stimulus"":""blank"",""time"":663},{""stimulus"":""https://ziweizhang0304.github.io/Stats_learning_trig/img/Stim/FN_019_g.png"",""time"":698},{""stimulus"":""blank"",""time"":1006},{""stimulus"":""https://ziweizhang0304.github.io/Stats_learning_trig/img/Stim/FN_008_g.png"",""time"":1050},{""stimulus"":""blank"",""time"":1362},{""stimulus"":""https://ziweizhang0304.github.io/Stats_learning_trig/img/Stim/FN_024_g.png"",""time"":1390},{""stimulus"":""blank"",""time"":1694},{""stimulus"":""https://ziweizhang0304.github.io/Stats_learning_trig/img/Stim/FN_023_g.png"",""time"":1741},{""stimulus"":""blank"",""time"":2043},{""stimulus"":""https://ziweizhang0304.github.io/Stats_learning_trig/img/Stim/FN_017_g.png"",""time"":2090},{""stimulus"":""blank"",""time"":2394},{""stimulus"":""https://ziweizhang0304.github.io/Stats_learning_trig/img/Stim/FN_011_g.png"",""time"":2441},{""stimulus"":""blank"",""time"":2748},{""stimulus"":""https://ziweizhang0304.github.io/Stats_learning_trig/img/Stim/FN_026_g.png"",""time"":2781},{""stimulus"":""blank"",""time"":3087},{""stimulus"":""https://ziweizhang0304.github.io/Stats_learning_trig/img/Stim/FN_015_g.png"",""time"":3131},{""stimulus"":""blank"",""time"":3438},{""stimulus"":""https://ziweizhang0304.github.io/Stats_learning_trig/img/Stim/FN_010_g.png"",""time"":3481},{""stimulus"":""blank"",""time"":3787},{""stimulus"":""https://ziweizhang0304.github.io/Stats_learning_trig/img/Stim/FN_021_g.png"",""time"":3832},{""stimulus"":""blank"",""time"":4148},{""stimulus"":""https://ziweizhang0304.github.io/Stats_learning_trig/img/Stim/FN_018_g.png"",""time"":4179},{""stimulus"":""blank"",""time"":4491}]","[{""key_press"":32,""rt"":2517,""stimulus"":""https://ziweizhang0304.github.io/Stats_learning_trig/img/Stim/FN_011_g.png""}]","427","https://ziweizhang0304.github.io/Stats_learning_trig/img/Stim/FN_017_g.png","post_TD","2","2090","2517","fast","6","1","5d5f07cdca10e90016bc0103","","","","","",""
"","image-keyboard-response","17","112907","0.0-5.0-2.0-0.0","1467","","","https://ziweizhang0304.github.io/Stats_learning_trig/img/Stim/FN_011_g.png","13","","","","","","","","","","","","","","","","","",""
"","animation","18","117415","0.0-5.0-2.0-1.0","","","","","","[{""stimulus"":""https://ziweizhang0304.github.io/Stats_learning_trig/img/Stim/FN_002_g.png"",""time"":347},{""stimulus"":""blank"",""time"":657},{""stimulus"":""https://ziweizhang0304.github.io/Stats_learning_trig/img/Stim/FN_021_g.png"",""time"":688},{""stimulus"":""blank"",""time"":1000},{""stimulus"":""https://ziweizhang0304.github.io/Stats_learning_trig/img/Stim/FN_015_g.png"",""time"":1031},{""stimulus"":""blank"",""time"":1340},{""stimulus"":""https://ziweizhang0304.github.io/Stats_learning_trig/img/Stim/FN_017_g.png"",""time"":1377},{""stimulus"":""blank"",""time"":1690},{""stimulus"":""https://ziweizhang0304.github.io/Stats_learning_trig/img/Stim/FN_011_g.png"",""time"":1726},{""stimulus"":""blank"",""time"":2030},{""stimulus"":""https://ziweizhang0304.github.io/Stats_learning_trig/img/Stim/FN_026_g.png"",""time"":2067},{""stimulus"":""blank"",""time"":2373},{""stimulus"":""https://ziweizhang0304.github.io/Stats_learning_trig/img/Stim/FN_023_g.png"",""time"":2418},{""stimulus"":""blank"",""time"":2722},{""stimulus"":""https://ziweizhang0304.github.io/Stats_learning_trig/img/Stim/FN_019_g.png"",""time"":2758},{""stimulus"":""blank"",""time"":3067},{""stimulus"":""https://ziweizhang0304.github.io/Stats_learning_trig/img/Stim/FN_010_g.png"",""time"":3101},{""stimulus"":""blank"",""time"":3413},{""stimulus"":""https://ziweizhang0304.github.io/Stats_learning_trig/img/Stim/FN_008_g.png"",""time"":3454},{""stimulus"":""blank"",""time"":3758},{""stimulus"":""https://ziweizhang0304.github.io/Stats_learning_trig/img/Stim/FN_024_g.png"",""time"":3808},{""stimulus"":""blank"",""time"":4120},{""stimulus"":""https://ziweizhang0304.github.io/Stats_learning_trig/img/Stim/FN_018_g.png"",""time"":4157},{""stimulus"":""blank"",""time"":4467}]","[{""key_press"":32,""rt"":2167,""stimulus"":""https://ziweizhang0304.github.io/Stats_learning_trig/img/Stim/FN_026_g.png""}]","441","https://ziweizhang0304.github.io/Stats_learning_trig/img/Stim/FN_011_g.png","post_TD","3","1726","2167","fast","5","2","5d5f07cdca10e90016bc0103","","","","","",""
"","image-keyboard-response","19","118821","0.0-5.0-3.0-0.0","1402","","","https://ziweizhang0304.github.io/Stats_learning_trig/img/Stim/FN_026_g.png","13","","","","","","","","","","","","","","","","","",""
"","animation","20","123336","0.0-5.0-3.0-1.0","","","","","","[{""stimulus"":""https://ziweizhang0304.github.io/Stats_learning_trig/img/Stim/FN_002_g.png"",""time"":347},{""stimulus"":""blank"",""time"":648},{""stimulus"":""https://ziweizhang0304.github.io/Stats_learning_trig/img/Stim/FN_021_g.png"",""time"":691},{""stimulus"":""blank"",""time"":998},{""stimulus"":""https://ziweizhang0304.github.io/Stats_learning_trig/img/Stim/FN_015_g.png"",""time"":1044},{""stimulus"":""blank"",""time"":1344},{""stimulus"":""https://ziweizhang0304.github.io/Stats_learning_trig/img/Stim/FN_017_g.png"",""time"":1390},{""stimulus"":""blank"",""time"":1695},{""stimulus"":""https://ziweizhang0304.github.io/Stats_learning_trig/img/Stim/FN_011_g.png"",""time"":1743},{""stimulus"":""blank"",""time"":2056},{""stimulus"":""https://ziweizhang0304.github.io/Stats_learning_trig/img/Stim/FN_026_g.png"",""time"":2090},{""stimulus"":""blank"",""time"":2396},{""stimulus"":""https://ziweizhang0304.github.io/Stats_learning_trig/img/Stim/FN_023_g.png"",""time"":2443},{""stimulus"":""blank"",""time"":2756},{""stimulus"":""https://ziweizhang0304.github.io/Stats_learning_trig/img/Stim/FN_019_g.png"",""time"":2787},{""stimulus"":""blank"",""time"":3097},{""stimulus"":""https://ziweizhang0304.github.io/Stats_learning_trig/img/Stim/FN_010_g.png"",""time"":3134},{""stimulus"":""blank"",""time"":3435},{""stimulus"":""https://ziweizhang0304.github.io/Stats_learning_trig/img/Stim/FN_008_g.png"",""time"":3483},{""stimulus"":""blank"",""time"":3793},{""stimulus"":""https://ziweizhang0304.github.io/Stats_learning_trig/img/Stim/FN_024_g.png"",""time"":3827},{""stimulus"":""blank"",""time"":4138},{""stimulus"":""https://ziweizhang0304.github.io/Stats_learning_trig/img/Stim/FN_018_g.png"",""time"":4167},{""stimulus"":""blank"",""time"":4483}]","[{""key_press"":32,""rt"":2503,""stimulus"":""https://ziweizhang0304.github.io/Stats_learning_trig/img/Stim/FN_023_g.png""}]","413","https://ziweizhang0304.github.io/Stats_learning_trig/img/Stim/FN_026_g.png","post_TD","4","2090","2503","fast","6","3","5d5f07cdca10e90016bc0103","","","","","",""
"","image-keyboard-response","21","125840","0.0-5.0-4.0-0.0","2501","","","https://ziweizhang0304.github.io/Stats_learning_trig/img/Stim/FN_004_g.png","13","","","","","","","","","","","","","","","","","",""
"","animation","22","130343","0.0-5.0-4.0-1.0","","","","","","[{""stimulus"":""https://ziweizhang0304.github.io/Stats_learning_trig/img/Stim/FN_021_g.png"",""time"":346},{""stimulus"":""blank"",""time"":654},{""stimulus"":""https://ziweizhang0304.github.io/Stats_learning_trig/img/Stim/FN_024_g.png"",""time"":697},{""stimulus"":""blank"",""time"":1007},{""stimulus"":""https://ziweizhang0304.github.io/Stats_learning_trig/img/Stim/FN_019_g.png"",""time"":1040},{""stimulus"":""blank"",""time"":1347},{""stimulus"":""https://ziweizhang0304.github.io/Stats_learning_trig/img/Stim/FN_010_g.png"",""time"":1393},{""stimulus"":""blank"",""time"":1696},{""stimulus"":""https://ziweizhang0304.github.io/Stats_learning_trig/img/Stim/FN_018_g.png"",""time"":1741},{""stimulus"":""blank"",""time"":2043},{""stimulus"":""https://ziweizhang0304.github.io/Stats_learning_trig/img/Stim/FN_004_g.png"",""time"":2087},{""stimulus"":""blank"",""time"":2397},{""stimulus"":""https://ziweizhang0304.github.io/Stats_learning_trig/img/Stim/FN_005_g.png"",""time"":2429},{""stimulus"":""blank"",""time"":2730},{""stimulus"":""https://ziweizhang0304.github.io/Stats_learning_trig/img/Stim/FN_016_g.png"",""time"":2774},{""stimulus"":""blank"",""time"":3083},{""stimulus"":""https://ziweizhang0304.github.io/Stats_learning_trig/img/Stim/FN_015_g.png"",""time"":3117},{""stimulus"":""blank"",""time"":3427},{""stimulus"":""https://ziweizhang0304.github.io/Stats_learning_trig/img/Stim/FN_002_g.png"",""time"":3474},{""stimulus"":""blank"",""time"":3781},{""stimulus"":""https://ziweizhang0304.github.io/Stats_learning_trig/img/Stim/FN_023_g.png"",""time"":3814},{""stimulus"":""blank"",""time"":4125},{""stimulus"":""https://ziweizhang0304.github.io/Stats_learning_trig/img/Stim/FN_008_g.png"",""time"":4157},{""stimulus"":""blank"",""time"":4470}]","[{""key_press"":32,""rt"":2489,""stimulus"":""https://ziweizhang0304.github.io/Stats_learning_trig/img/Stim/FN_005_g.png""}]","402","https://ziweizhang0304.github.io/Stats_learning_trig/img/Stim/FN_004_g.png","post_TD","5","2087","2489","slow","6","1","5d5f07cdca10e90016bc0103","","","","","",""
"","image-keyboard-response","23","131557","0.0-5.0-5.0-0.0","1210","","","https://ziweizhang0304.github.io/Stats_learning_trig/img/Stim/FN_005_g.png","13","","","","","","","","","","","","","","","","","",""
"","animation","24","136043","0.0-5.0-5.0-1.0","","","","","","[{""stimulus"":""https://ziweizhang0304.github.io/Stats_learning_trig/img/Stim/FN_018_g.png"",""time"":347},{""stimulus"":""blank"",""time"":656},{""stimulus"":""https://ziweizhang0304.github.io/Stats_learning_trig/img/Stim/FN_002_g.png"",""time"":687},{""stimulus"":""blank"",""time"":987},{""stimulus"":""https://ziweizhang0304.github.io/Stats_learning_trig/img/Stim/FN_008_g.png"",""time"":1036},{""stimulus"":""blank"",""time"":1349},{""stimulus"":""https://ziweizhang0304.github.io/Stats_learning_trig/img/Stim/FN_019_g.png"",""time"":1378},{""stimulus"":""blank"",""time"":1681},{""stimulus"":""https://ziweizhang0304.github.io/Stats_learning_trig/img/Stim/FN_024_g.png"",""time"":1730},{""stimulus"":""blank"",""time"":2039},{""stimulus"":""https://ziweizhang0304.github.io/Stats_learning_trig/img/Stim/FN_010_g.png"",""time"":2071},{""stimulus"":""blank"",""time"":2382},{""stimulus"":""https://ziweizhang0304.github.io/Stats_learning_trig/img/Stim/FN_004_g.png"",""time"":2416},{""stimulus"":""blank"",""time"":2729},{""stimulus"":""https://ziweizhang0304.github.io/Stats_learning_trig/img/Stim/FN_005_g.png"",""time"":2760},{""stimulus"":""blank"",""time"":3072},{""stimulus"":""https://ziweizhang0304.github.io/Stats_learning_trig/img/Stim/FN_016_g.png"",""time"":3100},{""stimulus"":""blank"",""time"":3409},{""stimulus"":""https://ziweizhang0304.github.io/Stats_learning_trig/img/Stim/FN_015_g.png"",""time"":3455},{""stimulus"":""blank"",""time"":3756},{""stimulus"":""https://ziweizhang0304.github.io/Stats_learning_trig/img/Stim/FN_023_g.png"",""time"":3800},{""stimulus"":""blank"",""time"":4109},{""stimulus"":""https://ziweizhang0304.github.io/Stats_learning_trig/img/Stim/FN_021_g.png"",""time"":4146},{""stimulus"":""blank"",""time"":4456}]","[{""key_press"":32,""rt"":3160,""stimulus"":""https://ziweizhang0304.github.io/Stats_learning_trig/img/Stim/FN_016_g.png""}]","400","https://ziweizhang0304.github.io/Stats_learning_trig/img/Stim/FN_005_g.png","post_TD","6","2760","3160","slow","8","2","5d5f07cdca10e90016bc0103","","","","","",""
"","image-keyboard-response","25","138170","0.0-5.0-6.0-0.0","2124","","","https://ziweizhang0304.github.io/Stats_learning_trig/img/Stim/FN_005_g.png","13","","","","","","","","","","","","","","","","","",""
"","animation","26","142659","0.0-5.0-6.0-1.0","","","","","","[{""stimulus"":""https://ziweizhang0304.github.io/Stats_learning_trig/img/Stim/FN_010_g.png"",""time"":344},{""stimulus"":""blank"",""time"":646},{""stimulus"":""https://ziweizhang0304.github.io/Stats_learning_trig/img/Stim/FN_021_g.png"",""time"":697},{""stimulus"":""blank"",""time"":1010},{""stimulus"":""https://ziweizhang0304.github.io/Stats_learning_trig/img/Stim/FN_008_g.png"",""time"":1041},{""stimulus"":""blank"",""time"":1343},{""stimulus"":""https://ziweizhang0304.github.io/Stats_learning_trig/img/Stim/FN_004_g.png"",""time"":1388},{""stimulus"":""blank"",""time"":1703},{""stimulus"":""https://ziweizhang0304.github.io/Stats_learning_trig/img/Stim/FN_005_g.png"",""time"":1734},{""stimulus"":""blank"",""time"":2047},{""stimulus"":""https://ziweizhang0304.github.io/Stats_learning_trig/img/Stim/FN_016_g.png"",""time"":2078},{""stimulus"":""blank"",""time"":2382},{""stimulus"":""https://ziweizhang0304.github.io/Stats_learning_trig/img/Stim/FN_015_g.png"",""time"":2417},{""stimulus"":""blank"",""time"":2732},{""stimulus"":""https://ziweizhang0304.github.io/Stats_learning_trig/img/Stim/FN_002_g.png"",""time"":2764},{""stimulus"":""blank"",""time"":3075},{""stimulus"":""https://ziweizhang0304.github.io/Stats_learning_trig/img/Stim/FN_023_g.png"",""time"":3107},{""stimulus"":""blank"",""time"":3422},{""stimulus"":""https://ziweizhang0304.github.io/Stats_learning_trig/img/Stim/FN_019_g.png"",""time"":3453},{""stimulus"":""blank"",""time"":3766},{""stimulus"":""https://ziweizhang0304.github.io/Stats_learning_trig/img/Stim/FN_024_g.png"",""time"":3799},{""stimulus"":""blank"",""time"":4108},{""stimulus"":""https://ziweizhang0304.github.io/Stats_learning_trig/img/Stim/FN_018_g.png"",""time"":4140},{""stimulus"":""blank"",""time"":4443}]","[{""key_press"":32,""rt"":2121,""stimulus"":""https://ziweizhang0304.github.io/Stats_learning_trig/img/Stim/FN_016_g.png""}]","387","https://ziweizhang0304.github.io/Stats_learning_trig/img/Stim/FN_005_g.png","post_TD","7","1734","2121","slow","5","2","5d5f07cdca10e90016bc0103","","","","","",""
"","image-keyboard-response","27","143541","0.0-5.0-7.0-0.0","879","","","https://ziweizhang0304.github.io/Stats_learning_trig/img/Stim/FN_016_g.png","13","","","","","","","","","","","","","","","","","",""
"","animation","28","148057","0.0-5.0-7.0-1.0","","","","","","[{""stimulus"":""https://ziweizhang0304.github.io/Stats_learning_trig/img/Stim/FN_021_g.png"",""time"":342},{""stimulus"":""blank"",""time"":649},{""stimulus"":""https://ziweizhang0304.github.io/Stats_learning_trig/img/Stim/FN_024_g.png"",""time"":683},{""stimulus"":""blank"",""time"":995},{""stimulus"":""https://ziweizhang0304.github.io/Stats_learning_trig/img/Stim/FN_019_g.png"",""time"":1027},{""stimulus"":""blank"",""time"":1328},{""stimulus"":""https://ziweizhang0304.github.io/Stats_learning_trig/img/Stim/FN_010_g.png"",""time"":1378},{""stimulus"":""blank"",""time"":1682},{""stimulus"":""https://ziweizhang0304.github.io/Stats_learning_trig/img/Stim/FN_018_g.png"",""time"":1730},{""stimulus"":""blank"",""time"":2035},{""stimulus"":""https://ziweizhang0304.github.io/Stats_learning_trig/img/Stim/FN_004_g.png"",""time"":2079},{""stimulus"":""blank"",""time"":2384},{""stimulus"":""https://ziweizhang0304.github.io/Stats_learning_trig/img/Stim/FN_005_g.png"",""time"":2431},{""stimulus"":""blank"",""time"":2744},{""stimulus"":""https://ziweizhang0304.github.io/Stats_learning_trig/img/Stim/FN_016_g.png"",""time"":2775},{""stimulus"":""blank"",""time"":3077},{""stimulus"":""https://ziweizhang0304.github.io/Stats_learning_trig/img/Stim/FN_015_g.png"",""time"":3126},{""stimulus"":""blank"",""time"":3430},{""stimulus"":""https://ziweizhang0304.github.io/Stats_learning_trig/img/Stim/FN_002_g.png"",""time"":3480},{""stimulus"":""blank"",""time"":3782},{""stimulus"":""https://ziweizhang0304.github.io/Stats_learning_trig/img/Stim/FN_023_g.png"",""time"":3832},{""stimulus"":""blank"",""time"":4146},{""stimulus"":""https://ziweizhang0304.github.io/Stats_learning_trig/img/Stim/FN_008_g.png"",""time"":4173},{""stimulus"":""blank"",""time"":4484}]","[{""key_press"":32,""rt"":3152,""stimulus"":""https://ziweizhang0304.github.io/Stats_learning_trig/img/Stim/FN_015_g.png""}]","377","https://ziweizhang0304.github.io/Stats_learning_trig/img/Stim/FN_016_g.png","post_TD","8","2775","3152","slow","8","3","5d5f07cdca10e90016bc0103","","","","","",""
"","image-keyboard-response","29","149145","0.0-5.0-8.0-0.0","1088","","","https://ziweizhang0304.github.io/Stats_learning_trig/img/Stim/FN_017_g.png","13","","","","","","","","","","","","","","","","","",""
"","animation","30","153670","0.0-5.0-8.0-1.0","","","","","","[{""stimulus"":""https://ziweizhang0304.github.io/Stats_learning_trig/img/Stim/FN_024_g.png"",""time"":353},{""stimulus"":""blank"",""time"":660},{""stimulus"":""https://ziweizhang0304.github.io/Stats_learning_trig/img/Stim/FN_021_g.png"",""time"":708},{""stimulus"":""blank"",""time"":1021},{""stimulus"":""https://ziweizhang0304.github.io/Stats_learning_trig/img/Stim/FN_023_g.png"",""time"":1052},{""stimulus"":""blank"",""time"":1368},{""stimulus"":""https://ziweizhang0304.github.io/Stats_learning_trig/img/Stim/FN_010_g.png"",""time"":1397},{""stimulus"":""blank"",""time"":1698},{""stimulus"":""https://ziweizhang0304.github.io/Stats_learning_trig/img/Stim/FN_017_g.png"",""time"":1747},{""stimulus"":""blank"",""time"":2048},{""stimulus"":""https://ziweizhang0304.github.io/Stats_learning_trig/img/Stim/FN_011_g.png"",""time"":2092},{""stimulus"":""blank"",""time"":2393},{""stimulus"":""https://ziweizhang0304.github.io/Stats_learning_trig/img/Stim/FN_026_g.png"",""time"":2434},{""stimulus"":""blank"",""time"":2747},{""stimulus"":""https://ziweizhang0304.github.io/Stats_learning_trig/img/Stim/FN_015_g.png"",""time"":2780},{""stimulus"":""blank"",""time"":3084},{""stimulus"":""https://ziweizhang0304.github.io/Stats_learning_trig/img/Stim/FN_002_g.png"",""time"":3131},{""stimulus"":""blank"",""time"":3435},{""stimulus"":""https://ziweizhang0304.github.io/Stats_learning_trig/img/Stim/FN_019_g.png"",""time"":3482},{""stimulus"":""blank"",""time"":3791},{""stimulus"":""https://ziweizhang0304.github.io/Stats_learning_trig/img/Stim/FN_008_g.png"",""time"":3834},{""stimulus"":""blank"",""time"":4145},{""stimulus"":""https://ziweizhang0304.github.io/Stats_learning_trig/img/Stim/FN_018_g.png"",""time"":4175},{""stimulus"":""blank"",""time"":4480}]","[{""key_press"":32,""rt"":2171,""stimulus"":""https://ziweizhang0304.github.io/Stats_learning_trig/img/Stim/FN_011_g.png""}]","424","https://ziweizhang0304.github.io/Stats_learning_trig/img/Stim/FN_017_g.png","post_TD","9","1747","2171","fast","5","1","5d5f07cdca10e90016bc0103","","","","","",""
"","image-keyboard-response","31","154436","0.0-5.0-9.0-0.0","762","","","https://ziweizhang0304.github.io/Stats_learning_trig/img/Stim/FN_026_g.png","13","","","","","","","","","","","","","","","","","",""
"","animation","32","158966","0.0-5.0-9.0-1.0","","","","","","[{""stimulus"":""https://ziweizhang0304.github.io/Stats_learning_trig/img/Stim/FN_002_g.png"",""time"":348},{""stimulus"":""blank"",""time"":660},{""stimulus"":""https://ziweizhang0304.github.io/Stats_learning_trig/img/Stim/FN_019_g.png"",""time"":691},{""stimulus"":""blank"",""time"":1008},{""stimulus"":""https://ziweizhang0304.github.io/Stats_learning_trig/img/Stim/FN_024_g.png"",""time"":1039},{""stimulus"":""blank"",""time"":1344},{""stimulus"":""https://ziweizhang0304.github.io/Stats_learning_trig/img/Stim/FN_008_g.png"",""time"":1389},{""stimulus"":""blank"",""time"":1701},{""stimulus"":""https://ziweizhang0304.github.io/Stats_learning_trig/img/Stim/FN_018_g.png"",""time"":1730},{""stimulus"":""blank"",""time"":2035},{""stimulus"":""https://ziweizhang0304.github.io/Stats_learning_trig/img/Stim/FN_021_g.png"",""time"":2082},{""stimulus"":""blank"",""time"":2398},{""stimulus"":""https://ziweizhang0304.github.io/Stats_learning_trig/img/Stim/FN_017_g.png"",""time"":2432},{""stimulus"":""blank"",""time"":2741},{""stimulus"":""https://ziweizhang0304.github.io/Stats_learning_trig/img/Stim/FN_011_g.png"",""time"":2783},{""stimulus"":""blank"",""time"":3096},{""stimulus"":""https://ziweizhang0304.github.io/Stats_learning_trig/img/Stim/FN_026_g.png"",""time"":3129},{""stimulus"":""blank"",""time"":3435},{""stimulus"":""https://ziweizhang0304.github.io/Stats_learning_trig/img/Stim/FN_015_g.png"",""time"":3482},{""stimulus"":""blank"",""time"":3783},{""stimulus"":""https://ziweizhang0304.github.io/Stats_learning_trig/img/Stim/FN_023_g.png"",""time"":3828},{""stimulus"":""blank"",""time"":4131},{""stimulus"":""https://ziweizhang0304.github.io/Stats_learning_trig/img/Stim/FN_010_g.png"",""time"":4182},{""stimulus"":""blank"",""time"":4483}]","[{""key_press"":32,""rt"":3552,""stimulus"":""https://ziweizhang0304.github.io/Stats_learning_trig/img/Stim/FN_015_g.png""}]","423","https://ziweizhang0304.github.io/Stats_learning_trig/img/Stim/FN_026_g.png","post_TD","10","3129","3552","fast","9","3","5d5f07cdca10e90016bc0103","","","","","",""
"","image-keyboard-response","33","159699","0.0-5.0-10.0-0.0","730","","","https://ziweizhang0304.github.io/Stats_learning_trig/img/Stim/FN_005_g.png","13","","","","","","","","","","","","","","","","","",""
"","animation","34","164217","0.0-5.0-10.0-1.0","","","","","","[{""stimulus"":""https://ziweizhang0304.github.io/Stats_learning_trig/img/Stim/FN_015_g.png"",""time"":341},{""stimulus"":""blank"",""time"":654},{""stimulus"":""https://ziweizhang0304.github.io/Stats_learning_trig/img/Stim/FN_010_g.png"",""time"":688},{""stimulus"":""blank"",""time"":993},{""stimulus"":""https://ziweizhang0304.github.io/Stats_learning_trig/img/Stim/FN_008_g.png"",""time"":1037},{""stimulus"":""blank"",""time"":1349},{""stimulus"":""https://ziweizhang0304.github.io/Stats_learning_trig/img/Stim/FN_024_g.png"",""time"":1384},{""stimulus"":""blank"",""time"":1696},{""stimulus"":""https://ziweizhang0304.github.io/Stats_learning_trig/img/Stim/FN_004_g.png"",""time"":1728},{""stimulus"":""blank"",""time"":2037},{""stimulus"":""https://ziweizhang0304.github.io/Stats_learning_trig/img/Stim/FN_005_g.png"",""time"":2085},{""stimulus"":""blank"",""time"":2388},{""stimulus"":""https://ziweizhang0304.github.io/Stats_learning_trig/img/Stim/FN_016_g.png"",""time"":2434},{""stimulus"":""blank"",""time"":2739},{""stimulus"":""https://ziweizhang0304.github.io/Stats_learning_trig/img/Stim/FN_002_g.png"",""time"":2784},{""stimulus"":""blank"",""time"":3097},{""stimulus"":""https://ziweizhang0304.github.io/Stats_learning_trig/img/Stim/FN_023_g.png"",""time"":3129},{""stimulus"":""blank"",""time"":3444},{""stimulus"":""https://ziweizhang0304.github.io/Stats_learning_trig/img/Stim/FN_019_g.png"",""time"":3474},{""stimulus"":""blank"",""time"":3774},{""stimulus"":""https://ziweizhang0304.github.io/Stats_learning_trig/img/Stim/FN_021_g.png"",""time"":3824},{""stimulus"":""blank"",""time"":4137},{""stimulus"":""https://ziweizhang0304.github.io/Stats_learning_trig/img/Stim/FN_018_g.png"",""time"":4170},{""stimulus"":""blank"",""time"":4483}]","[{""key_press"":32,""rt"":2487,""stimulus"":""https://ziweizhang0304.github.io/Stats_learning_trig/img/Stim/FN_016_g.png""}]","402","https://ziweizhang0304.github.io/Stats_learning_trig/img/Stim/FN_005_g.png","post_TD","11","2085","2487","slow","6","2","5d5f07cdca10e90016bc0103","","","","","",""
"","image-keyboard-response","35","164970","0.0-5.0-11.0-0.0","751","","","https://ziweizhang0304.github.io/Stats_learning_trig/img/Stim/FN_004_g.png","13","","","","","","","","","","","","","","","","","",""
"","animation","36","169484","0.0-5.0-11.0-1.0","","","","","","[{""stimulus"":""https://ziweizhang0304.github.io/Stats_learning_trig/img/Stim/FN_015_g.png"",""time"":349},{""stimulus"":""blank"",""time"":663},{""stimulus"":""https://ziweizhang0304.github.io/Stats_learning_trig/img/Stim/FN_010_g.png"",""time"":697},{""stimulus"":""blank"",""time"":1009},{""stimulus"":""https://ziweizhang0304.github.io/Stats_learning_trig/img/Stim/FN_008_g.png"",""time"":1043},{""stimulus"":""blank"",""time"":1356},{""stimulus"":""https://ziweizhang0304.github.io/Stats_learning_trig/img/Stim/FN_024_g.png"",""time"":1389},{""stimulus"":""blank"",""time"":1704},{""stimulus"":""https://ziweizhang0304.github.io/Stats_learning_trig/img/Stim/FN_004_g.png"",""time"":1735},{""stimulus"":""blank"",""time"":2046},{""stimulus"":""https://ziweizhang0304.github.io/Stats_learning_trig/img/Stim/FN_005_g.png"",""time"":2079},{""stimulus"":""blank"",""time"":2380},{""stimulus"":""https://ziweizhang0304.github.io/Stats_learning_trig/img/Stim/FN_016_g.png"",""time"":2427},{""stimulus"":""blank"",""time"":2733},{""stimulus"":""https://ziweizhang0304.github.io/Stats_learning_trig/img/Stim/FN_002_g.png"",""time"":2779},{""stimulus"":""blank"",""time"":3086},{""stimulus"":""https://ziweizhang0304.github.io/Stats_learning_trig/img/Stim/FN_023_g.png"",""time"":3133},{""stimulus"":""blank"",""time"":3443},{""stimulus"":""https://ziweizhang0304.github.io/Stats_learning_trig/img/Stim/FN_019_g.png"",""time"":3476},{""stimulus"":""blank"",""time"":3779},{""stimulus"":""https://ziweizhang0304.github.io/Stats_learning_trig/img/Stim/FN_021_g.png"",""time"":3827},{""stimulus"":""blank"",""time"":4139},{""stimulus"":""https://ziweizhang0304.github.io/Stats_learning_trig/img/Stim/FN_018_g.png"",""time"":4174},{""stimulus"":""blank"",""time"":4479}]","[{""key_press"":32,""rt"":2138,""stimulus"":""https://ziweizhang0304.github.io/Stats_learning_trig/img/Stim/FN_005_g.png""}]","403","https://ziweizhang0304.github.io/Stats_learning_trig/img/Stim/FN_004_g.png","post_TD","12","1735","2138","slow","5","1","5d5f07cdca10e90016bc0103","","","","","",""
"","image-keyboard-response","37","170197","0.0-5.0-12.0-0.0","711","","","https://ziweizhang0304.github.io/Stats_learning_trig/img/Stim/FN_011_g.png","13","","","","","","","","","","","","","","","","","",""
"","animation","38","174703","0.0-5.0-12.0-1.0","","","","","","[{""stimulus"":""https://ziweizhang0304.github.io/Stats_learning_trig/img/Stim/FN_024_g.png"",""time"":351},{""stimulus"":""blank"",""time"":657},{""stimulus"":""https://ziweizhang0304.github.io/Stats_learning_trig/img/Stim/FN_021_g.png"",""time"":691},{""stimulus"":""blank"",""time"":1002},{""stimulus"":""https://ziweizhang0304.github.io/Stats_learning_trig/img/Stim/FN_023_g.png"",""time"":1033},{""stimulus"":""blank"",""time"":1340},{""stimulus"":""https://ziweizhang0304.github.io/Stats_learning_trig/img/Stim/FN_010_g.png"",""time"":1373},{""stimulus"":""blank"",""time"":1684},{""stimulus"":""https://ziweizhang0304.github.io/Stats_learning_trig/img/Stim/FN_017_g.png"",""time"":1717},{""stimulus"":""blank"",""time"":2016},{""stimulus"":""https://ziweizhang0304.github.io/Stats_learning_trig/img/Stim/FN_011_g.png"",""time"":2067},{""stimulus"":""blank"",""time"":2379},{""stimulus"":""https://ziweizhang0304.github.io/Stats_learning_trig/img/Stim/FN_026_g.png"",""time"":2415},{""stimulus"":""blank"",""time"":2722},{""stimulus"":""https://ziweizhang0304.github.io/Stats_learning_trig/img/Stim/FN_015_g.png"",""time"":2768},{""stimulus"":""blank"",""time"":3079},{""stimulus"":""https://ziweizhang0304.github.io/Stats_learning_trig/img/Stim/FN_002_g.png"",""time"":3117},{""stimulus"":""blank"",""time"":3420},{""stimulus"":""https://ziweizhang0304.github.io/Stats_learning_trig/img/Stim/FN_019_g.png"",""time"":3464},{""stimulus"":""blank"",""time"":3774},{""stimulus"":""https://ziweizhang0304.github.io/Stats_learning_trig/img/Stim/FN_008_g.png"",""time"":3820},{""stimulus"":""blank"",""time"":4120},{""stimulus"":""https://ziweizhang0304.github.io/Stats_learning_trig/img/Stim/FN_018_g.png"",""time"":4163},{""stimulus"":""blank"",""time"":4476}]","[{""key_press"":32,""rt"":2487,""stimulus"":""https://ziweizhang0304.github.io/Stats_learning_trig/img/Stim/FN_026_g.png""}]","420","https://ziweizhang0304.github.io/Stats_learning_trig/img/Stim/FN_011_g.png","post_TD","13","2067","2487","fast","6","2","5d5f07cdca10e90016bc0103","","","","","",""
"","image-keyboard-response","39","175338","0.0-5.0-13.0-0.0","632","","","https://ziweizhang0304.github.io/Stats_learning_trig/img/Stim/FN_004_g.png","13","","","","","","","","","","","","","","","","","",""
"","animation","40","179833","0.0-5.0-13.0-1.0","","","","","","[{""stimulus"":""https://ziweizhang0304.github.io/Stats_learning_trig/img/Stim/FN_018_g.png"",""time"":351},{""stimulus"":""blank"",""time"":659},{""stimulus"":""https://ziweizhang0304.github.io/Stats_learning_trig/img/Stim/FN_002_g.png"",""time"":703},{""stimulus"":""blank"",""time"":1015},{""stimulus"":""https://ziweizhang0304.github.io/Stats_learning_trig/img/Stim/FN_008_g.png"",""time"":1050},{""stimulus"":""blank"",""time"":1361},{""stimulus"":""https://ziweizhang0304.github.io/Stats_learning_trig/img/Stim/FN_019_g.png"",""time"":1390},{""stimulus"":""blank"",""time"":1703},{""stimulus"":""https://ziweizhang0304.github.io/Stats_learning_trig/img/Stim/FN_024_g.png"",""time"":1733},{""stimulus"":""blank"",""time"":2039},{""stimulus"":""https://ziweizhang0304.github.io/Stats_learning_trig/img/Stim/FN_010_g.png"",""time"":2076},{""stimulus"":""blank"",""time"":2389},{""stimulus"":""https://ziweizhang0304.github.io/Stats_learning_trig/img/Stim/FN_004_g.png"",""time"":2420},{""stimulus"":""blank"",""time"":2726},{""stimulus"":""https://ziweizhang0304.github.io/Stats_learning_trig/img/Stim/FN_005_g.png"",""time"":2777},{""stimulus"":""blank"",""time"":3078},{""stimulus"":""https://ziweizhang0304.github.io/Stats_learning_trig/img/Stim/FN_016_g.png"",""time"":3122},{""stimulus"":""blank"",""time"":3436},{""stimulus"":""https://ziweizhang0304.github.io/Stats_learning_trig/img/Stim/FN_015_g.png"",""time"":3466},{""stimulus"":""blank"",""time"":3776},{""stimulus"":""https://ziweizhang0304.github.io/Stats_learning_trig/img/Stim/FN_023_g.png"",""time"":3811},{""stimulus"":""blank"",""time"":4123},{""stimulus"":""https://ziweizhang0304.github.io/Stats_learning_trig/img/Stim/FN_021_g.png"",""time"":4156},{""stimulus"":""blank"",""time"":4465}]","[{""key_press"":32,""rt"":2813,""stimulus"":""https://ziweizhang0304.github.io/Stats_learning_trig/img/Stim/FN_005_g.png""}]","393","https://ziweizhang0304.github.io/Stats_learning_trig/img/Stim/FN_004_g.png","post_TD","14","2420","2813","slow","7","1","5d5f07cdca10e90016bc0103","","","","","",""
"","image-keyboard-response","41","180596","0.0-5.0-14.0-0.0","759","","","https://ziweizhang0304.github.io/Stats_learning_trig/img/Stim/FN_017_g.png","13","","","","","","","","","","","","","","","","","",""
"","animation","42","185117","0.0-5.0-14.0-1.0","","","","","","[{""stimulus"":""https://ziweizhang0304.github.io/Stats_learning_trig/img/Stim/FN_002_g.png"",""time"":355},{""stimulus"":""blank"",""time"":662},{""stimulus"":""https://ziweizhang0304.github.io/Stats_learning_trig/img/Stim/FN_021_g.png"",""time"":697},{""stimulus"":""blank"",""time"":1000},{""stimulus"":""https://ziweizhang0304.github.io/Stats_learning_trig/img/Stim/FN_015_g.png"",""time"":1048},{""stimulus"":""blank"",""time"":1360},{""stimulus"":""https://ziweizhang0304.github.io/Stats_learning_trig/img/Stim/FN_017_g.png"",""time"":1390},{""stimulus"":""blank"",""time"":1707},{""stimulus"":""https://ziweizhang0304.github.io/Stats_learning_trig/img/Stim/FN_011_g.png"",""time"":1736},{""stimulus"":""blank"",""time"":2039},{""stimulus"":""https://ziweizhang0304.github.io/Stats_learning_trig/img/Stim/FN_026_g.png"",""time"":2089},{""stimulus"":""blank"",""time"":2407},{""stimulus"":""https://ziweizhang0304.github.io/Stats_learning_trig/img/Stim/FN_023_g.png"",""time"":2439},{""stimulus"":""blank"",""time"":2739},{""stimulus"":""https://ziweizhang0304.github.io/Stats_learning_trig/img/Stim/FN_019_g.png"",""time"":2787},{""stimulus"":""blank"",""time"":3091},{""stimulus"":""https://ziweizhang0304.github.io/Stats_learning_trig/img/Stim/FN_010_g.png"",""time"":3137},{""stimulus"":""blank"",""time"":3450},{""stimulus"":""https://ziweizhang0304.github.io/Stats_learning_trig/img/Stim/FN_008_g.png"",""time"":3481},{""stimulus"":""blank"",""time"":3790},{""stimulus"":""https://ziweizhang0304.github.io/Stats_learning_trig/img/Stim/FN_024_g.png"",""time"":3823},{""stimulus"":""blank"",""time"":4128},{""stimulus"":""https://ziweizhang0304.github.io/Stats_learning_trig/img/Stim/FN_018_g.png"",""time"":4172},{""stimulus"":""blank"",""time"":4477}]","[{""key_press"":32,""rt"":1849,""stimulus"":""https://ziweizhang0304.github.io/Stats_learning_trig/img/Stim/FN_011_g.png""}]","459","https://ziweizhang0304.github.io/Stats_learning_trig/img/Stim/FN_017_g.png","post_TD","15","1390","1849","fast","4","1","5d5f07cdca10e90016bc0103","","","","","",""
"","image-keyboard-response","43","185822","0.0-5.0-15.0-0.0","702","","","https://ziweizhang0304.github.io/Stats_learning_trig/img/Stim/FN_005_g.png","13","","","","","","","","","","","","","","","","","",""
"","animation","44","190326","0.0-5.0-15.0-1.0","","","","","","[{""stimulus"":""https://ziweizhang0304.github.io/Stats_learning_trig/img/Stim/FN_021_g.png"",""time"":345},{""stimulus"":""blank"",""time"":661},{""stimulus"":""https://ziweizhang0304.github.io/Stats_learning_trig/img/Stim/FN_024_g.png"",""time"":687},{""stimulus"":""blank"",""time"":990},{""stimulus"":""https://ziweizhang0304.github.io/Stats_learning_trig/img/Stim/FN_019_g.png"",""time"":1035},{""stimulus"":""blank"",""time"":1338},{""stimulus"":""https://ziweizhang0304.github.io/Stats_learning_trig/img/Stim/FN_010_g.png"",""time"":1385},{""stimulus"":""blank"",""time"":1701},{""stimulus"":""https://ziweizhang0304.github.io/Stats_learning_trig/img/Stim/FN_018_g.png"",""time"":1735},{""stimulus"":""blank"",""time"":2036},{""stimulus"":""https://ziweizhang0304.github.io/Stats_learning_trig/img/Stim/FN_004_g.png"",""time"":2081},{""stimulus"":""blank"",""time"":2384},{""stimulus"":""https://ziweizhang0304.github.io/Stats_learning_trig/img/Stim/FN_005_g.png"",""time"":2421},{""stimulus"":""blank"",""time"":2734},{""stimulus"":""https://ziweizhang0304.github.io/Stats_learning_trig/img/Stim/FN_016_g.png"",""time"":2762},{""stimulus"":""blank"",""time"":3064},{""stimulus"":""https://ziweizhang0304.github.io/Stats_learning_trig/img/Stim/FN_015_g.png"",""time"":3112},{""stimulus"":""blank"",""time"":3424},{""stimulus"":""https://ziweizhang0304.github.io/Stats_learning_trig/img/Stim/FN_002_g.png"",""time"":3451},{""stimulus"":""blank"",""time"":3754},{""stimulus"":""https://ziweizhang0304.github.io/Stats_learning_trig/img/Stim/FN_023_g.png"",""time"":3802},{""stimulus"":""blank"",""time"":4104},{""stimulus"":""https://ziweizhang0304.github.io/Stats_learning_trig/img/Stim/FN_008_g.png"",""time"":4153},{""stimulus"":""blank"",""time"":4456}]","[{""key_press"":32,""rt"":2699,""stimulus"":""https://ziweizhang0304.github.io/Stats_learning_trig/img/Stim/FN_005_g.png""}]","278","https://ziweizhang0304.github.io/Stats_learning_trig/img/Stim/FN_005_g.png","post_TD","16","2421","2699","slow","7","2","5d5f07cdca10e90016bc0103","","","","","",""
"","image-keyboard-response","45","191949","0.0-5.0-16.0-0.0","1621","","","https://ziweizhang0304.github.io/Stats_learning_trig/img/Stim/FN_026_g.png","13","","","","","","","","","","","","","","","","","",""
"","animation","46","196443","0.0-5.0-16.0-1.0","","","","","","[{""stimulus"":""https://ziweizhang0304.github.io/Stats_learning_trig/img/Stim/FN_024_g.png"",""time"":344},{""stimulus"":""blank"",""time"":657},{""stimulus"":""https://ziweizhang0304.github.io/Stats_learning_trig/img/Stim/FN_021_g.png"",""time"":688},{""stimulus"":""blank"",""time"":1004},{""stimulus"":""https://ziweizhang0304.github.io/Stats_learning_trig/img/Stim/FN_023_g.png"",""time"":1035},{""stimulus"":""blank"",""time"":1337},{""stimulus"":""https://ziweizhang0304.github.io/Stats_learning_trig/img/Stim/FN_010_g.png"",""time"":1384},{""stimulus"":""blank"",""time"":1696},{""stimulus"":""https://ziweizhang0304.github.io/Stats_learning_trig/img/Stim/FN_017_g.png"",""time"":1730},{""stimulus"":""blank"",""time"":2034},{""stimulus"":""https://ziweizhang0304.github.io/Stats_learning_trig/img/Stim/FN_011_g.png"",""time"":2078},{""stimulus"":""blank"",""time"":2379},{""stimulus"":""https://ziweizhang0304.github.io/Stats_learning_trig/img/Stim/FN_026_g.png"",""time"":2428},{""stimulus"":""blank"",""time"":2732},{""stimulus"":""https://ziweizhang0304.github.io/Stats_learning_trig/img/Stim/FN_015_g.png"",""time"":2778},{""stimulus"":""blank"",""time"":3089},{""stimulus"":""https://ziweizhang0304.github.io/Stats_learning_trig/img/Stim/FN_002_g.png"",""time"":3124},{""stimulus"":""blank"",""time"":3437},{""stimulus"":""https://ziweizhang0304.github.io/Stats_learning_trig/img/Stim/FN_019_g.png"",""time"":3468},{""stimulus"":""blank"",""time"":3778},{""stimulus"":""https://ziweizhang0304.github.io/Stats_learning_trig/img/Stim/FN_008_g.png"",""time"":3811},{""stimulus"":""blank"",""time"":4117},{""stimulus"":""https://ziweizhang0304.github.io/Stats_learning_trig/img/Stim/FN_018_g.png"",""time"":4150},{""stimulus"":""blank"",""time"":4464}]","[{""key_press"":32,""rt"":2763,""stimulus"":""blank""}]","335","https://ziweizhang0304.github.io/Stats_learning_trig/img/Stim/FN_026_g.png","post_TD","17","2428","2763","fast","7","3","5d5f07cdca10e90016bc0103","","","","","",""
"","image-keyboard-response","47","197047","0.0-5.0-17.0-0.0","601","","","https://ziweizhang0304.github.io/Stats_learning_trig/img/Stim/FN_016_g.png","13","","","","","","","","","","","","","","","","","",""
"","animation","48","201565","0.0-5.0-17.0-1.0","","","","","","[{""stimulus"":""https://ziweizhang0304.github.io/Stats_learning_trig/img/Stim/FN_015_g.png"",""time"":349},{""stimulus"":""blank"",""time"":657},{""stimulus"":""https://ziweizhang0304.github.io/Stats_learning_trig/img/Stim/FN_010_g.png"",""time"":689},{""stimulus"":""blank"",""time"":994},{""stimulus"":""https://ziweizhang0304.github.io/Stats_learning_trig/img/Stim/FN_008_g.png"",""time"":1041},{""stimulus"":""blank"",""time"":1349},{""stimulus"":""https://ziweizhang0304.github.io/Stats_learning_trig/img/Stim/FN_024_g.png"",""time"":1395},{""stimulus"":""blank"",""time"":1709},{""stimulus"":""https://ziweizhang0304.github.io/Stats_learning_trig/img/Stim/FN_004_g.png"",""time"":1739},{""stimulus"":""blank"",""time"":2045},{""stimulus"":""https://ziweizhang0304.github.io/Stats_learning_trig/img/Stim/FN_005_g.png"",""time"":2093},{""stimulus"":""blank"",""time"":2407},{""stimulus"":""https://ziweizhang0304.github.io/Stats_learning_trig/img/Stim/FN_016_g.png"",""time"":2435},{""stimulus"":""blank"",""time"":2744},{""stimulus"":""https://ziweizhang0304.github.io/Stats_learning_trig/img/Stim/FN_002_g.png"",""time"":2779},{""stimulus"":""blank"",""time"":3090},{""stimulus"":""https://ziweizhang0304.github.io/Stats_learning_trig/img/Stim/FN_023_g.png"",""time"":3119},{""stimulus"":""blank"",""time"":3425},{""stimulus"":""https://ziweizhang0304.github.io/Stats_learning_trig/img/Stim/FN_019_g.png"",""time"":3458},{""stimulus"":""blank"",""time"":3765},{""stimulus"":""https://ziweizhang0304.github.io/Stats_learning_trig/img/Stim/FN_021_g.png"",""time"":3809},{""stimulus"":""blank"",""time"":4116},{""stimulus"":""https://ziweizhang0304.github.io/Stats_learning_trig/img/Stim/FN_018_g.png"",""time"":4165},{""stimulus"":""blank"",""time"":4475}]","[{""key_press"":32,""rt"":2853,""stimulus"":""https://ziweizhang0304.github.io/Stats_learning_trig/img/Stim/FN_002_g.png""}]","418","https://ziweizhang0304.github.io/Stats_learning_trig/img/Stim/FN_016_g.png","post_TD","18","2435","2853","slow","7","3","5d5f07cdca10e90016bc0103","","","","","",""
"","image-keyboard-response","49","202169","0.0-5.0-18.0-0.0","602","","","https://ziweizhang0304.github.io/Stats_learning_trig/img/Stim/FN_016_g.png","13","","","","","","","","","","","","","","","","","",""
"","animation","50","206670","0.0-5.0-18.0-1.0","","","","","","[{""stimulus"":""https://ziweizhang0304.github.io/Stats_learning_trig/img/Stim/FN_010_g.png"",""time"":345},{""stimulus"":""blank"",""time"":654},{""stimulus"":""https://ziweizhang0304.github.io/Stats_learning_trig/img/Stim/FN_021_g.png"",""time"":688},{""stimulus"":""blank"",""time"":1004},{""stimulus"":""https://ziweizhang0304.github.io/Stats_learning_trig/img/Stim/FN_008_g.png"",""time"":1033},{""stimulus"":""blank"",""time"":1340},{""stimulus"":""https://ziweizhang0304.github.io/Stats_learning_trig/img/Stim/FN_004_g.png"",""time"":1385},{""stimulus"":""blank"",""time"":1686},{""stimulus"":""https://ziweizhang0304.github.io/Stats_learning_trig/img/Stim/FN_005_g.png"",""time"":1734},{""stimulus"":""blank"",""time"":2044},{""stimulus"":""https://ziweizhang0304.github.io/Stats_learning_trig/img/Stim/FN_016_g.png"",""time"":2076},{""stimulus"":""blank"",""time"":2380},{""stimulus"":""https://ziweizhang0304.github.io/Stats_learning_trig/img/Stim/FN_015_g.png"",""time"":2428},{""stimulus"":""blank"",""time"":2745},{""stimulus"":""https://ziweizhang0304.github.io/Stats_learning_trig/img/Stim/FN_002_g.png"",""time"":2777},{""stimulus"":""blank"",""time"":3087},{""stimulus"":""https://ziweizhang0304.github.io/Stats_learning_trig/img/Stim/FN_023_g.png"",""time"":3120},{""stimulus"":""blank"",""time"":3427},{""stimulus"":""https://ziweizhang0304.github.io/Stats_learning_trig/img/Stim/FN_019_g.png"",""time"":3462},{""stimulus"":""blank"",""time"":3767},{""stimulus"":""https://ziweizhang0304.github.io/Stats_learning_trig/img/Stim/FN_024_g.png"",""time"":3807},{""stimulus"":""blank"",""time"":4116},{""stimulus"":""https://ziweizhang0304.github.io/Stats_learning_trig/img/Stim/FN_018_g.png"",""time"":4162},{""stimulus"":""blank"",""time"":4467}]","[{""key_press"":32,""rt"":2633,""stimulus"":""https://ziweizhang0304.github.io/Stats_learning_trig/img/Stim/FN_015_g.png""}]","557","https://ziweizhang0304.github.io/Stats_learning_trig/img/Stim/FN_016_g.png","post_TD","19","2076","2633","slow","6","3","5d5f07cdca10e90016bc0103","","","","","",""
"","image-keyboard-response","51","207432","0.0-5.0-19.0-0.0","759","","","https://ziweizhang0304.github.io/Stats_learning_trig/img/Stim/FN_011_g.png","13","","","","","","","","","","","","","","","","","",""
"","animation","52","211958","0.0-5.0-19.0-1.0","","","","","","[{""stimulus"":""https://ziweizhang0304.github.io/Stats_learning_trig/img/Stim/FN_002_g.png"",""time"":352},{""stimulus"":""blank"",""time"":665},{""stimulus"":""https://ziweizhang0304.github.io/Stats_learning_trig/img/Stim/FN_019_g.png"",""time"":700},{""stimulus"":""blank"",""time"":1006},{""stimulus"":""https://ziweizhang0304.github.io/Stats_learning_trig/img/Stim/FN_008_g.png"",""time"":1050},{""stimulus"":""blank"",""time"":1355},{""stimulus"":""https://ziweizhang0304.github.io/Stats_learning_trig/img/Stim/FN_024_g.png"",""time"":1405},{""stimulus"":""blank"",""time"":1712},{""stimulus"":""https://ziweizhang0304.github.io/Stats_learning_trig/img/Stim/FN_023_g.png"",""time"":1757},{""stimulus"":""blank"",""time"":2062},{""stimulus"":""https://ziweizhang0304.github.io/Stats_learning_trig/img/Stim/FN_017_g.png"",""time"":2105},{""stimulus"":""blank"",""time"":2407},{""stimulus"":""https://ziweizhang0304.github.io/Stats_learning_trig/img/Stim/FN_011_g.png"",""time"":2459},{""stimulus"":""blank"",""time"":2770},{""stimulus"":""https://ziweizhang0304.github.io/Stats_learning_trig/img/Stim/FN_026_g.png"",""time"":2800},{""stimulus"":""blank"",""time"":3108},{""stimulus"":""https://ziweizhang0304.github.io/Stats_learning_trig/img/Stim/FN_015_g.png"",""time"":3140},{""stimulus"":""blank"",""time"":3451},{""stimulus"":""https://ziweizhang0304.github.io/Stats_learning_trig/img/Stim/FN_010_g.png"",""time"":3483},{""stimulus"":""blank"",""time"":3795},{""stimulus"":""https://ziweizhang0304.github.io/Stats_learning_trig/img/Stim/FN_021_g.png"",""time"":3829},{""stimulus"":""blank"",""time"":4135},{""stimulus"":""https://ziweizhang0304.github.io/Stats_learning_trig/img/Stim/FN_018_g.png"",""time"":4178},{""stimulus"":""blank"",""time"":4482}]","[{""key_press"":32,""rt"":2624,""stimulus"":""https://ziweizhang0304.github.io/Stats_learning_trig/img/Stim/FN_011_g.png""}]","165","https://ziweizhang0304.github.io/Stats_learning_trig/img/Stim/FN_011_g.png","post_TD","20","2459","2624","fast","7","2","5d5f07cdca10e90016bc0103","","","","","",""
"","image-keyboard-response","53","213178","0.0-5.0-20.0-0.0","1217","","","https://ziweizhang0304.github.io/Stats_learning_trig/img/Stim/FN_011_g.png","13","","","","","","","","","","","","","","","","","",""
"","animation","54","217662","0.0-5.0-20.0-1.0","","","","","","[{""stimulus"":""https://ziweizhang0304.github.io/Stats_learning_trig/img/Stim/FN_002_g.png"",""time"":351},{""stimulus"":""blank"",""time"":659},{""stimulus"":""https://ziweizhang0304.github.io/Stats_learning_trig/img/Stim/FN_019_g.png"",""time"":694},{""stimulus"":""blank"",""time"":1003},{""stimulus"":""https://ziweizhang0304.github.io/Stats_learning_trig/img/Stim/FN_024_g.png"",""time"":1035},{""stimulus"":""blank"",""time"":1345},{""stimulus"":""https://ziweizhang0304.github.io/Stats_learning_trig/img/Stim/FN_008_g.png"",""time"":1375},{""stimulus"":""blank"",""time"":1684},{""stimulus"":""https://ziweizhang0304.github.io/Stats_learning_trig/img/Stim/FN_018_g.png"",""time"":1719},{""stimulus"":""blank"",""time"":2021},{""stimulus"":""https://ziweizhang0304.github.io/Stats_learning_trig/img/Stim/FN_021_g.png"",""time"":2068},{""stimulus"":""blank"",""time"":2371},{""stimulus"":""https://ziweizhang0304.github.io/Stats_learning_trig/img/Stim/FN_017_g.png"",""time"":2415},{""stimulus"":""blank"",""time"":2729},{""stimulus"":""https://ziweizhang0304.github.io/Stats_learning_trig/img/Stim/FN_011_g.png"",""time"":2758},{""stimulus"":""blank"",""time"":3070},{""stimulus"":""https://ziweizhang0304.github.io/Stats_learning_trig/img/Stim/FN_026_g.png"",""time"":3099},{""stimulus"":""blank"",""time"":3410},{""stimulus"":""https://ziweizhang0304.github.io/Stats_learning_trig/img/Stim/FN_015_g.png"",""time"":3445},{""stimulus"":""blank"",""time"":3750},{""stimulus"":""https://ziweizhang0304.github.io/Stats_learning_trig/img/Stim/FN_023_g.png"",""time"":3798},{""stimulus"":""blank"",""time"":4107},{""stimulus"":""https://ziweizhang0304.github.io/Stats_learning_trig/img/Stim/FN_010_g.png"",""time"":4139},{""stimulus"":""blank"",""time"":4450}]","[{""key_press"":32,""rt"":3044,""stimulus"":""https://ziweizhang0304.github.io/Stats_learning_trig/img/Stim/FN_011_g.png""}]","286","https://ziweizhang0304.github.io/Stats_learning_trig/img/Stim/FN_011_g.png","post_TD","21","2758","3044","fast","8","2","5d5f07cdca10e90016bc0103","","","","","",""
"","image-keyboard-response","55","218783","0.0-5.0-21.0-0.0","1118","","","https://ziweizhang0304.github.io/Stats_learning_trig/img/Stim/FN_004_g.png","13","","","","","","","","","","","","","","","","","",""
"","animation","56","223306","0.0-5.0-21.0-1.0","","","","","","[{""stimulus"":""https://ziweizhang0304.github.io/Stats_learning_trig/img/Stim/FN_010_g.png"",""time"":346},{""stimulus"":""blank"",""time"":661},{""stimulus"":""https://ziweizhang0304.github.io/Stats_learning_trig/img/Stim/FN_021_g.png"",""time"":692},{""stimulus"":""blank"",""time"":993},{""stimulus"":""https://ziweizhang0304.github.io/Stats_learning_trig/img/Stim/FN_008_g.png"",""time"":1044},{""stimulus"":""blank"",""time"":1349},{""stimulus"":""https://ziweizhang0304.github.io/Stats_learning_trig/img/Stim/FN_004_g.png"",""time"":1384},{""stimulus"":""blank"",""time"":1685},{""stimulus"":""https://ziweizhang0304.github.io/Stats_learning_trig/img/Stim/FN_005_g.png"",""time"":1734},{""stimulus"":""blank"",""time"":2042},{""stimulus"":""https://ziweizhang0304.github.io/Stats_learning_trig/img/Stim/FN_016_g.png"",""time"":2086},{""stimulus"":""blank"",""time"":2393},{""stimulus"":""https://ziweizhang0304.github.io/Stats_learning_trig/img/Stim/FN_015_g.png"",""time"":2441},{""stimulus"":""blank"",""time"":2753},{""stimulus"":""https://ziweizhang0304.github.io/Stats_learning_trig/img/Stim/FN_002_g.png"",""time"":2784},{""stimulus"":""blank"",""time"":3100},{""stimulus"":""https://ziweizhang0304.github.io/Stats_learning_trig/img/Stim/FN_023_g.png"",""time"":3130},{""stimulus"":""blank"",""time"":3440},{""stimulus"":""https://ziweizhang0304.github.io/Stats_learning_trig/img/Stim/FN_019_g.png"",""time"":3474},{""stimulus"":""blank"",""time"":3780},{""stimulus"":""https://ziweizhang0304.github.io/Stats_learning_trig/img/Stim/FN_024_g.png"",""time"":3826},{""stimulus"":""blank"",""time"":4130},{""stimulus"":""https://ziweizhang0304.github.io/Stats_learning_trig/img/Stim/FN_018_g.png"",""time"":4176},{""stimulus"":""blank"",""time"":4490}]","[{""key_press"":32,""rt"":1827,""stimulus"":""https://ziweizhang0304.github.io/Stats_learning_trig/img/Stim/FN_005_g.png""}]","443","https://ziweizhang0304.github.io/Stats_learning_trig/img/Stim/FN_004_g.png","post_TD","22","1384","1827","slow","4","1","5d5f07cdca10e90016bc0103","","","","","",""
"","image-keyboard-response","57","224283","0.0-5.0-22.0-0.0","973","","","https://ziweizhang0304.github.io/Stats_learning_trig/img/Stim/FN_026_g.png","13","","","","","","","","","","","","","","","","","",""
"","animation","58","228790","0.0-5.0-22.0-1.0","","","","","","[{""stimulus"":""https://ziweizhang0304.github.io/Stats_learning_trig/img/Stim/FN_002_g.png"",""time"":347},{""stimulus"":""blank"",""time"":651},{""stimulus"":""https://ziweizhang0304.github.io/Stats_learning_trig/img/Stim/FN_019_g.png"",""time"":695},{""stimulus"":""blank"",""time"":1004},{""stimulus"":""https://ziweizhang0304.github.io/Stats_learning_trig/img/Stim/FN_008_g.png"",""time"":1035},{""stimulus"":""blank"",""time"":1346},{""stimulus"":""https://ziweizhang0304.github.io/Stats_learning_trig/img/Stim/FN_024_g.png"",""time"":1379},{""stimulus"":""blank"",""time"":1683},{""stimulus"":""https://ziweizhang0304.github.io/Stats_learning_trig/img/Stim/FN_023_g.png"",""time"":1734},{""stimulus"":""blank"",""time"":2051},{""stimulus"":""https://ziweizhang0304.github.io/Stats_learning_trig/img/Stim/FN_017_g.png"",""time"":2084},{""stimulus"":""blank"",""time"":2401},{""stimulus"":""https://ziweizhang0304.github.io/Stats_learning_trig/img/Stim/FN_011_g.png"",""time"":2434},{""stimulus"":""blank"",""time"":2743},{""stimulus"":""https://ziweizhang0304.github.io/Stats_learning_trig/img/Stim/FN_026_g.png"",""time"":2774},{""stimulus"":""blank"",""time"":3091},{""stimulus"":""https://ziweizhang0304.github.io/Stats_learning_trig/img/Stim/FN_015_g.png"",""time"":3122},{""stimulus"":""blank"",""time"":3424},{""stimulus"":""https://ziweizhang0304.github.io/Stats_learning_trig/img/Stim/FN_010_g.png"",""time"":3471},{""stimulus"":""blank"",""time"":3784},{""stimulus"":""https://ziweizhang0304.github.io/Stats_learning_trig/img/Stim/FN_021_g.png"",""time"":3817},{""stimulus"":""blank"",""time"":4130},{""stimulus"":""https://ziweizhang0304.github.io/Stats_learning_trig/img/Stim/FN_018_g.png"",""time"":4161},{""stimulus"":""blank"",""time"":4473}]","[{""key_press"":32,""rt"":1744,""stimulus"":""https://ziweizhang0304.github.io/Stats_learning_trig/img/Stim/FN_023_g.png""}]","NaN","https://ziweizhang0304.github.io/Stats_learning_trig/img/Stim/FN_026_g.png","post_TD","23","2774","","fast","8","3","5d5f07cdca10e90016bc0103","","","","","",""
"","image-keyboard-response","59","230261","0.0-5.0-23.0-0.0","1469","","","https://ziweizhang0304.github.io/Stats_learning_trig/img/Stim/FN_017_g.png","13","","","","","","","","","","","","","","","","","",""
"","animation","60","234782","0.0-5.0-23.0-1.0","","","","","","[{""stimulus"":""https://ziweizhang0304.github.io/Stats_learning_trig/img/Stim/FN_002_g.png"",""time"":342},{""stimulus"":""blank"",""time"":652},{""stimulus"":""https://ziweizhang0304.github.io/Stats_learning_trig/img/Stim/FN_019_g.png"",""time"":696},{""stimulus"":""blank"",""time"":1007},{""stimulus"":""https://ziweizhang0304.github.io/Stats_learning_trig/img/Stim/FN_024_g.png"",""time"":1042},{""stimulus"":""blank"",""time"":1354},{""stimulus"":""https://ziweizhang0304.github.io/Stats_learning_trig/img/Stim/FN_008_g.png"",""time"":1388},{""stimulus"":""blank"",""time"":1695},{""stimulus"":""https://ziweizhang0304.github.io/Stats_learning_trig/img/Stim/FN_018_g.png"",""time"":1732},{""stimulus"":""blank"",""time"":2036},{""stimulus"":""https://ziweizhang0304.github.io/Stats_learning_trig/img/Stim/FN_021_g.png"",""time"":2082},{""stimulus"":""blank"",""time"":2392},{""stimulus"":""https://ziweizhang0304.github.io/Stats_learning_trig/img/Stim/FN_017_g.png"",""time"":2423},{""stimulus"":""blank"",""time"":2732},{""stimulus"":""https://ziweizhang0304.github.io/Stats_learning_trig/img/Stim/FN_011_g.png"",""time"":2775},{""stimulus"":""blank"",""time"":3091},{""stimulus"":""https://ziweizhang0304.github.io/Stats_learning_trig/img/Stim/FN_026_g.png"",""time"":3119},{""stimulus"":""blank"",""time"":3426},{""stimulus"":""https://ziweizhang0304.github.io/Stats_learning_trig/img/Stim/FN_015_g.png"",""time"":3472},{""stimulus"":""blank"",""time"":3785},{""stimulus"":""https://ziweizhang0304.github.io/Stats_learning_trig/img/Stim/FN_023_g.png"",""time"":3819},{""stimulus"":""blank"",""time"":4124},{""stimulus"":""https://ziweizhang0304.github.io/Stats_learning_trig/img/Stim/FN_010_g.png"",""time"":4167},{""stimulus"":""blank"",""time"":4475}]","[{""key_press"":32,""rt"":2796,""stimulus"":""https://ziweizhang0304.github.io/Stats_learning_trig/img/Stim/FN_011_g.png""}]","373","https://ziweizhang0304.github.io/Stats_learning_trig/img/Stim/FN_017_g.png","post_TD","24","2423","2796","fast","7","1","5d5f07cdca10e90016bc0103","394a2","","","","",""
"","survey-text","61","245084","0.0-6.0","10285","","","","","","","","","","","","","","","","","","{""Q0"":""I did not use any strategies.""}","","","",""
"","survey-text","62","263424","0.0-7.0","18333","","","","","","","","","","","","","","","","","","{""[object Object]"":""I think they might have been going by in the same order each time but I'm not sure.""}","","","",""
"","instructions","63","274087","0.0-8.0","10663","","[{""page_index"":0,""viewing_time"":10663}]","","","","","","","","","","","","","","","","","","","",""
"","free-sort","64","287296","0.0-9.0","13207","","","","","","","","","post_drag","","","","fast","","","","","","[{""src"":""https://ziweizhang0304.github.io/Stats_learning_trig/img/Stim/FN_011_g.png"",""x"":475,""y"":0},{""src"":""https://ziweizhang0304.github.io/Stats_learning_trig/img/Stim/FN_017_g.png"",""x"":-225,""y"":50},{""src"":""https://ziweizhang0304.github.io/Stats_learning_trig/img/Stim/FN_026_g.png"",""x"":475,""y"":50}]","[{""src"":""https://ziweizhang0304.github.io/Stats_learning_trig/img/Stim/FN_017_g.png"",""x"":67,""y"":26},{""src"":""https://ziweizhang0304.github.io/Stats_learning_trig/img/Stim/FN_011_g.png"",""x"":159,""y"":22},{""src"":""https://ziweizhang0304.github.io/Stats_learning_trig/img/Stim/FN_026_g.png"",""x"":237,""y"":52}]","[{""src"":""https://ziweizhang0304.github.io/Stats_learning_trig/img/Stim/FN_011_g.png"",""x"":159,""y"":22},{""src"":""https://ziweizhang0304.github.io/Stats_learning_trig/img/Stim/FN_017_g.png"",""x"":67,""y"":26},{""src"":""https://ziweizhang0304.github.io/Stats_learning_trig/img/Stim/FN_026_g.png"",""x"":237,""y"":52}]",""
"","free-sort","65","299592","0.0-10.0","12295","","","","","","","","","post_drag","","","","slow","","","","","","[{""src"":""https://ziweizhang0304.github.io/Stats_learning_trig/img/Stim/FN_016_g.png"",""x"":475,""y"":0},{""src"":""https://ziweizhang0304.github.io/Stats_learning_trig/img/Stim/FN_004_g.png"",""x"":-225,""y"":50},{""src"":""https://ziweizhang0304.github.io/Stats_learning_trig/img/Stim/FN_005_g.png"",""x"":475,""y"":50}]","[{""src"":""https://ziweizhang0304.github.io/Stats_learning_trig/img/Stim/FN_004_g.png"",""x"":65,""y"":17},{""src"":""https://ziweizhang0304.github.io/Stats_learning_trig/img/Stim/FN_005_g.png"",""x"":100,""y"":19},{""src"":""https://ziweizhang0304.github.io/Stats_learning_trig/img/Stim/FN_005_g.png"",""x"":101,""y"":19},{""src"":""https://ziweizhang0304.github.io/Stats_learning_trig/img/Stim/FN_016_g.png"",""x"":162,""y"":25}]","[{""src"":""https://ziweizhang0304.github.io/Stats_learning_trig/img/Stim/FN_016_g.png"",""x"":162,""y"":25},{""src"":""https://ziweizhang0304.github.io/Stats_learning_trig/img/Stim/FN_004_g.png"",""x"":65,""y"":17},{""src"":""https://ziweizhang0304.github.io/Stats_learning_trig/img/Stim/FN_005_g.png"",""x"":101,""y"":19}]",""
"","survey-multi-choice","66","312864","0.0-11.0","13269","","","","","","","","","","","","","","","","5d5f07cdca10e90016bc0103","","{""awareness"":""Not sure"",""attention_check"":""Press SPACEBAR to a target""}","","","","[0,1]"
