"success","trial_type","trial_index","time_elapsed","internal_node_id","rt","url","view_history","stimulus","key_press","animation_sequence","response","TD_rt","TD_target","test_part","TD_trial_number","onset","offset","attention_state","TD_target_position","TD_within_triplet_counter","participant","yoke_participant","responses","init_locations","moves","final_locations","question_order"
"true","fullscreen","0","8922","0.0-0.0","","","","","","","","","","","","","","","","","","","","","","",""
"","external-html","1","12550","0.0-1.0","3553.5","https://ziweizhang0304.github.io/Stats_learning_trig/content/consent.html","","","","","","","","","","","","","","","","","","","","",""
"","instructions","2","169439","0.0-2.0","156887.69999999925","","[{""page_index"":0,""viewing_time"":3246.60000000149},{""page_index"":1,""viewing_time"":13461.79999999702},{""page_index"":2,""viewing_time"":12923.10000000149},{""page_index"":1,""viewing_time"":5934},{""page_index"":2,""viewing_time"":4905.800000000745},{""page_index"":3,""viewing_time"":116415.80000000075}]","","","","","","","","","","","","","","","","","","","",""
"","image-keyboard-response","3","176111","0.0-3.0-0.0-0.0","6670.39999999851","","","https://ziweizhang0304.github.io/Stats_learning_trig/img/Stim/FN_002_g.png","13","","","","","","","","","","","","","","","","","",""
"","animation","4","180533","0.0-3.0-0.0-1.0","","","","","","[{""stimulus"":""https://ziweizhang0304.github.io/Stats_learning_trig/img/Stim/FN_011_g.png"",""time"":361.5},{""stimulus"":""blank"",""time"":672},{""stimulus"":""https://ziweizhang0304.github.io/Stats_learning_trig/img/Stim/FN_005_g.png"",""time"":682.8999999985099},{""stimulus"":""blank"",""time"":994.6999999992549},{""stimulus"":""https://ziweizhang0304.github.io/Stats_learning_trig/img/Stim/FN_010_g.png"",""time"":1021.3999999985099},{""stimulus"":""blank"",""time"":1333.199999999255},{""stimulus"":""https://ziweizhang0304.github.io/Stats_learning_trig/img/Stim/FN_022_g.png"",""time"":1361.199999999255},{""stimulus"":""blank"",""time"":1674.800000000745},{""stimulus"":""https://ziweizhang0304.github.io/Stats_learning_trig/img/Stim/FN_007_g.png"",""time"":1702},{""stimulus"":""blank"",""time"":2012.1000000014901},{""stimulus"":""https://ziweizhang0304.github.io/Stats_learning_trig/img/Stim/FN_018_g.png"",""time"":2041.1000000014901},{""stimulus"":""blank"",""time"":2349.5},{""stimulus"":""https://ziweizhang0304.github.io/Stats_learning_trig/img/Stim/FN_023_g.png"",""time"":2382.199999999255},{""stimulus"":""blank"",""time"":2688.300000000745},{""stimulus"":""https://ziweizhang0304.github.io/Stats_learning_trig/img/Stim/FN_001_g.png"",""time"":2722.199999999255},{""stimulus"":""blank"",""time"":3026.699999999255},{""stimulus"":""https://ziweizhang0304.github.io/Stats_learning_trig/img/Stim/FN_019_g.png"",""time"":3062.300000000745},{""stimulus"":""blank"",""time"":3368.199999999255},{""stimulus"":""https://ziweizhang0304.github.io/Stats_learning_trig/img/Stim/FN_016_g.png"",""time"":3401.10000000149},{""stimulus"":""blank"",""time"":3707.199999999255},{""stimulus"":""https://ziweizhang0304.github.io/Stats_learning_trig/img/Stim/FN_002_g.png"",""time"":3744.300000000745},{""stimulus"":""blank"",""time"":4046.300000000745},{""stimulus"":""https://ziweizhang0304.github.io/Stats_learning_trig/img/Stim/FN_020_g.png"",""time"":4082},{""stimulus"":""blank"",""time"":4398.300000000745}]","[{""key_press"":32,""rt"":1786,""stimulus"":""https://ziweizhang0304.github.io/Stats_learning_trig/img/Stim/FN_007_g.png""},{""key_press"":32,""rt"":4074.60000000149,""stimulus"":""blank""}]","330.30000000074506","https://ziweizhang0304.github.io/Stats_learning_trig/img/Stim/FN_002_g.png","post_prac","","","","","","","","","","","","",""
"","html-keyboard-response","5","186940","0.0-3.0-0.0-2.0","6397.39999999851","","","<p>Your reaction time for this trial was 330.3 ms.</p><p>Remember that you should only press the SPACEBAR when you see the shape presented at the beginning of the trial. </b> </p><p>Press enter to move on.</p>","13","","","","","","","","","","","","","","","","","",""
"","image-keyboard-response","6","190012","0.0-3.0-1.0-0.0","3071.199999999255","","","https://ziweizhang0304.github.io/Stats_learning_trig/img/Stim/FN_002_g.png","13","","","","","","","","","","","","","","","","","",""
"","animation","7","194433","0.0-3.0-1.0-1.0","","","","","","[{""stimulus"":""https://ziweizhang0304.github.io/Stats_learning_trig/img/Stim/FN_016_g.png"",""time"":353.69999999925494},{""stimulus"":""blank"",""time"":660.1000000014901},{""stimulus"":""https://ziweizhang0304.github.io/Stats_learning_trig/img/Stim/FN_011_g.png"",""time"":681.5},{""stimulus"":""blank"",""time"":997.1999999992549},{""stimulus"":""https://ziweizhang0304.github.io/Stats_learning_trig/img/Stim/FN_022_g.png"",""time"":1021.5},{""stimulus"":""blank"",""time"":1336.3999999985099},{""stimulus"":""https://ziweizhang0304.github.io/Stats_learning_trig/img/Stim/FN_001_g.png"",""time"":1368.8999999985099},{""stimulus"":""blank"",""time"":1674.6000000014901},{""stimulus"":""https://ziweizhang0304.github.io/Stats_learning_trig/img/Stim/FN_020_g.png"",""time"":1701.300000000745},{""stimulus"":""blank"",""time"":2012.800000000745},{""stimulus"":""https://ziweizhang0304.github.io/Stats_learning_trig/img/Stim/FN_002_g.png"",""time"":2041.300000000745},{""stimulus"":""blank"",""time"":2352.199999999255},{""stimulus"":""https://ziweizhang0304.github.io/Stats_learning_trig/img/Stim/FN_018_g.png"",""time"":2383.300000000745},{""stimulus"":""blank"",""time"":2691},{""stimulus"":""https://ziweizhang0304.github.io/Stats_learning_trig/img/Stim/FN_010_g.png"",""time"":2721.300000000745},{""stimulus"":""blank"",""time"":3026.800000000745},{""stimulus"":""https://ziweizhang0304.github.io/Stats_learning_trig/img/Stim/FN_023_g.png"",""time"":3061.60000000149},{""stimulus"":""blank"",""time"":3365.10000000149},{""stimulus"":""https://ziweizhang0304.github.io/Stats_learning_trig/img/Stim/FN_019_g.png"",""time"":3401.699999999255},{""stimulus"":""blank"",""time"":3705.800000000745},{""stimulus"":""https://ziweizhang0304.github.io/Stats_learning_trig/img/Stim/FN_005_g.png"",""time"":3743.699999999255},{""stimulus"":""blank"",""time"":4046.800000000745},{""stimulus"":""https://ziweizhang0304.github.io/Stats_learning_trig/img/Stim/FN_007_g.png"",""time"":4092.39999999851},{""stimulus"":""blank"",""time"":4398.89999999851}]","[{""key_press"":32,""rt"":2457.099999997765,""stimulus"":""https://ziweizhang0304.github.io/Stats_learning_trig/img/Stim/FN_018_g.png""}]","415.79999999701977","https://ziweizhang0304.github.io/Stats_learning_trig/img/Stim/FN_002_g.png","post_prac","","","","","","","","","","","","",""
"","html-keyboard-response","8","196805","0.0-3.0-1.0-2.0","2368.199999999255","","","<p>Your reaction time for this trial was 415.8 ms.</p><p>Remember that you should only press the SPACEBAR when you see the shape presented at the beginning of the trial. </b> </p><p>Press enter to move on.</p>","13","","","","","","","","","","","","","","","","","",""
"","image-keyboard-response","9","198445","0.0-3.0-2.0-0.0","1639.3999999985099","","","https://ziweizhang0304.github.io/Stats_learning_trig/img/Stim/FN_002_g.png","13","","","","","","","","","","","","","","","","","",""
"","animation","10","202868","0.0-3.0-2.0-1.0","","","","","","[{""stimulus"":""https://ziweizhang0304.github.io/Stats_learning_trig/img/Stim/FN_019_g.png"",""time"":346.1000000014901},{""stimulus"":""blank"",""time"":652.7000000029802},{""stimulus"":""https://ziweizhang0304.github.io/Stats_learning_trig/img/Stim/FN_022_g.png"",""time"":681.4000000022352},{""stimulus"":""blank"",""time"":988.2000000029802},{""stimulus"":""https://ziweizhang0304.github.io/Stats_learning_trig/img/Stim/FN_005_g.png"",""time"":1021.5},{""stimulus"":""blank"",""time"":1326.800000000745},{""stimulus"":""https://ziweizhang0304.github.io/Stats_learning_trig/img/Stim/FN_007_g.png"",""time"":1362.2000000029802},{""stimulus"":""blank"",""time"":1670.9000000022352},{""stimulus"":""https://ziweizhang0304.github.io/Stats_learning_trig/img/Stim/FN_011_g.png"",""time"":1701.800000000745},{""stimulus"":""blank"",""time"":2009.9000000022352},{""stimulus"":""https://ziweizhang0304.github.io/Stats_learning_trig/img/Stim/FN_023_g.png"",""time"":2041.4000000022352},{""stimulus"":""blank"",""time"":2348.300000000745},{""stimulus"":""https://ziweizhang0304.github.io/Stats_learning_trig/img/Stim/FN_001_g.png"",""time"":2381.60000000149},{""stimulus"":""blank"",""time"":2686.10000000149},{""stimulus"":""https://ziweizhang0304.github.io/Stats_learning_trig/img/Stim/FN_020_g.png"",""time"":2721.7000000029802},{""stimulus"":""blank"",""time"":3024.5},{""stimulus"":""https://ziweizhang0304.github.io/Stats_learning_trig/img/Stim/FN_002_g.png"",""time"":3061.900000002235},{""stimulus"":""blank"",""time"":3364},{""stimulus"":""https://ziweizhang0304.github.io/Stats_learning_trig/img/Stim/FN_016_g.png"",""time"":3401.800000000745},{""stimulus"":""blank"",""time"":3716},{""stimulus"":""https://ziweizhang0304.github.io/Stats_learning_trig/img/Stim/FN_018_g.png"",""time"":3741.60000000149},{""stimulus"":""blank"",""time"":4053.60000000149},{""stimulus"":""https://ziweizhang0304.github.io/Stats_learning_trig/img/Stim/FN_010_g.png"",""time"":4081.10000000149},{""stimulus"":""blank"",""time"":4392.400000002235}]","[{""key_press"":32,""rt"":3386.5,""stimulus"":""blank""}]","324.5999999977648","https://ziweizhang0304.github.io/Stats_learning_trig/img/Stim/FN_002_g.png","post_prac","","","","","","","","","","","","",""
"","html-keyboard-response","11","204335","0.0-3.0-2.0-2.0","1463.5","","","<p>Your reaction time for this trial was 324.6 ms.</p><p>Remember that you should only press the SPACEBAR when you see the shape presented at the beginning of the trial. </b> </p><p>Press enter to move on.</p>","13","","","","","","","","","","","","","","","","","",""
"","instructions","12","206605","0.0-4.0","2269.900000002235","","[{""page_index"":0,""viewing_time"":2269.7000000029802}]","","","","","","","","","","","","","","","","","","","",""
"","image-keyboard-response","13","207681","0.0-5.0-0.0-0.0","1074.9000000022352","","","https://ziweizhang0304.github.io/Stats_learning_trig/img/Stim/FN_002_g.png","13","","","","","","","","","","","","","","","","","",""
"","animation","14","212103","0.0-5.0-0.0-1.0","","","","","","[{""stimulus"":""https://ziweizhang0304.github.io/Stats_learning_trig/img/Stim/FN_011_g.png"",""time"":346.3999999985099},{""stimulus"":""blank"",""time"":655.6999999992549},{""stimulus"":""https://ziweizhang0304.github.io/Stats_learning_trig/img/Stim/FN_005_g.png"",""time"":681.3999999985099},{""stimulus"":""blank"",""time"":992.3999999985099},{""stimulus"":""https://ziweizhang0304.github.io/Stats_learning_trig/img/Stim/FN_019_g.png"",""time"":1021.3999999985099},{""stimulus"":""blank"",""time"":1334.5999999977648},{""stimulus"":""https://ziweizhang0304.github.io/Stats_learning_trig/img/Stim/FN_023_g.png"",""time"":1365.5999999977648},{""stimulus"":""blank"",""time"":1673.800000000745},{""stimulus"":""https://ziweizhang0304.github.io/Stats_learning_trig/img/Stim/FN_001_g.png"",""time"":1702},{""stimulus"":""blank"",""time"":2011.5999999977648},{""stimulus"":""https://ziweizhang0304.github.io/Stats_learning_trig/img/Stim/FN_020_g.png"",""time"":2041.0999999977648},{""stimulus"":""blank"",""time"":2351.89999999851},{""stimulus"":""https://ziweizhang0304.github.io/Stats_learning_trig/img/Stim/FN_002_g.png"",""time"":2382},{""stimulus"":""blank"",""time"":2691.5},{""stimulus"":""https://ziweizhang0304.github.io/Stats_learning_trig/img/Stim/FN_016_g.png"",""time"":2721.5},{""stimulus"":""blank"",""time"":3031.5},{""stimulus"":""https://ziweizhang0304.github.io/Stats_learning_trig/img/Stim/FN_022_g.png"",""time"":3062.89999999851},{""stimulus"":""blank"",""time"":3373.39999999851},{""stimulus"":""https://ziweizhang0304.github.io/Stats_learning_trig/img/Stim/FN_018_g.png"",""time"":3401},{""stimulus"":""blank"",""time"":3712.39999999851},{""stimulus"":""https://ziweizhang0304.github.io/Stats_learning_trig/img/Stim/FN_010_g.png"",""time"":3741.300000000745},{""stimulus"":""blank"",""time"":4052.199999999255},{""stimulus"":""https://ziweizhang0304.github.io/Stats_learning_trig/img/Stim/FN_007_g.png"",""time"":4081.699999999255},{""stimulus"":""blank"",""time"":4390.300000000745}]","[{""key_press"":32,""rt"":2811,""stimulus"":""https://ziweizhang0304.github.io/Stats_learning_trig/img/Stim/FN_016_g.png""}]","429","https://ziweizhang0304.github.io/Stats_learning_trig/img/Stim/FN_002_g.png","post_TD","1","2382","2811","fast","7","3","623534a4823206b94cd659b3","","","","","",""
"","image-keyboard-response","15","214306","0.0-5.0-1.0-0.0","2199.199999999255","","","https://ziweizhang0304.github.io/Stats_learning_trig/img/Stim/FN_020_g.png","13","","","","","","","","","","","","","","","","","",""
"","animation","16","218727","0.0-5.0-1.0-1.0","","","","","","[{""stimulus"":""https://ziweizhang0304.github.io/Stats_learning_trig/img/Stim/FN_019_g.png"",""time"":349.5},{""stimulus"":""blank"",""time"":655.6999999992549},{""stimulus"":""https://ziweizhang0304.github.io/Stats_learning_trig/img/Stim/FN_022_g.png"",""time"":681.1999999992549},{""stimulus"":""blank"",""time"":996.1999999992549},{""stimulus"":""https://ziweizhang0304.github.io/Stats_learning_trig/img/Stim/FN_005_g.png"",""time"":1021.4000000022352},{""stimulus"":""blank"",""time"":1335.199999999255},{""stimulus"":""https://ziweizhang0304.github.io/Stats_learning_trig/img/Stim/FN_007_g.png"",""time"":1361.800000000745},{""stimulus"":""blank"",""time"":1673.9000000022352},{""stimulus"":""https://ziweizhang0304.github.io/Stats_learning_trig/img/Stim/FN_011_g.png"",""time"":1704.9000000022352},{""stimulus"":""blank"",""time"":2013.800000000745},{""stimulus"":""https://ziweizhang0304.github.io/Stats_learning_trig/img/Stim/FN_023_g.png"",""time"":2044.9000000022352},{""stimulus"":""blank"",""time"":2351},{""stimulus"":""https://ziweizhang0304.github.io/Stats_learning_trig/img/Stim/FN_001_g.png"",""time"":2381.5},{""stimulus"":""blank"",""time"":2692.300000000745},{""stimulus"":""https://ziweizhang0304.github.io/Stats_learning_trig/img/Stim/FN_020_g.png"",""time"":2723.800000000745},{""stimulus"":""blank"",""time"":3032.199999999255},{""stimulus"":""https://ziweizhang0304.github.io/Stats_learning_trig/img/Stim/FN_002_g.png"",""time"":3060.800000000745},{""stimulus"":""blank"",""time"":3373.5},{""stimulus"":""https://ziweizhang0304.github.io/Stats_learning_trig/img/Stim/FN_016_g.png"",""time"":3403.800000000745},{""stimulus"":""blank"",""time"":3711.5},{""stimulus"":""https://ziweizhang0304.github.io/Stats_learning_trig/img/Stim/FN_018_g.png"",""time"":3744},{""stimulus"":""blank"",""time"":4051.900000002235},{""stimulus"":""https://ziweizhang0304.github.io/Stats_learning_trig/img/Stim/FN_010_g.png"",""time"":4081.400000002235},{""stimulus"":""blank"",""time"":4393.400000002235}]","[{""key_press"":32,""rt"":3131.60000000149,""stimulus"":""https://ziweizhang0304.github.io/Stats_learning_trig/img/Stim/FN_002_g.png""}]","407.80000000074506","https://ziweizhang0304.github.io/Stats_learning_trig/img/Stim/FN_020_g.png","post_TD","2","2723.800000000745","3131.60000000149","fast","8","2","623534a4823206b94cd659b3","","","","","",""
"","image-keyboard-response","17","220288","0.0-5.0-2.0-0.0","1558.6000000014901","","","https://ziweizhang0304.github.io/Stats_learning_trig/img/Stim/FN_002_g.png","13","","","","","","","","","","","","","","","","","",""
"","animation","18","224710","0.0-5.0-2.0-1.0","","","","","","[{""stimulus"":""https://ziweizhang0304.github.io/Stats_learning_trig/img/Stim/FN_019_g.png"",""time"":353.79999999701977},{""stimulus"":""blank"",""time"":658.5},{""stimulus"":""https://ziweizhang0304.github.io/Stats_learning_trig/img/Stim/FN_022_g.png"",""time"":680.8999999985099},{""stimulus"":""blank"",""time"":995.6999999992549},{""stimulus"":""https://ziweizhang0304.github.io/Stats_learning_trig/img/Stim/FN_005_g.png"",""time"":1026.699999999255},{""stimulus"":""blank"",""time"":1334.699999999255},{""stimulus"":""https://ziweizhang0304.github.io/Stats_learning_trig/img/Stim/FN_007_g.png"",""time"":1361.2999999970198},{""stimulus"":""blank"",""time"":1673.5999999977648},{""stimulus"":""https://ziweizhang0304.github.io/Stats_learning_trig/img/Stim/FN_011_g.png"",""time"":1700.7999999970198},{""stimulus"":""blank"",""time"":2010.699999999255},{""stimulus"":""https://ziweizhang0304.github.io/Stats_learning_trig/img/Stim/FN_023_g.png"",""time"":2041.199999999255},{""stimulus"":""blank"",""time"":2349.2999999970198},{""stimulus"":""https://ziweizhang0304.github.io/Stats_learning_trig/img/Stim/FN_001_g.png"",""time"":2381},{""stimulus"":""blank"",""time"":2687.099999997765},{""stimulus"":""https://ziweizhang0304.github.io/Stats_learning_trig/img/Stim/FN_020_g.png"",""time"":2734.39999999851},{""stimulus"":""blank"",""time"":3042.39999999851},{""stimulus"":""https://ziweizhang0304.github.io/Stats_learning_trig/img/Stim/FN_002_g.png"",""time"":3060.7999999970198},{""stimulus"":""blank"",""time"":3361.7999999970198},{""stimulus"":""https://ziweizhang0304.github.io/Stats_learning_trig/img/Stim/FN_016_g.png"",""time"":3414.2999999970198},{""stimulus"":""blank"",""time"":3723.099999997765},{""stimulus"":""https://ziweizhang0304.github.io/Stats_learning_trig/img/Stim/FN_018_g.png"",""time"":3741.199999999255},{""stimulus"":""blank"",""time"":4045.39999999851},{""stimulus"":""https://ziweizhang0304.github.io/Stats_learning_trig/img/Stim/FN_010_g.png"",""time"":4081.099999997765},{""stimulus"":""blank"",""time"":4383.599999997765}]","[{""key_press"":32,""rt"":2792.2999999970198,""stimulus"":""https://ziweizhang0304.github.io/Stats_learning_trig/img/Stim/FN_020_g.png""},{""key_press"":32,""rt"":3338.2999999970198,""stimulus"":""https://ziweizhang0304.github.io/Stats_learning_trig/img/Stim/FN_002_g.png""}]","277.5","https://ziweizhang0304.github.io/Stats_learning_trig/img/Stim/FN_002_g.png","post_TD","3","3060.7999999970198","3338.2999999970198","fast","9","3","623534a4823206b94cd659b3","","","","","",""
"","image-keyboard-response","19","226933","0.0-5.0-3.0-0.0","2220.39999999851","","","https://ziweizhang0304.github.io/Stats_learning_trig/img/Stim/FN_012_g.png","13","","","","","","","","","","","","","","","","","",""
"","animation","20","231355","0.0-5.0-3.0-1.0","","","","","","[{""stimulus"":""https://ziweizhang0304.github.io/Stats_learning_trig/img/Stim/FN_018_g.png"",""time"":353.5999999977648},{""stimulus"":""blank"",""time"":659.6999999992549},{""stimulus"":""https://ziweizhang0304.github.io/Stats_learning_trig/img/Stim/FN_022_g.png"",""time"":681.6999999992549},{""stimulus"":""blank"",""time"":983.2999999970198},{""stimulus"":""https://ziweizhang0304.github.io/Stats_learning_trig/img/Stim/FN_011_g.png"",""time"":1021.8999999985099},{""stimulus"":""blank"",""time"":1322.8999999985099},{""stimulus"":""https://ziweizhang0304.github.io/Stats_learning_trig/img/Stim/FN_016_g.png"",""time"":1371.8999999985099},{""stimulus"":""blank"",""time"":1681.8999999985099},{""stimulus"":""https://ziweizhang0304.github.io/Stats_learning_trig/img/Stim/FN_026_g.png"",""time"":1702.199999999255},{""stimulus"":""blank"",""time"":2004.0999999977648},{""stimulus"":""https://ziweizhang0304.github.io/Stats_learning_trig/img/Stim/FN_012_g.png"",""time"":2041.699999999255},{""stimulus"":""blank"",""time"":2343.599999997765},{""stimulus"":""https://ziweizhang0304.github.io/Stats_learning_trig/img/Stim/FN_014_g.png"",""time"":2381.599999997765},{""stimulus"":""blank"",""time"":2696.89999999851},{""stimulus"":""https://ziweizhang0304.github.io/Stats_learning_trig/img/Stim/FN_010_g.png"",""time"":2721.89999999851},{""stimulus"":""blank"",""time"":3034.099999997765},{""stimulus"":""https://ziweizhang0304.github.io/Stats_learning_trig/img/Stim/FN_023_g.png"",""time"":3061.599999997765},{""stimulus"":""blank"",""time"":3373.5},{""stimulus"":""https://ziweizhang0304.github.io/Stats_learning_trig/img/Stim/FN_019_g.png"",""time"":3401.199999999255},{""stimulus"":""blank"",""time"":3715.39999999851},{""stimulus"":""https://ziweizhang0304.github.io/Stats_learning_trig/img/Stim/FN_005_g.png"",""time"":3741.599999997765},{""stimulus"":""blank"",""time"":4057.199999999255},{""stimulus"":""https://ziweizhang0304.github.io/Stats_learning_trig/img/Stim/FN_007_g.png"",""time"":4082.2999999970198},{""stimulus"":""blank"",""time"":4396.79999999702}]","[{""key_press"":32,""rt"":2704.599999997765,""stimulus"":""blank""}]","662.8999999985099","https://ziweizhang0304.github.io/Stats_learning_trig/img/Stim/FN_012_g.png","post_TD","4","2041.699999999255","2704.599999997765","slow","6","2","623534a4823206b94cd659b3","","","","","",""
"","image-keyboard-response","21","235427","0.0-5.0-4.0-0.0","4069","","","https://ziweizhang0304.github.io/Stats_learning_trig/img/Stim/FN_012_g.png","13","","","","","","","","","","","","","","","","","",""
"","animation","22","239848","0.0-5.0-4.0-1.0","","","","","","[{""stimulus"":""https://ziweizhang0304.github.io/Stats_learning_trig/img/Stim/FN_010_g.png"",""time"":345.5},{""stimulus"":""blank"",""time"":655.5999999977648},{""stimulus"":""https://ziweizhang0304.github.io/Stats_learning_trig/img/Stim/FN_005_g.png"",""time"":681.1999999992549},{""stimulus"":""blank"",""time"":996.0999999977648},{""stimulus"":""https://ziweizhang0304.github.io/Stats_learning_trig/img/Stim/FN_011_g.png"",""time"":1021.6999999992549},{""stimulus"":""blank"",""time"":1336.199999999255},{""stimulus"":""https://ziweizhang0304.github.io/Stats_learning_trig/img/Stim/FN_023_g.png"",""time"":1361},{""stimulus"":""blank"",""time"":1676.800000000745},{""stimulus"":""https://ziweizhang0304.github.io/Stats_learning_trig/img/Stim/FN_022_g.png"",""time"":1701.300000000745},{""stimulus"":""blank"",""time"":2002.5999999977648},{""stimulus"":""https://ziweizhang0304.github.io/Stats_learning_trig/img/Stim/FN_018_g.png"",""time"":2041.300000000745},{""stimulus"":""blank"",""time"":2342.5},{""stimulus"":""https://ziweizhang0304.github.io/Stats_learning_trig/img/Stim/FN_026_g.png"",""time"":2381.199999999255},{""stimulus"":""blank"",""time"":2687.89999999851},{""stimulus"":""https://ziweizhang0304.github.io/Stats_learning_trig/img/Stim/FN_012_g.png"",""time"":2727.5},{""stimulus"":""blank"",""time"":3028.800000000745},{""stimulus"":""https://ziweizhang0304.github.io/Stats_learning_trig/img/Stim/FN_014_g.png"",""time"":3061.199999999255},{""stimulus"":""blank"",""time"":3367.5},{""stimulus"":""https://ziweizhang0304.github.io/Stats_learning_trig/img/Stim/FN_016_g.png"",""time"":3402.199999999255},{""stimulus"":""blank"",""time"":3707},{""stimulus"":""https://ziweizhang0304.github.io/Stats_learning_trig/img/Stim/FN_019_g.png"",""time"":3741.599999997765},{""stimulus"":""blank"",""time"":4045.599999997765},{""stimulus"":""https://ziweizhang0304.github.io/Stats_learning_trig/img/Stim/FN_007_g.png"",""time"":4093.599999997765},{""stimulus"":""blank"",""time"":4400.5}]","[{""key_press"":32,""rt"":2380.599999997765,""stimulus"":""blank""},{""key_press"":32,""rt"":3163.599999997765,""stimulus"":""https://ziweizhang0304.github.io/Stats_learning_trig/img/Stim/FN_014_g.png""}]","436.0999999977648","https://ziweizhang0304.github.io/Stats_learning_trig/img/Stim/FN_012_g.png","post_TD","5","2727.5","3163.599999997765","slow","8","2","623534a4823206b94cd659b3","","","","","",""
"","image-keyboard-response","23","240937","0.0-5.0-5.0-0.0","1085.7999999970198","","","https://ziweizhang0304.github.io/Stats_learning_trig/img/Stim/FN_020_g.png","13","","","","","","","","","","","","","","","","","",""
"","animation","24","245359","0.0-5.0-5.0-1.0","","","","","","[{""stimulus"":""https://ziweizhang0304.github.io/Stats_learning_trig/img/Stim/FN_016_g.png"",""time"":350.5999999977648},{""stimulus"":""blank"",""time"":657.1999999992549},{""stimulus"":""https://ziweizhang0304.github.io/Stats_learning_trig/img/Stim/FN_011_g.png"",""time"":682.8000000007451},{""stimulus"":""blank"",""time"":995.8000000007451},{""stimulus"":""https://ziweizhang0304.github.io/Stats_learning_trig/img/Stim/FN_022_g.png"",""time"":1021.3000000007451},{""stimulus"":""blank"",""time"":1333.8999999985099},{""stimulus"":""https://ziweizhang0304.github.io/Stats_learning_trig/img/Stim/FN_001_g.png"",""time"":1361.3999999985099},{""stimulus"":""blank"",""time"":1671.5999999977648},{""stimulus"":""https://ziweizhang0304.github.io/Stats_learning_trig/img/Stim/FN_020_g.png"",""time"":1701},{""stimulus"":""blank"",""time"":2013.0999999977648},{""stimulus"":""https://ziweizhang0304.github.io/Stats_learning_trig/img/Stim/FN_002_g.png"",""time"":2041.5999999977648},{""stimulus"":""blank"",""time"":2350.599999997765},{""stimulus"":""https://ziweizhang0304.github.io/Stats_learning_trig/img/Stim/FN_018_g.png"",""time"":2381.099999997765},{""stimulus"":""blank"",""time"":2689.39999999851},{""stimulus"":""https://ziweizhang0304.github.io/Stats_learning_trig/img/Stim/FN_010_g.png"",""time"":2721.199999999255},{""stimulus"":""blank"",""time"":3030.39999999851},{""stimulus"":""https://ziweizhang0304.github.io/Stats_learning_trig/img/Stim/FN_023_g.png"",""time"":3061.099999997765},{""stimulus"":""blank"",""time"":3368.699999999255},{""stimulus"":""https://ziweizhang0304.github.io/Stats_learning_trig/img/Stim/FN_019_g.png"",""time"":3401.199999999255},{""stimulus"":""blank"",""time"":3708.5},{""stimulus"":""https://ziweizhang0304.github.io/Stats_learning_trig/img/Stim/FN_005_g.png"",""time"":3755.300000000745},{""stimulus"":""blank"",""time"":4062.099999997765},{""stimulus"":""https://ziweizhang0304.github.io/Stats_learning_trig/img/Stim/FN_007_g.png"",""time"":4081.5},{""stimulus"":""blank"",""time"":4386.099999997765}]","[{""key_press"":32,""rt"":2104.7000000029802,""stimulus"":""https://ziweizhang0304.github.io/Stats_learning_trig/img/Stim/FN_002_g.png""}]","403.70000000298023","https://ziweizhang0304.github.io/Stats_learning_trig/img/Stim/FN_020_g.png","post_TD","6","1701","2104.7000000029802","fast","5","2","623534a4823206b94cd659b3","","","","","",""
"","image-keyboard-response","25","246144","0.0-5.0-6.0-0.0","782.4000000022352","","","https://ziweizhang0304.github.io/Stats_learning_trig/img/Stim/FN_014_g.png","13","","","","","","","","","","","","","","","","","",""
"","animation","26","250566","0.0-5.0-6.0-1.0","","","","","","[{""stimulus"":""https://ziweizhang0304.github.io/Stats_learning_trig/img/Stim/FN_010_g.png"",""time"":352.8999999985099},{""stimulus"":""blank"",""time"":658.7999999970198},{""stimulus"":""https://ziweizhang0304.github.io/Stats_learning_trig/img/Stim/FN_005_g.png"",""time"":681.3999999985099},{""stimulus"":""blank"",""time"":997.2999999970198},{""stimulus"":""https://ziweizhang0304.github.io/Stats_learning_trig/img/Stim/FN_011_g.png"",""time"":1021.3999999985099},{""stimulus"":""blank"",""time"":1336},{""stimulus"":""https://ziweizhang0304.github.io/Stats_learning_trig/img/Stim/FN_023_g.png"",""time"":1360.7999999970198},{""stimulus"":""blank"",""time"":1674.8999999985099},{""stimulus"":""https://ziweizhang0304.github.io/Stats_learning_trig/img/Stim/FN_022_g.png"",""time"":1701.3999999985099},{""stimulus"":""blank"",""time"":2003.199999999255},{""stimulus"":""https://ziweizhang0304.github.io/Stats_learning_trig/img/Stim/FN_018_g.png"",""time"":2041.2999999970198},{""stimulus"":""blank"",""time"":2347.5},{""stimulus"":""https://ziweizhang0304.github.io/Stats_learning_trig/img/Stim/FN_026_g.png"",""time"":2380.599999997765},{""stimulus"":""blank"",""time"":2690},{""stimulus"":""https://ziweizhang0304.github.io/Stats_learning_trig/img/Stim/FN_012_g.png"",""time"":2722},{""stimulus"":""blank"",""time"":3029},{""stimulus"":""https://ziweizhang0304.github.io/Stats_learning_trig/img/Stim/FN_014_g.png"",""time"":3061},{""stimulus"":""blank"",""time"":3373.5},{""stimulus"":""https://ziweizhang0304.github.io/Stats_learning_trig/img/Stim/FN_016_g.png"",""time"":3404.7999999970198},{""stimulus"":""blank"",""time"":3713.7999999970198},{""stimulus"":""https://ziweizhang0304.github.io/Stats_learning_trig/img/Stim/FN_019_g.png"",""time"":3742.39999999851},{""stimulus"":""blank"",""time"":4058.199999999255},{""stimulus"":""https://ziweizhang0304.github.io/Stats_learning_trig/img/Stim/FN_007_g.png"",""time"":4081.599999997765},{""stimulus"":""blank"",""time"":4382.599999997765}]","[{""key_press"":32,""rt"":3453.60000000149,""stimulus"":""https://ziweizhang0304.github.io/Stats_learning_trig/img/Stim/FN_016_g.png""}]","392.6000000014901","https://ziweizhang0304.github.io/Stats_learning_trig/img/Stim/FN_014_g.png","post_TD","7","3061","3453.60000000149","slow","9","3","623534a4823206b94cd659b3","","","","","",""
"","image-keyboard-response","27","251848","0.0-5.0-7.0-0.0","1278.300000000745","","","https://ziweizhang0304.github.io/Stats_learning_trig/img/Stim/FN_014_g.png","13","","","","","","","","","","","","","","","","","",""
"","animation","28","256269","0.0-5.0-7.0-1.0","","","","","","[{""stimulus"":""https://ziweizhang0304.github.io/Stats_learning_trig/img/Stim/FN_023_g.png"",""time"":350.8999999985099},{""stimulus"":""blank"",""time"":658},{""stimulus"":""https://ziweizhang0304.github.io/Stats_learning_trig/img/Stim/FN_010_g.png"",""time"":681.5},{""stimulus"":""blank"",""time"":982.6999999992549},{""stimulus"":""https://ziweizhang0304.github.io/Stats_learning_trig/img/Stim/FN_022_g.png"",""time"":1021.5999999977648},{""stimulus"":""blank"",""time"":1323.0999999977648},{""stimulus"":""https://ziweizhang0304.github.io/Stats_learning_trig/img/Stim/FN_018_g.png"",""time"":1361.5999999977648},{""stimulus"":""blank"",""time"":1663},{""stimulus"":""https://ziweizhang0304.github.io/Stats_learning_trig/img/Stim/FN_011_g.png"",""time"":1710.300000000745},{""stimulus"":""blank"",""time"":2018.300000000745},{""stimulus"":""https://ziweizhang0304.github.io/Stats_learning_trig/img/Stim/FN_026_g.png"",""time"":2040.8999999985099},{""stimulus"":""blank"",""time"":2356.599999997765},{""stimulus"":""https://ziweizhang0304.github.io/Stats_learning_trig/img/Stim/FN_012_g.png"",""time"":2381.199999999255},{""stimulus"":""blank"",""time"":2694.599999997765},{""stimulus"":""https://ziweizhang0304.github.io/Stats_learning_trig/img/Stim/FN_014_g.png"",""time"":2721.800000000745},{""stimulus"":""blank"",""time"":3034.099999997765},{""stimulus"":""https://ziweizhang0304.github.io/Stats_learning_trig/img/Stim/FN_016_g.png"",""time"":3061.300000000745},{""stimulus"":""blank"",""time"":3371.699999999255},{""stimulus"":""https://ziweizhang0304.github.io/Stats_learning_trig/img/Stim/FN_019_g.png"",""time"":3404.300000000745},{""stimulus"":""blank"",""time"":3711.89999999851},{""stimulus"":""https://ziweizhang0304.github.io/Stats_learning_trig/img/Stim/FN_005_g.png"",""time"":3744.39999999851},{""stimulus"":""blank"",""time"":4051.599999997765},{""stimulus"":""https://ziweizhang0304.github.io/Stats_learning_trig/img/Stim/FN_007_g.png"",""time"":4081.199999999255},{""stimulus"":""blank"",""time"":4389.099999997765}]","[{""key_press"":32,""rt"":3045.300000000745,""stimulus"":""blank""}]","323.5","https://ziweizhang0304.github.io/Stats_learning_trig/img/Stim/FN_014_g.png","post_TD","8","2721.800000000745","3045.300000000745","slow","8","3","623534a4823206b94cd659b3","","","","","",""
"","image-keyboard-response","29","256956","0.0-5.0-8.0-0.0","683.3000000007451","","","https://ziweizhang0304.github.io/Stats_learning_trig/img/Stim/FN_001_g.png","13","","","","","","","","","","","","","","","","","",""
"","animation","30","261377","0.0-5.0-8.0-1.0","","","","","","[{""stimulus"":""https://ziweizhang0304.github.io/Stats_learning_trig/img/Stim/FN_016_g.png"",""time"":343.19999999925494},{""stimulus"":""blank"",""time"":648.6999999992549},{""stimulus"":""https://ziweizhang0304.github.io/Stats_learning_trig/img/Stim/FN_011_g.png"",""time"":681.5},{""stimulus"":""blank"",""time"":987},{""stimulus"":""https://ziweizhang0304.github.io/Stats_learning_trig/img/Stim/FN_022_g.png"",""time"":1021},{""stimulus"":""blank"",""time"":1326.0999999977648},{""stimulus"":""https://ziweizhang0304.github.io/Stats_learning_trig/img/Stim/FN_001_g.png"",""time"":1361.199999999255},{""stimulus"":""blank"",""time"":1663.3999999985099},{""stimulus"":""https://ziweizhang0304.github.io/Stats_learning_trig/img/Stim/FN_020_g.png"",""time"":1703.8999999985099},{""stimulus"":""blank"",""time"":2018.5},{""stimulus"":""https://ziweizhang0304.github.io/Stats_learning_trig/img/Stim/FN_002_g.png"",""time"":2041.3999999985099},{""stimulus"":""blank"",""time"":2343},{""stimulus"":""https://ziweizhang0304.github.io/Stats_learning_trig/img/Stim/FN_018_g.png"",""time"":2381.699999999255},{""stimulus"":""blank"",""time"":2684.2999999970198},{""stimulus"":""https://ziweizhang0304.github.io/Stats_learning_trig/img/Stim/FN_010_g.png"",""time"":2722.099999997765},{""stimulus"":""blank"",""time"":3025.599999997765},{""stimulus"":""https://ziweizhang0304.github.io/Stats_learning_trig/img/Stim/FN_023_g.png"",""time"":3061.699999999255},{""stimulus"":""blank"",""time"":3366.39999999851},{""stimulus"":""https://ziweizhang0304.github.io/Stats_learning_trig/img/Stim/FN_019_g.png"",""time"":3401.39999999851},{""stimulus"":""blank"",""time"":3705.199999999255},{""stimulus"":""https://ziweizhang0304.github.io/Stats_learning_trig/img/Stim/FN_005_g.png"",""time"":3741.099999997765},{""stimulus"":""blank"",""time"":4045.39999999851},{""stimulus"":""https://ziweizhang0304.github.io/Stats_learning_trig/img/Stim/FN_007_g.png"",""time"":4081.39999999851},{""stimulus"":""blank"",""time"":4384.199999999255}]","[{""key_press"":32,""rt"":1702.6000000014901,""stimulus"":""blank""}]","341.4000000022352","https://ziweizhang0304.github.io/Stats_learning_trig/img/Stim/FN_001_g.png","post_TD","9","1361.199999999255","1702.6000000014901","fast","4","1","623534a4823206b94cd659b3","","","","","",""
"","image-keyboard-response","31","262303","0.0-5.0-9.0-0.0","923.5","","","https://ziweizhang0304.github.io/Stats_learning_trig/img/Stim/FN_026_g.png","13","","","","","","","","","","","","","","","","","",""
"","animation","32","266725","0.0-5.0-9.0-1.0","","","","","","[{""stimulus"":""https://ziweizhang0304.github.io/Stats_learning_trig/img/Stim/FN_010_g.png"",""time"":351},{""stimulus"":""blank"",""time"":658.8000000007451},{""stimulus"":""https://ziweizhang0304.github.io/Stats_learning_trig/img/Stim/FN_005_g.png"",""time"":681.4000000022352},{""stimulus"":""blank"",""time"":983.3000000007451},{""stimulus"":""https://ziweizhang0304.github.io/Stats_learning_trig/img/Stim/FN_011_g.png"",""time"":1029.9000000022352},{""stimulus"":""blank"",""time"":1337.4000000022352},{""stimulus"":""https://ziweizhang0304.github.io/Stats_learning_trig/img/Stim/FN_023_g.png"",""time"":1361},{""stimulus"":""blank"",""time"":1674.2000000029802},{""stimulus"":""https://ziweizhang0304.github.io/Stats_learning_trig/img/Stim/FN_022_g.png"",""time"":1701.1000000014901},{""stimulus"":""blank"",""time"":2012.5},{""stimulus"":""https://ziweizhang0304.github.io/Stats_learning_trig/img/Stim/FN_018_g.png"",""time"":2043.9000000022352},{""stimulus"":""blank"",""time"":2352.60000000149},{""stimulus"":""https://ziweizhang0304.github.io/Stats_learning_trig/img/Stim/FN_026_g.png"",""time"":2381},{""stimulus"":""blank"",""time"":2688.5},{""stimulus"":""https://ziweizhang0304.github.io/Stats_learning_trig/img/Stim/FN_012_g.png"",""time"":2721.300000000745},{""stimulus"":""blank"",""time"":3034.5},{""stimulus"":""https://ziweizhang0304.github.io/Stats_learning_trig/img/Stim/FN_014_g.png"",""time"":3061.60000000149},{""stimulus"":""blank"",""time"":3364.800000000745},{""stimulus"":""https://ziweizhang0304.github.io/Stats_learning_trig/img/Stim/FN_016_g.png"",""time"":3401.5},{""stimulus"":""blank"",""time"":3703.7000000029802},{""stimulus"":""https://ziweizhang0304.github.io/Stats_learning_trig/img/Stim/FN_019_g.png"",""time"":3751.300000000745},{""stimulus"":""blank"",""time"":4057.60000000149},{""stimulus"":""https://ziweizhang0304.github.io/Stats_learning_trig/img/Stim/FN_007_g.png"",""time"":4081},{""stimulus"":""blank"",""time"":4382.300000000745}]","[{""key_press"":32,""rt"":2808.400000002235,""stimulus"":""https://ziweizhang0304.github.io/Stats_learning_trig/img/Stim/FN_012_g.png""}]","427.4000000022352","https://ziweizhang0304.github.io/Stats_learning_trig/img/Stim/FN_026_g.png","post_TD","10","2381","2808.400000002235","slow","7","1","623534a4823206b94cd659b3","","","","","",""
"","image-keyboard-response","33","267383","0.0-5.0-10.0-0.0","655","","","https://ziweizhang0304.github.io/Stats_learning_trig/img/Stim/FN_001_g.png","13","","","","","","","","","","","","","","","","","",""
"","animation","34","271804","0.0-5.0-10.0-1.0","","","","","","[{""stimulus"":""https://ziweizhang0304.github.io/Stats_learning_trig/img/Stim/FN_018_g.png"",""time"":353.30000000074506},{""stimulus"":""blank"",""time"":659.1999999992549},{""stimulus"":""https://ziweizhang0304.github.io/Stats_learning_trig/img/Stim/FN_007_g.png"",""time"":681.3000000007451},{""stimulus"":""blank"",""time"":996},{""stimulus"":""https://ziweizhang0304.github.io/Stats_learning_trig/img/Stim/FN_023_g.png"",""time"":1021.6000000014901},{""stimulus"":""blank"",""time"":1333.1000000014901},{""stimulus"":""https://ziweizhang0304.github.io/Stats_learning_trig/img/Stim/FN_005_g.png"",""time"":1364.300000000745},{""stimulus"":""blank"",""time"":1672.1000000014901},{""stimulus"":""https://ziweizhang0304.github.io/Stats_learning_trig/img/Stim/FN_010_g.png"",""time"":1701.3999999985099},{""stimulus"":""blank"",""time"":2010.6000000014901},{""stimulus"":""https://ziweizhang0304.github.io/Stats_learning_trig/img/Stim/FN_001_g.png"",""time"":2041},{""stimulus"":""blank"",""time"":2350.5},{""stimulus"":""https://ziweizhang0304.github.io/Stats_learning_trig/img/Stim/FN_020_g.png"",""time"":2382.199999999255},{""stimulus"":""blank"",""time"":2690.800000000745},{""stimulus"":""https://ziweizhang0304.github.io/Stats_learning_trig/img/Stim/FN_002_g.png"",""time"":2721.300000000745},{""stimulus"":""blank"",""time"":3029.89999999851},{""stimulus"":""https://ziweizhang0304.github.io/Stats_learning_trig/img/Stim/FN_016_g.png"",""time"":3076.800000000745},{""stimulus"":""blank"",""time"":3384.300000000745},{""stimulus"":""https://ziweizhang0304.github.io/Stats_learning_trig/img/Stim/FN_011_g.png"",""time"":3401},{""stimulus"":""blank"",""time"":3708.300000000745},{""stimulus"":""https://ziweizhang0304.github.io/Stats_learning_trig/img/Stim/FN_022_g.png"",""time"":3741},{""stimulus"":""blank"",""time"":4047.60000000149},{""stimulus"":""https://ziweizhang0304.github.io/Stats_learning_trig/img/Stim/FN_019_g.png"",""time"":4081.60000000149},{""stimulus"":""blank"",""time"":4388.199999999255}]","[{""key_press"":32,""rt"":2539.5,""stimulus"":""https://ziweizhang0304.github.io/Stats_learning_trig/img/Stim/FN_020_g.png""}]","498.5","https://ziweizhang0304.github.io/Stats_learning_trig/img/Stim/FN_001_g.png","post_TD","11","2041","2539.5","fast","6","1","623534a4823206b94cd659b3","","","","","",""
"","image-keyboard-response","35","272472","0.0-5.0-11.0-0.0","664.5","","","https://ziweizhang0304.github.io/Stats_learning_trig/img/Stim/FN_020_g.png","13","","","","","","","","","","","","","","","","","",""
"","animation","36","276894","0.0-5.0-11.0-1.0","","","","","","[{""stimulus"":""https://ziweizhang0304.github.io/Stats_learning_trig/img/Stim/FN_011_g.png"",""time"":341.3999999985099},{""stimulus"":""blank"",""time"":653},{""stimulus"":""https://ziweizhang0304.github.io/Stats_learning_trig/img/Stim/FN_005_g.png"",""time"":681.1999999992549},{""stimulus"":""blank"",""time"":990.8000000007451},{""stimulus"":""https://ziweizhang0304.github.io/Stats_learning_trig/img/Stim/FN_019_g.png"",""time"":1022.6999999992549},{""stimulus"":""blank"",""time"":1334.8999999985099},{""stimulus"":""https://ziweizhang0304.github.io/Stats_learning_trig/img/Stim/FN_023_g.png"",""time"":1361.5},{""stimulus"":""blank"",""time"":1676.699999999255},{""stimulus"":""https://ziweizhang0304.github.io/Stats_learning_trig/img/Stim/FN_001_g.png"",""time"":1700.800000000745},{""stimulus"":""blank"",""time"":2003.1000000014901},{""stimulus"":""https://ziweizhang0304.github.io/Stats_learning_trig/img/Stim/FN_020_g.png"",""time"":2041.699999999255},{""stimulus"":""blank"",""time"":2346.10000000149},{""stimulus"":""https://ziweizhang0304.github.io/Stats_learning_trig/img/Stim/FN_002_g.png"",""time"":2394.199999999255},{""stimulus"":""blank"",""time"":2704.10000000149},{""stimulus"":""https://ziweizhang0304.github.io/Stats_learning_trig/img/Stim/FN_016_g.png"",""time"":2721.699999999255},{""stimulus"":""blank"",""time"":3027},{""stimulus"":""https://ziweizhang0304.github.io/Stats_learning_trig/img/Stim/FN_022_g.png"",""time"":3061.60000000149},{""stimulus"":""blank"",""time"":3372.89999999851},{""stimulus"":""https://ziweizhang0304.github.io/Stats_learning_trig/img/Stim/FN_018_g.png"",""time"":3401.89999999851},{""stimulus"":""blank"",""time"":3714.699999999255},{""stimulus"":""https://ziweizhang0304.github.io/Stats_learning_trig/img/Stim/FN_010_g.png"",""time"":3741.199999999255},{""stimulus"":""blank"",""time"":4054.699999999255},{""stimulus"":""https://ziweizhang0304.github.io/Stats_learning_trig/img/Stim/FN_007_g.png"",""time"":4081.800000000745},{""stimulus"":""blank"",""time"":4395.800000000745}]","[{""key_press"":32,""rt"":2436.39999999851,""stimulus"":""https://ziweizhang0304.github.io/Stats_learning_trig/img/Stim/FN_002_g.png""}]","394.69999999925494","https://ziweizhang0304.github.io/Stats_learning_trig/img/Stim/FN_020_g.png","post_TD","12","2041.699999999255","2436.39999999851","fast","6","2","623534a4823206b94cd659b3","","","","","",""
"","image-keyboard-response","37","277340","0.0-5.0-12.0-0.0","442.3999999985099","","","https://ziweizhang0304.github.io/Stats_learning_trig/img/Stim/FN_012_g.png","13","","","","","","","","","","","","","","","","","",""
"","animation","38","281760","0.0-5.0-12.0-1.0","","","","","","[{""stimulus"":""https://ziweizhang0304.github.io/Stats_learning_trig/img/Stim/FN_023_g.png"",""time"":343.69999999925494},{""stimulus"":""blank"",""time"":650.1000000014901},{""stimulus"":""https://ziweizhang0304.github.io/Stats_learning_trig/img/Stim/FN_010_g.png"",""time"":681.8000000007451},{""stimulus"":""blank"",""time"":989},{""stimulus"":""https://ziweizhang0304.github.io/Stats_learning_trig/img/Stim/FN_022_g.png"",""time"":1022.1999999992549},{""stimulus"":""blank"",""time"":1329.800000000745},{""stimulus"":""https://ziweizhang0304.github.io/Stats_learning_trig/img/Stim/FN_018_g.png"",""time"":1361.5},{""stimulus"":""blank"",""time"":1667.8999999985099},{""stimulus"":""https://ziweizhang0304.github.io/Stats_learning_trig/img/Stim/FN_011_g.png"",""time"":1701.3999999985099},{""stimulus"":""blank"",""time"":2005},{""stimulus"":""https://ziweizhang0304.github.io/Stats_learning_trig/img/Stim/FN_026_g.png"",""time"":2041.800000000745},{""stimulus"":""blank"",""time"":2345},{""stimulus"":""https://ziweizhang0304.github.io/Stats_learning_trig/img/Stim/FN_012_g.png"",""time"":2381.60000000149},{""stimulus"":""blank"",""time"":2685.5},{""stimulus"":""https://ziweizhang0304.github.io/Stats_learning_trig/img/Stim/FN_014_g.png"",""time"":2721.39999999851},{""stimulus"":""blank"",""time"":3026.699999999255},{""stimulus"":""https://ziweizhang0304.github.io/Stats_learning_trig/img/Stim/FN_016_g.png"",""time"":3061.800000000745},{""stimulus"":""blank"",""time"":3365.800000000745},{""stimulus"":""https://ziweizhang0304.github.io/Stats_learning_trig/img/Stim/FN_019_g.png"",""time"":3401.199999999255},{""stimulus"":""blank"",""time"":3705.89999999851},{""stimulus"":""https://ziweizhang0304.github.io/Stats_learning_trig/img/Stim/FN_005_g.png"",""time"":3741},{""stimulus"":""blank"",""time"":4045},{""stimulus"":""https://ziweizhang0304.github.io/Stats_learning_trig/img/Stim/FN_007_g.png"",""time"":4082.10000000149},{""stimulus"":""blank"",""time"":4383.89999999851}]","[{""key_press"":32,""rt"":2823.699999999255,""stimulus"":""https://ziweizhang0304.github.io/Stats_learning_trig/img/Stim/FN_014_g.png""}]","442.0999999977648","https://ziweizhang0304.github.io/Stats_learning_trig/img/Stim/FN_012_g.png","post_TD","13","2381.60000000149","2823.699999999255","slow","7","2","623534a4823206b94cd659b3","","","","","",""
"","image-keyboard-response","39","282466","0.0-5.0-13.0-0.0","701.7000000029802","","","https://ziweizhang0304.github.io/Stats_learning_trig/img/Stim/FN_001_g.png","13","","","","","","","","","","","","","","","","","",""
"","animation","40","286887","0.0-5.0-13.0-1.0","","","","","","[{""stimulus"":""https://ziweizhang0304.github.io/Stats_learning_trig/img/Stim/FN_019_g.png"",""time"":349.5},{""stimulus"":""blank"",""time"":655.8999999985099},{""stimulus"":""https://ziweizhang0304.github.io/Stats_learning_trig/img/Stim/FN_022_g.png"",""time"":681.5},{""stimulus"":""blank"",""time"":994},{""stimulus"":""https://ziweizhang0304.github.io/Stats_learning_trig/img/Stim/FN_005_g.png"",""time"":1021.5},{""stimulus"":""blank"",""time"":1331.199999999255},{""stimulus"":""https://ziweizhang0304.github.io/Stats_learning_trig/img/Stim/FN_007_g.png"",""time"":1361},{""stimulus"":""blank"",""time"":1670.7999999970198},{""stimulus"":""https://ziweizhang0304.github.io/Stats_learning_trig/img/Stim/FN_011_g.png"",""time"":1702.2999999970198},{""stimulus"":""blank"",""time"":2012.5},{""stimulus"":""https://ziweizhang0304.github.io/Stats_learning_trig/img/Stim/FN_023_g.png"",""time"":2041.5},{""stimulus"":""blank"",""time"":2351.599999997765},{""stimulus"":""https://ziweizhang0304.github.io/Stats_learning_trig/img/Stim/FN_001_g.png"",""time"":2382.5},{""stimulus"":""blank"",""time"":2688.89999999851},{""stimulus"":""https://ziweizhang0304.github.io/Stats_learning_trig/img/Stim/FN_020_g.png"",""time"":2721.699999999255},{""stimulus"":""blank"",""time"":3027.2999999970198},{""stimulus"":""https://ziweizhang0304.github.io/Stats_learning_trig/img/Stim/FN_002_g.png"",""time"":3061.099999997765},{""stimulus"":""blank"",""time"":3365.699999999255},{""stimulus"":""https://ziweizhang0304.github.io/Stats_learning_trig/img/Stim/FN_016_g.png"",""time"":3401.599999997765},{""stimulus"":""blank"",""time"":3704.099999997765},{""stimulus"":""https://ziweizhang0304.github.io/Stats_learning_trig/img/Stim/FN_018_g.png"",""time"":3741.699999999255},{""stimulus"":""blank"",""time"":4042.7999999970198},{""stimulus"":""https://ziweizhang0304.github.io/Stats_learning_trig/img/Stim/FN_010_g.png"",""time"":4090.39999999851},{""stimulus"":""blank"",""time"":4395.89999999851}]","[{""key_press"":32,""rt"":2782.5,""stimulus"":""https://ziweizhang0304.github.io/Stats_learning_trig/img/Stim/FN_020_g.png""}]","400","https://ziweizhang0304.github.io/Stats_learning_trig/img/Stim/FN_001_g.png","post_TD","14","2382.5","2782.5","fast","7","1","623534a4823206b94cd659b3","","","","","",""
"","image-keyboard-response","41","287486","0.0-5.0-14.0-0.0","595.1000000014901","","","https://ziweizhang0304.github.io/Stats_learning_trig/img/Stim/FN_026_g.png","13","","","","","","","","","","","","","","","","","",""
"","animation","42","291907","0.0-5.0-14.0-1.0","","","","","","[{""stimulus"":""https://ziweizhang0304.github.io/Stats_learning_trig/img/Stim/FN_007_g.png"",""time"":344.8999999985099},{""stimulus"":""blank"",""time"":652.5},{""stimulus"":""https://ziweizhang0304.github.io/Stats_learning_trig/img/Stim/FN_011_g.png"",""time"":680.8999999985099},{""stimulus"":""blank"",""time"":992.3000000007451},{""stimulus"":""https://ziweizhang0304.github.io/Stats_learning_trig/img/Stim/FN_016_g.png"",""time"":1021.3000000007451},{""stimulus"":""blank"",""time"":1333.800000000745},{""stimulus"":""https://ziweizhang0304.github.io/Stats_learning_trig/img/Stim/FN_026_g.png"",""time"":1361.3999999985099},{""stimulus"":""blank"",""time"":1672.800000000745},{""stimulus"":""https://ziweizhang0304.github.io/Stats_learning_trig/img/Stim/FN_012_g.png"",""time"":1701.3999999985099},{""stimulus"":""blank"",""time"":2010.6000000014901},{""stimulus"":""https://ziweizhang0304.github.io/Stats_learning_trig/img/Stim/FN_014_g.png"",""time"":2057.39999999851},{""stimulus"":""blank"",""time"":2364.800000000745},{""stimulus"":""https://ziweizhang0304.github.io/Stats_learning_trig/img/Stim/FN_022_g.png"",""time"":2382.300000000745},{""stimulus"":""blank"",""time"":2687.5},{""stimulus"":""https://ziweizhang0304.github.io/Stats_learning_trig/img/Stim/FN_018_g.png"",""time"":2721.10000000149},{""stimulus"":""blank"",""time"":3026.89999999851},{""stimulus"":""https://ziweizhang0304.github.io/Stats_learning_trig/img/Stim/FN_010_g.png"",""time"":3074.300000000745},{""stimulus"":""blank"",""time"":3379.800000000745},{""stimulus"":""https://ziweizhang0304.github.io/Stats_learning_trig/img/Stim/FN_023_g.png"",""time"":3401.5},{""stimulus"":""blank"",""time"":3716.89999999851},{""stimulus"":""https://ziweizhang0304.github.io/Stats_learning_trig/img/Stim/FN_019_g.png"",""time"":3741.199999999255},{""stimulus"":""blank"",""time"":4054.800000000745},{""stimulus"":""https://ziweizhang0304.github.io/Stats_learning_trig/img/Stim/FN_005_g.png"",""time"":4082.199999999255},{""stimulus"":""blank"",""time"":4394.699999999255}]","[{""key_press"":32,""rt"":1787.5999999977648,""stimulus"":""https://ziweizhang0304.github.io/Stats_learning_trig/img/Stim/FN_012_g.png""}]","426.19999999925494","https://ziweizhang0304.github.io/Stats_learning_trig/img/Stim/FN_026_g.png","post_TD","15","1361.3999999985099","1787.5999999977648","slow","4","1","623534a4823206b94cd659b3","","","","","",""
"","image-keyboard-response","43","292393","0.0-5.0-15.0-0.0","482","","","https://ziweizhang0304.github.io/Stats_learning_trig/img/Stim/FN_026_g.png","13","","","","","","","","","","","","","","","","","",""
"","animation","44","296814","0.0-5.0-15.0-1.0","","","","","","[{""stimulus"":""https://ziweizhang0304.github.io/Stats_learning_trig/img/Stim/FN_023_g.png"",""time"":349.8999999985099},{""stimulus"":""blank"",""time"":655.3000000007451},{""stimulus"":""https://ziweizhang0304.github.io/Stats_learning_trig/img/Stim/FN_010_g.png"",""time"":680.8999999985099},{""stimulus"":""blank"",""time"":994.8999999985099},{""stimulus"":""https://ziweizhang0304.github.io/Stats_learning_trig/img/Stim/FN_022_g.png"",""time"":1021.3999999985099},{""stimulus"":""blank"",""time"":1332.3999999985099},{""stimulus"":""https://ziweizhang0304.github.io/Stats_learning_trig/img/Stim/FN_018_g.png"",""time"":1361.300000000745},{""stimulus"":""blank"",""time"":1669.800000000745},{""stimulus"":""https://ziweizhang0304.github.io/Stats_learning_trig/img/Stim/FN_011_g.png"",""time"":1700.8999999985099},{""stimulus"":""blank"",""time"":2007.699999999255},{""stimulus"":""https://ziweizhang0304.github.io/Stats_learning_trig/img/Stim/FN_026_g.png"",""time"":2041.699999999255},{""stimulus"":""blank"",""time"":2346.199999999255},{""stimulus"":""https://ziweizhang0304.github.io/Stats_learning_trig/img/Stim/FN_012_g.png"",""time"":2394.199999999255},{""stimulus"":""blank"",""time"":2702.199999999255},{""stimulus"":""https://ziweizhang0304.github.io/Stats_learning_trig/img/Stim/FN_014_g.png"",""time"":2721},{""stimulus"":""blank"",""time"":3024.199999999255},{""stimulus"":""https://ziweizhang0304.github.io/Stats_learning_trig/img/Stim/FN_016_g.png"",""time"":3062.699999999255},{""stimulus"":""blank"",""time"":3363.5},{""stimulus"":""https://ziweizhang0304.github.io/Stats_learning_trig/img/Stim/FN_019_g.png"",""time"":3411.39999999851},{""stimulus"":""blank"",""time"":3720.60000000149},{""stimulus"":""https://ziweizhang0304.github.io/Stats_learning_trig/img/Stim/FN_005_g.png"",""time"":3741.10000000149},{""stimulus"":""blank"",""time"":4044.300000000745},{""stimulus"":""https://ziweizhang0304.github.io/Stats_learning_trig/img/Stim/FN_007_g.png"",""time"":4090.60000000149},{""stimulus"":""blank"",""time"":4399.39999999851}]","[{""key_press"":32,""rt"":2476.599999997765,""stimulus"":""https://ziweizhang0304.github.io/Stats_learning_trig/img/Stim/FN_012_g.png""}]","434.8999999985099","https://ziweizhang0304.github.io/Stats_learning_trig/img/Stim/FN_026_g.png","post_TD","16","2041.699999999255","2476.599999997765","slow","6","1","623534a4823206b94cd659b3","","","","","",""
"","image-keyboard-response","45","297523","0.0-5.0-16.0-0.0","705.3000000007451","","","https://ziweizhang0304.github.io/Stats_learning_trig/img/Stim/FN_014_g.png","13","","","","","","","","","","","","","","","","","",""
"","animation","46","301947","0.0-5.0-16.0-1.0","","","","","","[{""stimulus"":""https://ziweizhang0304.github.io/Stats_learning_trig/img/Stim/FN_018_g.png"",""time"":346.30000000074506},{""stimulus"":""blank"",""time"":652.6999999992549},{""stimulus"":""https://ziweizhang0304.github.io/Stats_learning_trig/img/Stim/FN_022_g.png"",""time"":681.5},{""stimulus"":""blank"",""time"":992.1999999992549},{""stimulus"":""https://ziweizhang0304.github.io/Stats_learning_trig/img/Stim/FN_011_g.png"",""time"":1023.6000000014901},{""stimulus"":""blank"",""time"":1329.199999999255},{""stimulus"":""https://ziweizhang0304.github.io/Stats_learning_trig/img/Stim/FN_016_g.png"",""time"":1362.5},{""stimulus"":""blank"",""time"":1669.199999999255},{""stimulus"":""https://ziweizhang0304.github.io/Stats_learning_trig/img/Stim/FN_026_g.png"",""time"":1716.1000000014901},{""stimulus"":""blank"",""time"":2023.300000000745},{""stimulus"":""https://ziweizhang0304.github.io/Stats_learning_trig/img/Stim/FN_012_g.png"",""time"":2040.800000000745},{""stimulus"":""blank"",""time"":2344.60000000149},{""stimulus"":""https://ziweizhang0304.github.io/Stats_learning_trig/img/Stim/FN_014_g.png"",""time"":2382.5},{""stimulus"":""blank"",""time"":2685.400000002235},{""stimulus"":""https://ziweizhang0304.github.io/Stats_learning_trig/img/Stim/FN_010_g.png"",""time"":2732.60000000149},{""stimulus"":""blank"",""time"":3039.900000002235},{""stimulus"":""https://ziweizhang0304.github.io/Stats_learning_trig/img/Stim/FN_023_g.png"",""time"":3062},{""stimulus"":""blank"",""time"":3364.699999999255},{""stimulus"":""https://ziweizhang0304.github.io/Stats_learning_trig/img/Stim/FN_019_g.png"",""time"":3411.5},{""stimulus"":""blank"",""time"":3716.900000002235},{""stimulus"":""https://ziweizhang0304.github.io/Stats_learning_trig/img/Stim/FN_005_g.png"",""time"":3741.900000002235},{""stimulus"":""blank"",""time"":4055},{""stimulus"":""https://ziweizhang0304.github.io/Stats_learning_trig/img/Stim/FN_007_g.png"",""time"":4081.5},{""stimulus"":""blank"",""time"":4393.400000002235}]","[{""key_press"":32,""rt"":2756.5,""stimulus"":""https://ziweizhang0304.github.io/Stats_learning_trig/img/Stim/FN_010_g.png""}]","374","https://ziweizhang0304.github.io/Stats_learning_trig/img/Stim/FN_014_g.png","post_TD","17","2382.5","2756.5","slow","7","3","623534a4823206b94cd659b3","","","","","",""
"","image-keyboard-response","47","302517","0.0-5.0-17.0-0.0","565.8000000007451","","","https://ziweizhang0304.github.io/Stats_learning_trig/img/Stim/FN_014_g.png","13","","","","","","","","","","","","","","","","","",""
"","animation","48","306938","0.0-5.0-17.0-1.0","","","","","","[{""stimulus"":""https://ziweizhang0304.github.io/Stats_learning_trig/img/Stim/FN_007_g.png"",""time"":355.1000000014901},{""stimulus"":""blank"",""time"":661.6000000014901},{""stimulus"":""https://ziweizhang0304.github.io/Stats_learning_trig/img/Stim/FN_011_g.png"",""time"":681.1000000014901},{""stimulus"":""blank"",""time"":985},{""stimulus"":""https://ziweizhang0304.github.io/Stats_learning_trig/img/Stim/FN_016_g.png"",""time"":1022.1000000014901},{""stimulus"":""blank"",""time"":1325.300000000745},{""stimulus"":""https://ziweizhang0304.github.io/Stats_learning_trig/img/Stim/FN_026_g.png"",""time"":1361.5},{""stimulus"":""blank"",""time"":1664.9000000022352},{""stimulus"":""https://ziweizhang0304.github.io/Stats_learning_trig/img/Stim/FN_012_g.png"",""time"":1701.6000000014901},{""stimulus"":""blank"",""time"":2002.2000000029802},{""stimulus"":""https://ziweizhang0304.github.io/Stats_learning_trig/img/Stim/FN_014_g.png"",""time"":2049.7000000029802},{""stimulus"":""blank"",""time"":2359.10000000149},{""stimulus"":""https://ziweizhang0304.github.io/Stats_learning_trig/img/Stim/FN_022_g.png"",""time"":2382.400000002235},{""stimulus"":""blank"",""time"":2684},{""stimulus"":""https://ziweizhang0304.github.io/Stats_learning_trig/img/Stim/FN_018_g.png"",""time"":2721.7000000029802},{""stimulus"":""blank"",""time"":3023.2000000029802},{""stimulus"":""https://ziweizhang0304.github.io/Stats_learning_trig/img/Stim/FN_010_g.png"",""time"":3061},{""stimulus"":""blank"",""time"":3366.2000000029802},{""stimulus"":""https://ziweizhang0304.github.io/Stats_learning_trig/img/Stim/FN_023_g.png"",""time"":3405.5},{""stimulus"":""blank"",""time"":3720.5},{""stimulus"":""https://ziweizhang0304.github.io/Stats_learning_trig/img/Stim/FN_019_g.png"",""time"":3752.300000000745},{""stimulus"":""blank"",""time"":4060.5},{""stimulus"":""https://ziweizhang0304.github.io/Stats_learning_trig/img/Stim/FN_005_g.png"",""time"":4081.2000000029802},{""stimulus"":""blank"",""time"":4384.20000000298}]","[{""key_press"":32,""rt"":2425.89999999851,""stimulus"":""https://ziweizhang0304.github.io/Stats_learning_trig/img/Stim/FN_022_g.png""}]","376.19999999552965","https://ziweizhang0304.github.io/Stats_learning_trig/img/Stim/FN_014_g.png","post_TD","18","2049.7000000029802","2425.89999999851","slow","6","3","623534a4823206b94cd659b3","","","","","",""
"","image-keyboard-response","49","307319","0.0-5.0-18.0-0.0","377.3999999985099","","","https://ziweizhang0304.github.io/Stats_learning_trig/img/Stim/FN_001_g.png","13","","","","","","","","","","","","","","","","","",""
"","animation","50","311740","0.0-5.0-18.0-1.0","","","","","","[{""stimulus"":""https://ziweizhang0304.github.io/Stats_learning_trig/img/Stim/FN_011_g.png"",""time"":353},{""stimulus"":""blank"",""time"":659.3000000007451},{""stimulus"":""https://ziweizhang0304.github.io/Stats_learning_trig/img/Stim/FN_005_g.png"",""time"":681.6000000014901},{""stimulus"":""blank"",""time"":982.6000000014901},{""stimulus"":""https://ziweizhang0304.github.io/Stats_learning_trig/img/Stim/FN_019_g.png"",""time"":1028.699999999255},{""stimulus"":""blank"",""time"":1336.699999999255},{""stimulus"":""https://ziweizhang0304.github.io/Stats_learning_trig/img/Stim/FN_023_g.png"",""time"":1361.199999999255},{""stimulus"":""blank"",""time"":1675.6000000014901},{""stimulus"":""https://ziweizhang0304.github.io/Stats_learning_trig/img/Stim/FN_001_g.png"",""time"":1702.199999999255},{""stimulus"":""blank"",""time"":2014.8999999985099},{""stimulus"":""https://ziweizhang0304.github.io/Stats_learning_trig/img/Stim/FN_020_g.png"",""time"":2041.6000000014901},{""stimulus"":""blank"",""time"":2355.10000000149},{""stimulus"":""https://ziweizhang0304.github.io/Stats_learning_trig/img/Stim/FN_002_g.png"",""time"":2381.60000000149},{""stimulus"":""blank"",""time"":2696.39999999851},{""stimulus"":""https://ziweizhang0304.github.io/Stats_learning_trig/img/Stim/FN_016_g.png"",""time"":2721},{""stimulus"":""blank"",""time"":3034.89999999851},{""stimulus"":""https://ziweizhang0304.github.io/Stats_learning_trig/img/Stim/FN_022_g.png"",""time"":3066.39999999851},{""stimulus"":""blank"",""time"":3374.300000000745},{""stimulus"":""https://ziweizhang0304.github.io/Stats_learning_trig/img/Stim/FN_018_g.png"",""time"":3401.699999999255},{""stimulus"":""blank"",""time"":3712.89999999851},{""stimulus"":""https://ziweizhang0304.github.io/Stats_learning_trig/img/Stim/FN_010_g.png"",""time"":3744.199999999255},{""stimulus"":""blank"",""time"":4050.10000000149},{""stimulus"":""https://ziweizhang0304.github.io/Stats_learning_trig/img/Stim/FN_007_g.png"",""time"":4082},{""stimulus"":""blank"",""time"":4388.800000000745}]","[{""key_press"":32,""rt"":250.30000000074506,""stimulus"":""""},{""key_press"":32,""rt"":2049.60000000149,""stimulus"":""https://ziweizhang0304.github.io/Stats_learning_trig/img/Stim/FN_020_g.png""}]","347.4000000022352","https://ziweizhang0304.github.io/Stats_learning_trig/img/Stim/FN_001_g.png","post_TD","19","1702.199999999255","2049.60000000149","fast","5","1","623534a4823206b94cd659b3","","","","","",""
"","image-keyboard-response","51","312243","0.0-5.0-19.0-0.0","498.8999999985099","","","https://ziweizhang0304.github.io/Stats_learning_trig/img/Stim/FN_012_g.png","13","","","","","","","","","","","","","","","","","",""
"","animation","52","316664","0.0-5.0-19.0-1.0","","","","","","[{""stimulus"":""https://ziweizhang0304.github.io/Stats_learning_trig/img/Stim/FN_007_g.png"",""time"":356.19999999925494},{""stimulus"":""blank"",""time"":663.6999999992549},{""stimulus"":""https://ziweizhang0304.github.io/Stats_learning_trig/img/Stim/FN_011_g.png"",""time"":682.3000000007451},{""stimulus"":""blank"",""time"":988.6999999992549},{""stimulus"":""https://ziweizhang0304.github.io/Stats_learning_trig/img/Stim/FN_016_g.png"",""time"":1036.1000000014901},{""stimulus"":""blank"",""time"":1345.3999999985099},{""stimulus"":""https://ziweizhang0304.github.io/Stats_learning_trig/img/Stim/FN_026_g.png"",""time"":1361.699999999255},{""stimulus"":""blank"",""time"":1674.8999999985099},{""stimulus"":""https://ziweizhang0304.github.io/Stats_learning_trig/img/Stim/FN_012_g.png"",""time"":1707.199999999255},{""stimulus"":""blank"",""time"":2019.300000000745},{""stimulus"":""https://ziweizhang0304.github.io/Stats_learning_trig/img/Stim/FN_014_g.png"",""time"":2041.3999999985099},{""stimulus"":""blank"",""time"":2344.199999999255},{""stimulus"":""https://ziweizhang0304.github.io/Stats_learning_trig/img/Stim/FN_022_g.png"",""time"":2392.199999999255},{""stimulus"":""blank"",""time"":2699.89999999851},{""stimulus"":""https://ziweizhang0304.github.io/Stats_learning_trig/img/Stim/FN_018_g.png"",""time"":2720.89999999851},{""stimulus"":""blank"",""time"":3029.89999999851},{""stimulus"":""https://ziweizhang0304.github.io/Stats_learning_trig/img/Stim/FN_010_g.png"",""time"":3061.10000000149},{""stimulus"":""blank"",""time"":3368.39999999851},{""stimulus"":""https://ziweizhang0304.github.io/Stats_learning_trig/img/Stim/FN_023_g.png"",""time"":3414.89999999851},{""stimulus"":""blank"",""time"":3730.10000000149},{""stimulus"":""https://ziweizhang0304.github.io/Stats_learning_trig/img/Stim/FN_019_g.png"",""time"":3742.5},{""stimulus"":""blank"",""time"":4053.10000000149},{""stimulus"":""https://ziweizhang0304.github.io/Stats_learning_trig/img/Stim/FN_005_g.png"",""time"":4080.89999999851},{""stimulus"":""blank"",""time"":4382.10000000149}]","[{""key_press"":32,""rt"":2107.5,""stimulus"":""https://ziweizhang0304.github.io/Stats_learning_trig/img/Stim/FN_014_g.png""}]","400.30000000074506","https://ziweizhang0304.github.io/Stats_learning_trig/img/Stim/FN_012_g.png","post_TD","20","1707.199999999255","2107.5","slow","5","2","623534a4823206b94cd659b3","","","","","",""
"","image-keyboard-response","53","316981","0.0-5.0-20.0-0.0","314.6000000014901","","","https://ziweizhang0304.github.io/Stats_learning_trig/img/Stim/FN_002_g.png","13","","","","","","","","","","","","","","","","","",""
"","animation","54","321403","0.0-5.0-20.0-1.0","","","","","","[{""stimulus"":""https://ziweizhang0304.github.io/Stats_learning_trig/img/Stim/FN_018_g.png"",""time"":354.8999999985099},{""stimulus"":""blank"",""time"":666.7999999970198},{""stimulus"":""https://ziweizhang0304.github.io/Stats_learning_trig/img/Stim/FN_007_g.png"",""time"":681.0999999977648},{""stimulus"":""blank"",""time"":992.8999999985099},{""stimulus"":""https://ziweizhang0304.github.io/Stats_learning_trig/img/Stim/FN_023_g.png"",""time"":1020.8999999985099},{""stimulus"":""blank"",""time"":1332.0999999977648},{""stimulus"":""https://ziweizhang0304.github.io/Stats_learning_trig/img/Stim/FN_005_g.png"",""time"":1363.3999999985099},{""stimulus"":""blank"",""time"":1670},{""stimulus"":""https://ziweizhang0304.github.io/Stats_learning_trig/img/Stim/FN_010_g.png"",""time"":1707.7999999970198},{""stimulus"":""blank"",""time"":2009.0999999977648},{""stimulus"":""https://ziweizhang0304.github.io/Stats_learning_trig/img/Stim/FN_001_g.png"",""time"":2041.5},{""stimulus"":""blank"",""time"":2350.699999999255},{""stimulus"":""https://ziweizhang0304.github.io/Stats_learning_trig/img/Stim/FN_020_g.png"",""time"":2381.599999997765},{""stimulus"":""blank"",""time"":2688.599999997765},{""stimulus"":""https://ziweizhang0304.github.io/Stats_learning_trig/img/Stim/FN_002_g.png"",""time"":2721.599999997765},{""stimulus"":""blank"",""time"":3026.699999999255},{""stimulus"":""https://ziweizhang0304.github.io/Stats_learning_trig/img/Stim/FN_016_g.png"",""time"":3074.7999999970198},{""stimulus"":""blank"",""time"":3380.599999997765},{""stimulus"":""https://ziweizhang0304.github.io/Stats_learning_trig/img/Stim/FN_011_g.png"",""time"":3400.7999999970198},{""stimulus"":""blank"",""time"":3702},{""stimulus"":""https://ziweizhang0304.github.io/Stats_learning_trig/img/Stim/FN_022_g.png"",""time"":3741.099999997765},{""stimulus"":""blank"",""time"":4056.699999999255},{""stimulus"":""https://ziweizhang0304.github.io/Stats_learning_trig/img/Stim/FN_019_g.png"",""time"":4080.699999999255},{""stimulus"":""blank"",""time"":4395.099999997765}]","[{""key_press"":32,""rt"":3077.10000000149,""stimulus"":""https://ziweizhang0304.github.io/Stats_learning_trig/img/Stim/FN_016_g.png""}]","355.5000000037253","https://ziweizhang0304.github.io/Stats_learning_trig/img/Stim/FN_002_g.png","post_TD","21","2721.599999997765","3077.10000000149","fast","8","3","623534a4823206b94cd659b3","","","","","",""
"","image-keyboard-response","55","321886","0.0-5.0-21.0-0.0","479.1000000014901","","","https://ziweizhang0304.github.io/Stats_learning_trig/img/Stim/FN_020_g.png","13","","","","","","","","","","","","","","","","","",""
"","animation","56","326308","0.0-5.0-21.0-1.0","","","","","","[{""stimulus"":""https://ziweizhang0304.github.io/Stats_learning_trig/img/Stim/FN_018_g.png"",""time"":351.80000000074506},{""stimulus"":""blank"",""time"":659.6000000014901},{""stimulus"":""https://ziweizhang0304.github.io/Stats_learning_trig/img/Stim/FN_007_g.png"",""time"":682.2000000029802},{""stimulus"":""blank"",""time"":984.6000000014901},{""stimulus"":""https://ziweizhang0304.github.io/Stats_learning_trig/img/Stim/FN_023_g.png"",""time"":1021.6000000014901},{""stimulus"":""blank"",""time"":1325.2000000029802},{""stimulus"":""https://ziweizhang0304.github.io/Stats_learning_trig/img/Stim/FN_005_g.png"",""time"":1371.7000000029802},{""stimulus"":""blank"",""time"":1679.1000000014901},{""stimulus"":""https://ziweizhang0304.github.io/Stats_learning_trig/img/Stim/FN_010_g.png"",""time"":1701.7000000029802},{""stimulus"":""blank"",""time"":2003.2000000029802},{""stimulus"":""https://ziweizhang0304.github.io/Stats_learning_trig/img/Stim/FN_001_g.png"",""time"":2040.9000000022352},{""stimulus"":""blank"",""time"":2356},{""stimulus"":""https://ziweizhang0304.github.io/Stats_learning_trig/img/Stim/FN_020_g.png"",""time"":2381.2000000029802},{""stimulus"":""blank"",""time"":2694.10000000149},{""stimulus"":""https://ziweizhang0304.github.io/Stats_learning_trig/img/Stim/FN_002_g.png"",""time"":2721.900000002235},{""stimulus"":""blank"",""time"":3034.5},{""stimulus"":""https://ziweizhang0304.github.io/Stats_learning_trig/img/Stim/FN_016_g.png"",""time"":3060.800000000745},{""stimulus"":""blank"",""time"":3375},{""stimulus"":""https://ziweizhang0304.github.io/Stats_learning_trig/img/Stim/FN_011_g.png"",""time"":3401.60000000149},{""stimulus"":""blank"",""time"":3712.800000000745},{""stimulus"":""https://ziweizhang0304.github.io/Stats_learning_trig/img/Stim/FN_022_g.png"",""time"":3741.300000000745},{""stimulus"":""blank"",""time"":4051.2000000029802},{""stimulus"":""https://ziweizhang0304.github.io/Stats_learning_trig/img/Stim/FN_019_g.png"",""time"":4082},{""stimulus"":""blank"",""time"":4389.10000000149}]","[{""key_press"":32,""rt"":2720.699999999255,""stimulus"":""blank""}]","339.4999999962747","https://ziweizhang0304.github.io/Stats_learning_trig/img/Stim/FN_020_g.png","post_TD","22","2381.2000000029802","2720.699999999255","fast","7","2","623534a4823206b94cd659b3","","","","","",""
"","image-keyboard-response","57","326992","0.0-5.0-22.0-0.0","679.5","","","https://ziweizhang0304.github.io/Stats_learning_trig/img/Stim/FN_002_g.png","13","","","","","","","","","","","","","","","","","",""
"","animation","58","331413","0.0-5.0-22.0-1.0","","","","","","[{""stimulus"":""https://ziweizhang0304.github.io/Stats_learning_trig/img/Stim/FN_016_g.png"",""time"":344.70000000298023},{""stimulus"":""blank"",""time"":651.3000000007451},{""stimulus"":""https://ziweizhang0304.github.io/Stats_learning_trig/img/Stim/FN_011_g.png"",""time"":681.8000000007451},{""stimulus"":""blank"",""time"":991.8000000007451},{""stimulus"":""https://ziweizhang0304.github.io/Stats_learning_trig/img/Stim/FN_022_g.png"",""time"":1021.6000000014901},{""stimulus"":""blank"",""time"":1331.2000000029802},{""stimulus"":""https://ziweizhang0304.github.io/Stats_learning_trig/img/Stim/FN_001_g.png"",""time"":1361.1000000014901},{""stimulus"":""blank"",""time"":1670.9000000022352},{""stimulus"":""https://ziweizhang0304.github.io/Stats_learning_trig/img/Stim/FN_020_g.png"",""time"":1702.300000000745},{""stimulus"":""blank"",""time"":2011.9000000022352},{""stimulus"":""https://ziweizhang0304.github.io/Stats_learning_trig/img/Stim/FN_002_g.png"",""time"":2043.4000000022352},{""stimulus"":""blank"",""time"":2350.5},{""stimulus"":""https://ziweizhang0304.github.io/Stats_learning_trig/img/Stim/FN_018_g.png"",""time"":2380.800000000745},{""stimulus"":""blank"",""time"":2692.900000002235},{""stimulus"":""https://ziweizhang0304.github.io/Stats_learning_trig/img/Stim/FN_010_g.png"",""time"":2721.5},{""stimulus"":""blank"",""time"":3034.7000000029802},{""stimulus"":""https://ziweizhang0304.github.io/Stats_learning_trig/img/Stim/FN_023_g.png"",""time"":3061.400000002235},{""stimulus"":""blank"",""time"":3375.900000002235},{""stimulus"":""https://ziweizhang0304.github.io/Stats_learning_trig/img/Stim/FN_019_g.png"",""time"":3401.5},{""stimulus"":""blank"",""time"":3716.400000002235},{""stimulus"":""https://ziweizhang0304.github.io/Stats_learning_trig/img/Stim/FN_005_g.png"",""time"":3741},{""stimulus"":""blank"",""time"":4054.800000000745},{""stimulus"":""https://ziweizhang0304.github.io/Stats_learning_trig/img/Stim/FN_007_g.png"",""time"":4081.400000002235},{""stimulus"":""blank"",""time"":4392.800000000745}]","[{""key_press"":32,""rt"":2383.800000000745,""stimulus"":""https://ziweizhang0304.github.io/Stats_learning_trig/img/Stim/FN_018_g.png""}]","340.3999999985099","https://ziweizhang0304.github.io/Stats_learning_trig/img/Stim/FN_002_g.png","post_TD","23","2043.4000000022352","2383.800000000745","fast","6","3","623534a4823206b94cd659b3","","","","","",""
"","image-keyboard-response","59","332040","0.0-5.0-23.0-0.0","623.1000000014901","","","https://ziweizhang0304.github.io/Stats_learning_trig/img/Stim/FN_026_g.png","13","","","","","","","","","","","","","","","","","",""
"","animation","60","336461","0.0-5.0-23.0-1.0","","","","","","[{""stimulus"":""https://ziweizhang0304.github.io/Stats_learning_trig/img/Stim/FN_018_g.png"",""time"":343.8999999985099},{""stimulus"":""blank"",""time"":651.3999999985099},{""stimulus"":""https://ziweizhang0304.github.io/Stats_learning_trig/img/Stim/FN_022_g.png"",""time"":681},{""stimulus"":""blank"",""time"":991.7999999970198},{""stimulus"":""https://ziweizhang0304.github.io/Stats_learning_trig/img/Stim/FN_011_g.png"",""time"":1023.3999999985099},{""stimulus"":""blank"",""time"":1332.5999999977648},{""stimulus"":""https://ziweizhang0304.github.io/Stats_learning_trig/img/Stim/FN_016_g.png"",""time"":1361.199999999255},{""stimulus"":""blank"",""time"":1672.5999999977648},{""stimulus"":""https://ziweizhang0304.github.io/Stats_learning_trig/img/Stim/FN_026_g.png"",""time"":1701.699999999255},{""stimulus"":""blank"",""time"":2012.8999999985099},{""stimulus"":""https://ziweizhang0304.github.io/Stats_learning_trig/img/Stim/FN_012_g.png"",""time"":2041.5},{""stimulus"":""blank"",""time"":2353.2999999970198},{""stimulus"":""https://ziweizhang0304.github.io/Stats_learning_trig/img/Stim/FN_014_g.png"",""time"":2380.7999999970198},{""stimulus"":""blank"",""time"":2692.7999999970198},{""stimulus"":""https://ziweizhang0304.github.io/Stats_learning_trig/img/Stim/FN_010_g.png"",""time"":2721.199999999255},{""stimulus"":""blank"",""time"":3036},{""stimulus"":""https://ziweizhang0304.github.io/Stats_learning_trig/img/Stim/FN_023_g.png"",""time"":3061.39999999851},{""stimulus"":""blank"",""time"":3375.599999997765},{""stimulus"":""https://ziweizhang0304.github.io/Stats_learning_trig/img/Stim/FN_019_g.png"",""time"":3400.7999999970198},{""stimulus"":""blank"",""time"":3712.7999999970198},{""stimulus"":""https://ziweizhang0304.github.io/Stats_learning_trig/img/Stim/FN_005_g.png"",""time"":3741.2999999970198},{""stimulus"":""blank"",""time"":4053.699999999255},{""stimulus"":""https://ziweizhang0304.github.io/Stats_learning_trig/img/Stim/FN_007_g.png"",""time"":4081.699999999255},{""stimulus"":""blank"",""time"":4393.79999999702}]","[{""key_press"":32,""rt"":2142.400000002235,""stimulus"":""https://ziweizhang0304.github.io/Stats_learning_trig/img/Stim/FN_012_g.png""}]","440.70000000298023","https://ziweizhang0304.github.io/Stats_learning_trig/img/Stim/FN_026_g.png","post_TD","24","1701.699999999255","2142.400000002235","slow","5","1","623534a4823206b94cd659b3","b6a80","","","","",""
"","survey-text","61","363419","0.0-6.0","26940.20000000298","","","","","","","","","","","","","","","","","","{""Q0"":""\nI didn't use any strategies. I just looked at the images and if it was the same, then I pressed space.""}","","","",""
"","survey-text","62","396951","0.0-7.0","33529.89999999851","","","","","","","","","","","","","","","","","","{""[object Object]"":""I noticed that there are a total of around 10 images and all of them are getting repeated. However, they tend to shuffle around.""}","","","",""
"","instructions","63","404642","0.0-8.0","7690.199999999255","","[{""page_index"":0,""viewing_time"":7689.900000002235}]","","","","","","","","","","","","","","","","","","","",""
"","free-sort","64","435123","0.0-9.0","30479.89999999851","","","","","","","","","post_drag","","","","fast","","","","","","[{""src"":""https://ziweizhang0304.github.io/Stats_learning_trig/img/Stim/FN_001_g.png"",""x"":475,""y"":0},{""src"":""https://ziweizhang0304.github.io/Stats_learning_trig/img/Stim/FN_020_g.png"",""x"":-225,""y"":50},{""src"":""https://ziweizhang0304.github.io/Stats_learning_trig/img/Stim/FN_002_g.png"",""x"":475,""y"":50}]","[{""src"":""https://ziweizhang0304.github.io/Stats_learning_trig/img/Stim/FN_001_g.png"",""x"":134,""y"":24},{""src"":""https://ziweizhang0304.github.io/Stats_learning_trig/img/Stim/FN_020_g.png"",""x"":40,""y"":49},{""src"":""https://ziweizhang0304.github.io/Stats_learning_trig/img/Stim/FN_020_g.png"",""x"":46,""y"":22},{""src"":""https://ziweizhang0304.github.io/Stats_learning_trig/img/Stim/FN_002_g.png"",""x"":228,""y"":28},{""src"":""https://ziweizhang0304.github.io/Stats_learning_trig/img/Stim/FN_001_g.png"",""x"":23,""y"":27},{""src"":""https://ziweizhang0304.github.io/Stats_learning_trig/img/Stim/FN_020_g.png"",""x"":122,""y"":20}]","[{""src"":""https://ziweizhang0304.github.io/Stats_learning_trig/img/Stim/FN_001_g.png"",""x"":23,""y"":27},{""src"":""https://ziweizhang0304.github.io/Stats_learning_trig/img/Stim/FN_020_g.png"",""x"":122,""y"":20},{""src"":""https://ziweizhang0304.github.io/Stats_learning_trig/img/Stim/FN_002_g.png"",""x"":228,""y"":28}]",""
"","free-sort","65","444003","0.0-10.0","8878.800000000745","","","","","","","","","post_drag","","","","slow","","","","","","[{""src"":""https://ziweizhang0304.github.io/Stats_learning_trig/img/Stim/FN_012_g.png"",""x"":475,""y"":0},{""src"":""https://ziweizhang0304.github.io/Stats_learning_trig/img/Stim/FN_014_g.png"",""x"":-225,""y"":50},{""src"":""https://ziweizhang0304.github.io/Stats_learning_trig/img/Stim/FN_026_g.png"",""x"":475,""y"":50}]","[{""src"":""https://ziweizhang0304.github.io/Stats_learning_trig/img/Stim/FN_012_g.png"",""x"":122,""y"":19},{""src"":""https://ziweizhang0304.github.io/Stats_learning_trig/img/Stim/FN_026_g.png"",""x"":34,""y"":16},{""src"":""https://ziweizhang0304.github.io/Stats_learning_trig/img/Stim/FN_014_g.png"",""x"":209,""y"":26}]","[{""src"":""https://ziweizhang0304.github.io/Stats_learning_trig/img/Stim/FN_012_g.png"",""x"":122,""y"":19},{""src"":""https://ziweizhang0304.github.io/Stats_learning_trig/img/Stim/FN_014_g.png"",""x"":209,""y"":26},{""src"":""https://ziweizhang0304.github.io/Stats_learning_trig/img/Stim/FN_026_g.png"",""x"":34,""y"":16}]",""
"","survey-multi-choice","66","464100","0.0-11.0","20094.60000000149","","","","","","","","","","","","","","","","623534a4823206b94cd659b3","","{""awareness"":""No"",""attention_check"":""Press SPACEBAR to a target""}","","","","[0,1]"
