"success","trial_type","trial_index","time_elapsed","internal_node_id","rt","url","view_history","stimulus","key_press","animation_sequence","response","TD_rt","TD_target","test_part","TD_trial_number","onset","offset","attention_state","TD_target_position","TD_within_triplet_counter","participant","yoke_participant","responses","init_locations","moves","final_locations","question_order"
"true","fullscreen","0","2277","0.0-0.0","","","","","","","","","","","","","","","","","","","","","","",""
"","external-html","1","5845","0.0-1.0","3524.5999999046326","https://ziweizhang0304.github.io/Stats_learning_trig/content/consent.html","","","","","","","","","","","","","","","","","","","","",""
"","instructions","2","15628","0.0-2.0","9778","","[{""page_index"":0,""viewing_time"":1474.0999999046326},{""page_index"":1,""viewing_time"":4157.800000071526},{""page_index"":2,""viewing_time"":3234.100000023842},{""page_index"":3,""viewing_time"":911.2999999523163}]","","","","","","","","","","","","","","","","","","","",""
"","image-keyboard-response","3","19586","0.0-3.0-0.0-0.0","3956.2999999523163","","","https://ziweizhang0304.github.io/Stats_learning_trig/img/Stim/FN_024_g.png","13","","","","","","","","","","","","","","","","","",""
"","animation","4","24008","0.0-3.0-0.0-1.0","","","","","","[{""stimulus"":""https://ziweizhang0304.github.io/Stats_learning_trig/img/Stim/FN_002_g.png"",""time"":359},{""stimulus"":""blank"",""time"":661.3000000715256},{""stimulus"":""https://ziweizhang0304.github.io/Stats_learning_trig/img/Stim/FN_007_g.png"",""time"":681.9000000953674},{""stimulus"":""blank"",""time"":986.7000000476837},{""stimulus"":""https://ziweizhang0304.github.io/Stats_learning_trig/img/Stim/FN_016_g.png"",""time"":1022},{""stimulus"":""blank"",""time"":1328.8000000715256},{""stimulus"":""https://ziweizhang0304.github.io/Stats_learning_trig/img/Stim/FN_024_g.png"",""time"":1361.8000000715256},{""stimulus"":""blank"",""time"":1669.2000000476837},{""stimulus"":""https://ziweizhang0304.github.io/Stats_learning_trig/img/Stim/FN_001_g.png"",""time"":1716.9000000953674},{""stimulus"":""blank"",""time"":2027.8000000715256},{""stimulus"":""https://ziweizhang0304.github.io/Stats_learning_trig/img/Stim/FN_005_g.png"",""time"":2042.4000000953674},{""stimulus"":""blank"",""time"":2354.100000023842},{""stimulus"":""https://ziweizhang0304.github.io/Stats_learning_trig/img/Stim/FN_021_g.png"",""time"":2382.2000000476837},{""stimulus"":""blank"",""time"":2695.7000000476837},{""stimulus"":""https://ziweizhang0304.github.io/Stats_learning_trig/img/Stim/FN_014_g.png"",""time"":2721.3000000715256},{""stimulus"":""blank"",""time"":3021.7000000476837},{""stimulus"":""https://ziweizhang0304.github.io/Stats_learning_trig/img/Stim/FN_019_g.png"",""time"":3061.5},{""stimulus"":""blank"",""time"":3366.100000023842},{""stimulus"":""https://ziweizhang0304.github.io/Stats_learning_trig/img/Stim/FN_025_g.png"",""time"":3412.100000023842},{""stimulus"":""blank"",""time"":3723.100000023842},{""stimulus"":""https://ziweizhang0304.github.io/Stats_learning_trig/img/Stim/FN_011_g.png"",""time"":3741.7000000476837},{""stimulus"":""blank"",""time"":4050.4000000953674},{""stimulus"":""https://ziweizhang0304.github.io/Stats_learning_trig/img/Stim/FN_008_g.png"",""time"":4082.9000000953674},{""stimulus"":""blank"",""time"":4392.100000023842}]","[{""key_press"":32,""rt"":1734.8999999761581,""stimulus"":""https://ziweizhang0304.github.io/Stats_learning_trig/img/Stim/FN_001_g.png""}]","373.09999990463257","https://ziweizhang0304.github.io/Stats_learning_trig/img/Stim/FN_024_g.png","post_prac","","","","","","","","","","","","",""
"","html-keyboard-response","5","27817","0.0-3.0-0.0-2.0","3803.399999976158","","","<p>Your reaction time for this trial was 373.1 ms.</p><p>Remember that you should only press the SPACEBAR when you see the shape presented at the beginning of the trial. </b> </p><p>Press enter to move on.</p>","13","","","","","","","","","","","","","","","","","",""
"","image-keyboard-response","6","29997","0.0-3.0-1.0-0.0","2179.399999976158","","","https://ziweizhang0304.github.io/Stats_learning_trig/img/Stim/FN_024_g.png","13","","","","","","","","","","","","","","","","","",""
"","animation","7","34418","0.0-3.0-1.0-1.0","","","","","","[{""stimulus"":""https://ziweizhang0304.github.io/Stats_learning_trig/img/Stim/FN_019_g.png"",""time"":347.2999999523163},{""stimulus"":""blank"",""time"":658.2999999523163},{""stimulus"":""https://ziweizhang0304.github.io/Stats_learning_trig/img/Stim/FN_011_g.png"",""time"":681.1000000238419},{""stimulus"":""blank"",""time"":985.8999999761581},{""stimulus"":""https://ziweizhang0304.github.io/Stats_learning_trig/img/Stim/FN_016_g.png"",""time"":1021.5},{""stimulus"":""blank"",""time"":1328.5},{""stimulus"":""https://ziweizhang0304.github.io/Stats_learning_trig/img/Stim/FN_002_g.png"",""time"":1361.6000000238419},{""stimulus"":""blank"",""time"":1671.5},{""stimulus"":""https://ziweizhang0304.github.io/Stats_learning_trig/img/Stim/FN_014_g.png"",""time"":1701},{""stimulus"":""blank"",""time"":2014},{""stimulus"":""https://ziweizhang0304.github.io/Stats_learning_trig/img/Stim/FN_024_g.png"",""time"":2045.2000000476837},{""stimulus"":""blank"",""time"":2356.100000023842},{""stimulus"":""https://ziweizhang0304.github.io/Stats_learning_trig/img/Stim/FN_007_g.png"",""time"":2381},{""stimulus"":""blank"",""time"":2682.2999999523163},{""stimulus"":""https://ziweizhang0304.github.io/Stats_learning_trig/img/Stim/FN_001_g.png"",""time"":2721.7000000476837},{""stimulus"":""blank"",""time"":3025.899999976158},{""stimulus"":""https://ziweizhang0304.github.io/Stats_learning_trig/img/Stim/FN_008_g.png"",""time"":3061.600000023842},{""stimulus"":""blank"",""time"":3368.5},{""stimulus"":""https://ziweizhang0304.github.io/Stats_learning_trig/img/Stim/FN_005_g.png"",""time"":3401.399999976158},{""stimulus"":""blank"",""time"":3711.2999999523163},{""stimulus"":""https://ziweizhang0304.github.io/Stats_learning_trig/img/Stim/FN_025_g.png"",""time"":3742.600000023842},{""stimulus"":""blank"",""time"":4053.7999999523163},{""stimulus"":""https://ziweizhang0304.github.io/Stats_learning_trig/img/Stim/FN_021_g.png"",""time"":4082.399999976158},{""stimulus"":""blank"",""time"":4395}]","[{""key_press"":32,""rt"":2432.7999999523163,""stimulus"":""https://ziweizhang0304.github.io/Stats_learning_trig/img/Stim/FN_007_g.png""}]","387.59999990463257","https://ziweizhang0304.github.io/Stats_learning_trig/img/Stim/FN_024_g.png","post_prac","","","","","","","","","","","","",""
"","html-keyboard-response","8","40121","0.0-3.0-1.0-2.0","5699.399999976158","","","<p>Your reaction time for this trial was 387.6 ms.</p><p>Remember that you should only press the SPACEBAR when you see the shape presented at the beginning of the trial. </b> </p><p>Press enter to move on.</p>","13","","","","","","","","","","","","","","","","","",""
"","image-keyboard-response","9","41926","0.0-3.0-2.0-0.0","1804.3999999761581","","","https://ziweizhang0304.github.io/Stats_learning_trig/img/Stim/FN_022_g.png","13","","","","","","","","","","","","","","","","","",""
"","animation","10","46360","0.0-3.0-2.0-1.0","","","","","","[{""stimulus"":""https://ziweizhang0304.github.io/Stats_learning_trig/img/Stim/FN_016_g.png"",""time"":355.7000000476837},{""stimulus"":""blank"",""time"":667},{""stimulus"":""https://ziweizhang0304.github.io/Stats_learning_trig/img/Stim/FN_025_g.png"",""time"":683.7999999523163},{""stimulus"":""blank"",""time"":992.7000000476837},{""stimulus"":""https://ziweizhang0304.github.io/Stats_learning_trig/img/Stim/FN_005_g.png"",""time"":1021.7000000476837},{""stimulus"":""blank"",""time"":1336},{""stimulus"":""https://ziweizhang0304.github.io/Stats_learning_trig/img/Stim/FN_019_g.png"",""time"":1368.6000000238419},{""stimulus"":""blank"",""time"":1680.1000000238419},{""stimulus"":""https://ziweizhang0304.github.io/Stats_learning_trig/img/Stim/FN_001_g.png"",""time"":1701.2999999523163},{""stimulus"":""blank"",""time"":2007.1000000238419},{""stimulus"":""https://ziweizhang0304.github.io/Stats_learning_trig/img/Stim/FN_012_g.png"",""time"":2042.1000000238419},{""stimulus"":""blank"",""time"":2347.399999976158},{""stimulus"":""https://ziweizhang0304.github.io/Stats_learning_trig/img/Stim/FN_006_g.png"",""time"":2395.399999976158},{""stimulus"":""blank"",""time"":2705.399999976158},{""stimulus"":""https://ziweizhang0304.github.io/Stats_learning_trig/img/Stim/FN_022_g.png"",""time"":2721.7999999523163},{""stimulus"":""blank"",""time"":3032.399999976158},{""stimulus"":""https://ziweizhang0304.github.io/Stats_learning_trig/img/Stim/FN_008_g.png"",""time"":3061.399999976158},{""stimulus"":""blank"",""time"":3375.899999976158},{""stimulus"":""https://ziweizhang0304.github.io/Stats_learning_trig/img/Stim/FN_011_g.png"",""time"":3401.100000023842},{""stimulus"":""blank"",""time"":3702},{""stimulus"":""https://ziweizhang0304.github.io/Stats_learning_trig/img/Stim/FN_002_g.png"",""time"":3749.5},{""stimulus"":""blank"",""time"":4060.100000023842},{""stimulus"":""https://ziweizhang0304.github.io/Stats_learning_trig/img/Stim/FN_021_g.png"",""time"":4081.7000000476837},{""stimulus"":""blank"",""time"":4387}]","[{""key_press"":32,""rt"":3140.600000023842,""stimulus"":""https://ziweizhang0304.github.io/Stats_learning_trig/img/Stim/FN_008_g.png""}]","418.8000000715256","https://ziweizhang0304.github.io/Stats_learning_trig/img/Stim/FN_022_g.png","post_prac","","","","","","","","","","","","",""
"","html-keyboard-response","11","47824","0.0-3.0-2.0-2.0","1459.7999999523163","","","<p>Your reaction time for this trial was 418.8 ms.</p><p>Remember that you should only press the SPACEBAR when you see the shape presented at the beginning of the trial. </b> </p><p>Press enter to move on.</p>","13","","","","","","","","","","","","","","","","","",""
"","instructions","12","49985","0.0-4.0","2160.8000000715256","","[{""page_index"":0,""viewing_time"":2160.600000023842}]","","","","","","","","","","","","","","","","","","","",""
"","image-keyboard-response","13","51627","0.0-5.0-0.0-0.0","1641.7999999523163","","","https://ziweizhang0304.github.io/Stats_learning_trig/img/Stim/FN_012_g.png","13","","","","","","","","","","","","","","","","","",""
"","animation","14","56049","0.0-5.0-0.0-1.0","","","","","","[{""stimulus"":""https://ziweizhang0304.github.io/Stats_learning_trig/img/Stim/FN_016_g.png"",""time"":346},{""stimulus"":""blank"",""time"":654.9000000953674},{""stimulus"":""https://ziweizhang0304.github.io/Stats_learning_trig/img/Stim/FN_025_g.png"",""time"":681.7000000476837},{""stimulus"":""blank"",""time"":996.8000000715256},{""stimulus"":""https://ziweizhang0304.github.io/Stats_learning_trig/img/Stim/FN_005_g.png"",""time"":1020.9000000953674},{""stimulus"":""blank"",""time"":1322.2000000476837},{""stimulus"":""https://ziweizhang0304.github.io/Stats_learning_trig/img/Stim/FN_019_g.png"",""time"":1360.8000000715256},{""stimulus"":""blank"",""time"":1668},{""stimulus"":""https://ziweizhang0304.github.io/Stats_learning_trig/img/Stim/FN_001_g.png"",""time"":1703.5},{""stimulus"":""blank"",""time"":2009.4000000953674},{""stimulus"":""https://ziweizhang0304.github.io/Stats_learning_trig/img/Stim/FN_012_g.png"",""time"":2056.8000000715256},{""stimulus"":""blank"",""time"":2370.2000000476837},{""stimulus"":""https://ziweizhang0304.github.io/Stats_learning_trig/img/Stim/FN_006_g.png"",""time"":2381},{""stimulus"":""blank"",""time"":2681.8000000715256},{""stimulus"":""https://ziweizhang0304.github.io/Stats_learning_trig/img/Stim/FN_022_g.png"",""time"":2721.2000000476837},{""stimulus"":""blank"",""time"":3025.3000000715256},{""stimulus"":""https://ziweizhang0304.github.io/Stats_learning_trig/img/Stim/FN_008_g.png"",""time"":3060.8000000715256},{""stimulus"":""blank"",""time"":3368.100000023842},{""stimulus"":""https://ziweizhang0304.github.io/Stats_learning_trig/img/Stim/FN_011_g.png"",""time"":3400.7000000476837},{""stimulus"":""blank"",""time"":3712.3000000715256},{""stimulus"":""https://ziweizhang0304.github.io/Stats_learning_trig/img/Stim/FN_002_g.png"",""time"":3742.4000000953674},{""stimulus"":""blank"",""time"":4054.100000023842},{""stimulus"":""https://ziweizhang0304.github.io/Stats_learning_trig/img/Stim/FN_021_g.png"",""time"":4081.3000000715256},{""stimulus"":""blank"",""time"":4382}]","[{""key_press"":32,""rt"":2387,""stimulus"":""https://ziweizhang0304.github.io/Stats_learning_trig/img/Stim/FN_006_g.png""}]","330.1999999284744","https://ziweizhang0304.github.io/Stats_learning_trig/img/Stim/FN_012_g.png","post_TD","1","2056.8000000715256","2387","slow","6","1","5a8f13595292b80001235e09","","","","","",""
"","image-keyboard-response","15","57976","0.0-5.0-1.0-0.0","1924.0999999046326","","","https://ziweizhang0304.github.io/Stats_learning_trig/img/Stim/FN_014_g.png","13","","","","","","","","","","","","","","","","","",""
"","animation","16","62397","0.0-5.0-1.0-1.0","","","","","","[{""stimulus"":""https://ziweizhang0304.github.io/Stats_learning_trig/img/Stim/FN_025_g.png"",""time"":350.10000002384186},{""stimulus"":""blank"",""time"":661.1000000238419},{""stimulus"":""https://ziweizhang0304.github.io/Stats_learning_trig/img/Stim/FN_019_g.png"",""time"":681.2000000476837},{""stimulus"":""blank"",""time"":986.5},{""stimulus"":""https://ziweizhang0304.github.io/Stats_learning_trig/img/Stim/FN_008_g.png"",""time"":1034.2000000476837},{""stimulus"":""blank"",""time"":1347.1000000238419},{""stimulus"":""https://ziweizhang0304.github.io/Stats_learning_trig/img/Stim/FN_005_g.png"",""time"":1360.8999999761581},{""stimulus"":""blank"",""time"":1675.2000000476837},{""stimulus"":""https://ziweizhang0304.github.io/Stats_learning_trig/img/Stim/FN_016_g.png"",""time"":1700.6000000238419},{""stimulus"":""blank"",""time"":2002.2000000476837},{""stimulus"":""https://ziweizhang0304.github.io/Stats_learning_trig/img/Stim/FN_002_g.png"",""time"":2049.600000023842},{""stimulus"":""blank"",""time"":2359.600000023842},{""stimulus"":""https://ziweizhang0304.github.io/Stats_learning_trig/img/Stim/FN_014_g.png"",""time"":2381.5},{""stimulus"":""blank"",""time"":2687},{""stimulus"":""https://ziweizhang0304.github.io/Stats_learning_trig/img/Stim/FN_024_g.png"",""time"":2735},{""stimulus"":""blank"",""time"":3046.5},{""stimulus"":""https://ziweizhang0304.github.io/Stats_learning_trig/img/Stim/FN_007_g.png"",""time"":3062},{""stimulus"":""blank"",""time"":3373},{""stimulus"":""https://ziweizhang0304.github.io/Stats_learning_trig/img/Stim/FN_001_g.png"",""time"":3401.399999976158},{""stimulus"":""blank"",""time"":3715.899999976158},{""stimulus"":""https://ziweizhang0304.github.io/Stats_learning_trig/img/Stim/FN_011_g.png"",""time"":3741},{""stimulus"":""blank"",""time"":4056.3000000715256},{""stimulus"":""https://ziweizhang0304.github.io/Stats_learning_trig/img/Stim/FN_021_g.png"",""time"":4081},{""stimulus"":""blank"",""time"":4382.800000071526}]","[{""key_press"":32,""rt"":1047.3999999761581,""stimulus"":""https://ziweizhang0304.github.io/Stats_learning_trig/img/Stim/FN_008_g.png""},{""key_press"":32,""rt"":2753.2000000476837,""stimulus"":""https://ziweizhang0304.github.io/Stats_learning_trig/img/Stim/FN_024_g.png""}]","371.7000000476837","https://ziweizhang0304.github.io/Stats_learning_trig/img/Stim/FN_014_g.png","post_TD","2","2381.5","2753.2000000476837","fast","7","1","5a8f13595292b80001235e09","","","","","",""
"","image-keyboard-response","17","63517","0.0-5.0-2.0-0.0","1118.3999999761581","","","https://ziweizhang0304.github.io/Stats_learning_trig/img/Stim/FN_022_g.png","13","","","","","","","","","","","","","","","","","",""
"","animation","18","67949","0.0-5.0-2.0-1.0","","","","","","[{""stimulus"":""https://ziweizhang0304.github.io/Stats_learning_trig/img/Stim/FN_001_g.png"",""time"":355.8000000715256},{""stimulus"":""blank"",""time"":667.5},{""stimulus"":""https://ziweizhang0304.github.io/Stats_learning_trig/img/Stim/FN_025_g.png"",""time"":681.3000000715256},{""stimulus"":""blank"",""time"":994.8999999761581},{""stimulus"":""https://ziweizhang0304.github.io/Stats_learning_trig/img/Stim/FN_016_g.png"",""time"":1026.2000000476837},{""stimulus"":""blank"",""time"":1337.3000000715256},{""stimulus"":""https://ziweizhang0304.github.io/Stats_learning_trig/img/Stim/FN_002_g.png"",""time"":1360.7000000476837},{""stimulus"":""blank"",""time"":1663.1000000238419},{""stimulus"":""https://ziweizhang0304.github.io/Stats_learning_trig/img/Stim/FN_011_g.png"",""time"":1709.1000000238419},{""stimulus"":""blank"",""time"":2020.3000000715256},{""stimulus"":""https://ziweizhang0304.github.io/Stats_learning_trig/img/Stim/FN_005_g.png"",""time"":2040.8999999761581},{""stimulus"":""blank"",""time"":2346.2000000476837},{""stimulus"":""https://ziweizhang0304.github.io/Stats_learning_trig/img/Stim/FN_012_g.png"",""time"":2393.3000000715256},{""stimulus"":""blank"",""time"":2703.3000000715256},{""stimulus"":""https://ziweizhang0304.github.io/Stats_learning_trig/img/Stim/FN_006_g.png"",""time"":2720.399999976158},{""stimulus"":""blank"",""time"":3031.600000023842},{""stimulus"":""https://ziweizhang0304.github.io/Stats_learning_trig/img/Stim/FN_022_g.png"",""time"":3062.2000000476837},{""stimulus"":""blank"",""time"":3370.2000000476837},{""stimulus"":""https://ziweizhang0304.github.io/Stats_learning_trig/img/Stim/FN_019_g.png"",""time"":3401.2000000476837},{""stimulus"":""blank"",""time"":3715.100000023842},{""stimulus"":""https://ziweizhang0304.github.io/Stats_learning_trig/img/Stim/FN_008_g.png"",""time"":3741.2000000476837},{""stimulus"":""blank"",""time"":4042.8000000715256},{""stimulus"":""https://ziweizhang0304.github.io/Stats_learning_trig/img/Stim/FN_021_g.png"",""time"":4081.7000000476837},{""stimulus"":""blank"",""time"":4385.100000023842}]","[{""key_press"":32,""rt"":3452.7000000476837,""stimulus"":""https://ziweizhang0304.github.io/Stats_learning_trig/img/Stim/FN_019_g.png""}]","390.5","https://ziweizhang0304.github.io/Stats_learning_trig/img/Stim/FN_022_g.png","post_TD","3","3062.2000000476837","3452.7000000476837","slow","9","3","5a8f13595292b80001235e09","","","","","",""
"","image-keyboard-response","19","69340","0.0-5.0-3.0-0.0","1387.8999999761581","","","https://ziweizhang0304.github.io/Stats_learning_trig/img/Stim/FN_007_g.png","13","","","","","","","","","","","","","","","","","",""
"","animation","20","73762","0.0-5.0-3.0-1.0","","","","","","[{""stimulus"":""https://ziweizhang0304.github.io/Stats_learning_trig/img/Stim/FN_001_g.png"",""time"":355.2999999523163},{""stimulus"":""blank"",""time"":667.2999999523163},{""stimulus"":""https://ziweizhang0304.github.io/Stats_learning_trig/img/Stim/FN_025_g.png"",""time"":682.5},{""stimulus"":""blank"",""time"":993.1000000238419},{""stimulus"":""https://ziweizhang0304.github.io/Stats_learning_trig/img/Stim/FN_005_g.png"",""time"":1021.1000000238419},{""stimulus"":""blank"",""time"":1334.3999999761581},{""stimulus"":""https://ziweizhang0304.github.io/Stats_learning_trig/img/Stim/FN_014_g.png"",""time"":1361.1000000238419},{""stimulus"":""blank"",""time"":1676.2999999523163},{""stimulus"":""https://ziweizhang0304.github.io/Stats_learning_trig/img/Stim/FN_024_g.png"",""time"":1701.1000000238419},{""stimulus"":""blank"",""time"":2003.3999999761581},{""stimulus"":""https://ziweizhang0304.github.io/Stats_learning_trig/img/Stim/FN_007_g.png"",""time"":2041.2999999523163},{""stimulus"":""blank"",""time"":2348.399999976158},{""stimulus"":""https://ziweizhang0304.github.io/Stats_learning_trig/img/Stim/FN_019_g.png"",""time"":2395.399999976158},{""stimulus"":""blank"",""time"":2706.100000023842},{""stimulus"":""https://ziweizhang0304.github.io/Stats_learning_trig/img/Stim/FN_008_g.png"",""time"":2721.6999999284744},{""stimulus"":""blank"",""time"":3030.6999999284744},{""stimulus"":""https://ziweizhang0304.github.io/Stats_learning_trig/img/Stim/FN_016_g.png"",""time"":3062.100000023842},{""stimulus"":""blank"",""time"":3373.899999976158},{""stimulus"":""https://ziweizhang0304.github.io/Stats_learning_trig/img/Stim/FN_011_g.png"",""time"":3401.7999999523163},{""stimulus"":""blank"",""time"":3714.2999999523163},{""stimulus"":""https://ziweizhang0304.github.io/Stats_learning_trig/img/Stim/FN_002_g.png"",""time"":3740.7999999523163},{""stimulus"":""blank"",""time"":4041.899999976158},{""stimulus"":""https://ziweizhang0304.github.io/Stats_learning_trig/img/Stim/FN_021_g.png"",""time"":4082.1999999284744},{""stimulus"":""blank"",""time"":4383.100000023842}]","[{""key_press"":32,""rt"":2444.600000023842,""stimulus"":""https://ziweizhang0304.github.io/Stats_learning_trig/img/Stim/FN_019_g.png""}]","403.3000000715256","https://ziweizhang0304.github.io/Stats_learning_trig/img/Stim/FN_007_g.png","post_TD","4","2041.2999999523163","2444.600000023842","fast","6","3","5a8f13595292b80001235e09","","","","","",""
"","image-keyboard-response","21","74507","0.0-5.0-4.0-0.0","742","","","https://ziweizhang0304.github.io/Stats_learning_trig/img/Stim/FN_024_g.png","13","","","","","","","","","","","","","","","","","",""
"","animation","22","78928","0.0-5.0-4.0-1.0","","","","","","[{""stimulus"":""https://ziweizhang0304.github.io/Stats_learning_trig/img/Stim/FN_019_g.png"",""time"":354.60000002384186},{""stimulus"":""blank"",""time"":663.4000000953674},{""stimulus"":""https://ziweizhang0304.github.io/Stats_learning_trig/img/Stim/FN_011_g.png"",""time"":681.8000000715256},{""stimulus"":""blank"",""time"":990.5},{""stimulus"":""https://ziweizhang0304.github.io/Stats_learning_trig/img/Stim/FN_016_g.png"",""time"":1021},{""stimulus"":""blank"",""time"":1333.6000000238419},{""stimulus"":""https://ziweizhang0304.github.io/Stats_learning_trig/img/Stim/FN_002_g.png"",""time"":1365.4000000953674},{""stimulus"":""blank"",""time"":1674.6000000238419},{""stimulus"":""https://ziweizhang0304.github.io/Stats_learning_trig/img/Stim/FN_014_g.png"",""time"":1700.8000000715256},{""stimulus"":""blank"",""time"":2002.7000000476837},{""stimulus"":""https://ziweizhang0304.github.io/Stats_learning_trig/img/Stim/FN_024_g.png"",""time"":2040.6000000238419},{""stimulus"":""blank"",""time"":2345.8000000715256},{""stimulus"":""https://ziweizhang0304.github.io/Stats_learning_trig/img/Stim/FN_007_g.png"",""time"":2393.4000000953674},{""stimulus"":""blank"",""time"":2703.100000023842},{""stimulus"":""https://ziweizhang0304.github.io/Stats_learning_trig/img/Stim/FN_001_g.png"",""time"":2721.7000000476837},{""stimulus"":""blank"",""time"":3026.8000000715256},{""stimulus"":""https://ziweizhang0304.github.io/Stats_learning_trig/img/Stim/FN_008_g.png"",""time"":3061.4000000953674},{""stimulus"":""blank"",""time"":3369.4000000953674},{""stimulus"":""https://ziweizhang0304.github.io/Stats_learning_trig/img/Stim/FN_005_g.png"",""time"":3401.3000000715256},{""stimulus"":""blank"",""time"":3712},{""stimulus"":""https://ziweizhang0304.github.io/Stats_learning_trig/img/Stim/FN_025_g.png"",""time"":3741.3000000715256},{""stimulus"":""blank"",""time"":4052.7000000476837},{""stimulus"":""https://ziweizhang0304.github.io/Stats_learning_trig/img/Stim/FN_021_g.png"",""time"":4081.100000023842},{""stimulus"":""blank"",""time"":4394.800000071526}]","[{""key_press"":32,""rt"":2446.3000000715256,""stimulus"":""https://ziweizhang0304.github.io/Stats_learning_trig/img/Stim/FN_007_g.png""}]","405.7000000476837","https://ziweizhang0304.github.io/Stats_learning_trig/img/Stim/FN_024_g.png","post_TD","5","2040.6000000238419","2446.3000000715256","fast","6","2","5a8f13595292b80001235e09","","","","","",""
"","image-keyboard-response","23","79750","0.0-5.0-5.0-0.0","819.2999999523163","","","https://ziweizhang0304.github.io/Stats_learning_trig/img/Stim/FN_012_g.png","13","","","","","","","","","","","","","","","","","",""
"","animation","24","84180","0.0-5.0-5.0-1.0","","","","","","[{""stimulus"":""https://ziweizhang0304.github.io/Stats_learning_trig/img/Stim/FN_001_g.png"",""time"":350.8000000715256},{""stimulus"":""blank"",""time"":660.7000000476837},{""stimulus"":""https://ziweizhang0304.github.io/Stats_learning_trig/img/Stim/FN_025_g.png"",""time"":680.8000000715256},{""stimulus"":""blank"",""time"":985.8000000715256},{""stimulus"":""https://ziweizhang0304.github.io/Stats_learning_trig/img/Stim/FN_016_g.png"",""time"":1033},{""stimulus"":""blank"",""time"":1343.7000000476837},{""stimulus"":""https://ziweizhang0304.github.io/Stats_learning_trig/img/Stim/FN_002_g.png"",""time"":1361.2000000476837},{""stimulus"":""blank"",""time"":1668.4000000953674},{""stimulus"":""https://ziweizhang0304.github.io/Stats_learning_trig/img/Stim/FN_011_g.png"",""time"":1716.4000000953674},{""stimulus"":""blank"",""time"":2028.6000000238419},{""stimulus"":""https://ziweizhang0304.github.io/Stats_learning_trig/img/Stim/FN_005_g.png"",""time"":2040.3000000715256},{""stimulus"":""blank"",""time"":2341.7000000476837},{""stimulus"":""https://ziweizhang0304.github.io/Stats_learning_trig/img/Stim/FN_012_g.png"",""time"":2381.8000000715256},{""stimulus"":""blank"",""time"":2684.100000023842},{""stimulus"":""https://ziweizhang0304.github.io/Stats_learning_trig/img/Stim/FN_006_g.png"",""time"":2731.5},{""stimulus"":""blank"",""time"":3043.3000000715256},{""stimulus"":""https://ziweizhang0304.github.io/Stats_learning_trig/img/Stim/FN_022_g.png"",""time"":3062.3000000715256},{""stimulus"":""blank"",""time"":3369.7000000476837},{""stimulus"":""https://ziweizhang0304.github.io/Stats_learning_trig/img/Stim/FN_019_g.png"",""time"":3416.3000000715256},{""stimulus"":""blank"",""time"":3727.600000023842},{""stimulus"":""https://ziweizhang0304.github.io/Stats_learning_trig/img/Stim/FN_008_g.png"",""time"":3741.3000000715256},{""stimulus"":""blank"",""time"":4055.5},{""stimulus"":""https://ziweizhang0304.github.io/Stats_learning_trig/img/Stim/FN_021_g.png"",""time"":4081.3000000715256},{""stimulus"":""blank"",""time"":4382.600000023842}]","[{""key_press"":32,""rt"":2781.600000023842,""stimulus"":""https://ziweizhang0304.github.io/Stats_learning_trig/img/Stim/FN_006_g.png""}]","399.7999999523163","https://ziweizhang0304.github.io/Stats_learning_trig/img/Stim/FN_012_g.png","post_TD","6","2381.8000000715256","2781.600000023842","slow","7","1","5a8f13595292b80001235e09","","","","","",""
"","image-keyboard-response","25","84855","0.0-5.0-6.0-0.0","672.3999999761581","","","https://ziweizhang0304.github.io/Stats_learning_trig/img/Stim/FN_007_g.png","13","","","","","","","","","","","","","","","","","",""
"","animation","26","89277","0.0-5.0-6.0-1.0","","","","","","[{""stimulus"":""https://ziweizhang0304.github.io/Stats_learning_trig/img/Stim/FN_002_g.png"",""time"":356},{""stimulus"":""blank"",""time"":664.3000000715256},{""stimulus"":""https://ziweizhang0304.github.io/Stats_learning_trig/img/Stim/FN_011_g.png"",""time"":682.6000000238419},{""stimulus"":""blank"",""time"":992.7000000476837},{""stimulus"":""https://ziweizhang0304.github.io/Stats_learning_trig/img/Stim/FN_016_g.png"",""time"":1021.2000000476837},{""stimulus"":""blank"",""time"":1334.8000000715256},{""stimulus"":""https://ziweizhang0304.github.io/Stats_learning_trig/img/Stim/FN_001_g.png"",""time"":1362.1000000238419},{""stimulus"":""blank"",""time"":1677.3999999761581},{""stimulus"":""https://ziweizhang0304.github.io/Stats_learning_trig/img/Stim/FN_005_g.png"",""time"":1702},{""stimulus"":""blank"",""time"":2004.3999999761581},{""stimulus"":""https://ziweizhang0304.github.io/Stats_learning_trig/img/Stim/FN_014_g.png"",""time"":2042.3000000715256},{""stimulus"":""blank"",""time"":2345.399999976158},{""stimulus"":""https://ziweizhang0304.github.io/Stats_learning_trig/img/Stim/FN_024_g.png"",""time"":2391.5},{""stimulus"":""blank"",""time"":2700.7000000476837},{""stimulus"":""https://ziweizhang0304.github.io/Stats_learning_trig/img/Stim/FN_007_g.png"",""time"":2722.3000000715256},{""stimulus"":""blank"",""time"":3029},{""stimulus"":""https://ziweizhang0304.github.io/Stats_learning_trig/img/Stim/FN_019_g.png"",""time"":3061.600000023842},{""stimulus"":""blank"",""time"":3367.600000023842},{""stimulus"":""https://ziweizhang0304.github.io/Stats_learning_trig/img/Stim/FN_008_g.png"",""time"":3402.2000000476837},{""stimulus"":""blank"",""time"":3709},{""stimulus"":""https://ziweizhang0304.github.io/Stats_learning_trig/img/Stim/FN_025_g.png"",""time"":3741},{""stimulus"":""blank"",""time"":4050.100000023842},{""stimulus"":""https://ziweizhang0304.github.io/Stats_learning_trig/img/Stim/FN_021_g.png"",""time"":4081.3000000715256},{""stimulus"":""blank"",""time"":4389.899999976158}]","[{""key_press"":32,""rt"":3131.2000000476837,""stimulus"":""https://ziweizhang0304.github.io/Stats_learning_trig/img/Stim/FN_019_g.png""}]","408.89999997615814","https://ziweizhang0304.github.io/Stats_learning_trig/img/Stim/FN_007_g.png","post_TD","7","2722.3000000715256","3131.2000000476837","fast","8","3","5a8f13595292b80001235e09","","","","","",""
"","image-keyboard-response","27","89698","0.0-5.0-7.0-0.0","419.7999999523163","","","https://ziweizhang0304.github.io/Stats_learning_trig/img/Stim/FN_014_g.png","13","","","","","","","","","","","","","","","","","",""
"","animation","28","94119","0.0-5.0-7.0-1.0","","","","","","[{""stimulus"":""https://ziweizhang0304.github.io/Stats_learning_trig/img/Stim/FN_019_g.png"",""time"":351.1999999284744},{""stimulus"":""blank"",""time"":661.8999999761581},{""stimulus"":""https://ziweizhang0304.github.io/Stats_learning_trig/img/Stim/FN_011_g.png"",""time"":681.6999999284744},{""stimulus"":""blank"",""time"":986.2999999523163},{""stimulus"":""https://ziweizhang0304.github.io/Stats_learning_trig/img/Stim/FN_016_g.png"",""time"":1021.2999999523163},{""stimulus"":""blank"",""time"":1331.0999999046326},{""stimulus"":""https://ziweizhang0304.github.io/Stats_learning_trig/img/Stim/FN_002_g.png"",""time"":1363.2999999523163},{""stimulus"":""blank"",""time"":1674.1999999284744},{""stimulus"":""https://ziweizhang0304.github.io/Stats_learning_trig/img/Stim/FN_014_g.png"",""time"":1701.1999999284744},{""stimulus"":""blank"",""time"":2002},{""stimulus"":""https://ziweizhang0304.github.io/Stats_learning_trig/img/Stim/FN_024_g.png"",""time"":2048.5999999046326},{""stimulus"":""blank"",""time"":2358.2999999523163},{""stimulus"":""https://ziweizhang0304.github.io/Stats_learning_trig/img/Stim/FN_007_g.png"",""time"":2381},{""stimulus"":""blank"",""time"":2684.1999999284744},{""stimulus"":""https://ziweizhang0304.github.io/Stats_learning_trig/img/Stim/FN_001_g.png"",""time"":2721.5},{""stimulus"":""blank"",""time"":3026.2999999523163},{""stimulus"":""https://ziweizhang0304.github.io/Stats_learning_trig/img/Stim/FN_008_g.png"",""time"":3060.399999976158},{""stimulus"":""blank"",""time"":3367},{""stimulus"":""https://ziweizhang0304.github.io/Stats_learning_trig/img/Stim/FN_005_g.png"",""time"":3400.899999976158},{""stimulus"":""blank"",""time"":3709.2999999523163},{""stimulus"":""https://ziweizhang0304.github.io/Stats_learning_trig/img/Stim/FN_025_g.png"",""time"":3741.5999999046326},{""stimulus"":""blank"",""time"":4052.5999999046326},{""stimulus"":""https://ziweizhang0304.github.io/Stats_learning_trig/img/Stim/FN_021_g.png"",""time"":4081.0999999046326},{""stimulus"":""blank"",""time"":4393.799999952316}]","[{""key_press"":32,""rt"":2101.600000023842,""stimulus"":""https://ziweizhang0304.github.io/Stats_learning_trig/img/Stim/FN_024_g.png""}]","400.40000009536743","https://ziweizhang0304.github.io/Stats_learning_trig/img/Stim/FN_014_g.png","post_TD","8","1701.1999999284744","2101.600000023842","fast","5","1","5a8f13595292b80001235e09","","","","","",""
"","image-keyboard-response","29","94716","0.0-5.0-8.0-0.0","594.7000000476837","","","https://ziweizhang0304.github.io/Stats_learning_trig/img/Stim/FN_024_g.png","13","","","","","","","","","","","","","","","","","",""
"","animation","30","99138","0.0-5.0-8.0-1.0","","","","","","[{""stimulus"":""https://ziweizhang0304.github.io/Stats_learning_trig/img/Stim/FN_025_g.png"",""time"":341.5},{""stimulus"":""blank"",""time"":649.8999999761581},{""stimulus"":""https://ziweizhang0304.github.io/Stats_learning_trig/img/Stim/FN_019_g.png"",""time"":681.0999999046326},{""stimulus"":""blank"",""time"":989.3999999761581},{""stimulus"":""https://ziweizhang0304.github.io/Stats_learning_trig/img/Stim/FN_008_g.png"",""time"":1020.7999999523163},{""stimulus"":""blank"",""time"":1332.2999999523163},{""stimulus"":""https://ziweizhang0304.github.io/Stats_learning_trig/img/Stim/FN_005_g.png"",""time"":1361},{""stimulus"":""blank"",""time"":1673.5999999046326},{""stimulus"":""https://ziweizhang0304.github.io/Stats_learning_trig/img/Stim/FN_016_g.png"",""time"":1701.3999999761581},{""stimulus"":""blank"",""time"":2015.1999999284744},{""stimulus"":""https://ziweizhang0304.github.io/Stats_learning_trig/img/Stim/FN_002_g.png"",""time"":2041.0999999046326},{""stimulus"":""blank"",""time"":2342.6999999284744},{""stimulus"":""https://ziweizhang0304.github.io/Stats_learning_trig/img/Stim/FN_014_g.png"",""time"":2381},{""stimulus"":""blank"",""time"":2684},{""stimulus"":""https://ziweizhang0304.github.io/Stats_learning_trig/img/Stim/FN_024_g.png"",""time"":2731.399999976158},{""stimulus"":""blank"",""time"":3042},{""stimulus"":""https://ziweizhang0304.github.io/Stats_learning_trig/img/Stim/FN_007_g.png"",""time"":3060.5},{""stimulus"":""blank"",""time"":3366.2999999523163},{""stimulus"":""https://ziweizhang0304.github.io/Stats_learning_trig/img/Stim/FN_001_g.png"",""time"":3401.2999999523163},{""stimulus"":""blank"",""time"":3711.5},{""stimulus"":""https://ziweizhang0304.github.io/Stats_learning_trig/img/Stim/FN_011_g.png"",""time"":3744},{""stimulus"":""blank"",""time"":4053},{""stimulus"":""https://ziweizhang0304.github.io/Stats_learning_trig/img/Stim/FN_021_g.png"",""time"":4080.899999976158},{""stimulus"":""blank"",""time"":4395.899999976158}]","[{""key_press"":32,""rt"":3105.3000000715256,""stimulus"":""https://ziweizhang0304.github.io/Stats_learning_trig/img/Stim/FN_007_g.png""}]","373.90000009536743","https://ziweizhang0304.github.io/Stats_learning_trig/img/Stim/FN_024_g.png","post_TD","9","2731.399999976158","3105.3000000715256","fast","8","2","5a8f13595292b80001235e09","","","","","",""
"","image-keyboard-response","31","99523","0.0-5.0-9.0-0.0","381.7999999523163","","","https://ziweizhang0304.github.io/Stats_learning_trig/img/Stim/FN_022_g.png","13","","","","","","","","","","","","","","","","","",""
"","animation","32","103944","0.0-5.0-9.0-1.0","","","","","","[{""stimulus"":""https://ziweizhang0304.github.io/Stats_learning_trig/img/Stim/FN_016_g.png"",""time"":353.7999999523163},{""stimulus"":""blank"",""time"":662.3999999761581},{""stimulus"":""https://ziweizhang0304.github.io/Stats_learning_trig/img/Stim/FN_025_g.png"",""time"":691.6999999284744},{""stimulus"":""blank"",""time"":1004.6999999284744},{""stimulus"":""https://ziweizhang0304.github.io/Stats_learning_trig/img/Stim/FN_005_g.png"",""time"":1021.6000000238419},{""stimulus"":""blank"",""time"":1331},{""stimulus"":""https://ziweizhang0304.github.io/Stats_learning_trig/img/Stim/FN_019_g.png"",""time"":1362.2999999523163},{""stimulus"":""blank"",""time"":1676.1999999284744},{""stimulus"":""https://ziweizhang0304.github.io/Stats_learning_trig/img/Stim/FN_001_g.png"",""time"":1700.8999999761581},{""stimulus"":""blank"",""time"":2003.1000000238419},{""stimulus"":""https://ziweizhang0304.github.io/Stats_learning_trig/img/Stim/FN_012_g.png"",""time"":2041.7999999523163},{""stimulus"":""blank"",""time"":2345.600000023842},{""stimulus"":""https://ziweizhang0304.github.io/Stats_learning_trig/img/Stim/FN_006_g.png"",""time"":2381.600000023842},{""stimulus"":""blank"",""time"":2687.1999999284744},{""stimulus"":""https://ziweizhang0304.github.io/Stats_learning_trig/img/Stim/FN_022_g.png"",""time"":2725.6999999284744},{""stimulus"":""blank"",""time"":3027.5},{""stimulus"":""https://ziweizhang0304.github.io/Stats_learning_trig/img/Stim/FN_008_g.png"",""time"":3074.7999999523163},{""stimulus"":""blank"",""time"":3386.5},{""stimulus"":""https://ziweizhang0304.github.io/Stats_learning_trig/img/Stim/FN_011_g.png"",""time"":3401.1999999284744},{""stimulus"":""blank"",""time"":3714.100000023842},{""stimulus"":""https://ziweizhang0304.github.io/Stats_learning_trig/img/Stim/FN_002_g.png"",""time"":3740.7999999523163},{""stimulus"":""blank"",""time"":4056.899999976158},{""stimulus"":""https://ziweizhang0304.github.io/Stats_learning_trig/img/Stim/FN_021_g.png"",""time"":4088.399999976158},{""stimulus"":""blank"",""time"":4398.899999976158}]","[{""key_press"":32,""rt"":3112.399999976158,""stimulus"":""https://ziweizhang0304.github.io/Stats_learning_trig/img/Stim/FN_008_g.png""}]","386.7000000476837","https://ziweizhang0304.github.io/Stats_learning_trig/img/Stim/FN_022_g.png","post_TD","10","2725.6999999284744","3112.399999976158","slow","8","3","5a8f13595292b80001235e09","","","","","",""
"","image-keyboard-response","33","104897","0.0-5.0-10.0-0.0","949.5","","","https://ziweizhang0304.github.io/Stats_learning_trig/img/Stim/FN_024_g.png","13","","","","","","","","","","","","","","","","","",""
"","animation","34","109329","0.0-5.0-10.0-1.0","","","","","","[{""stimulus"":""https://ziweizhang0304.github.io/Stats_learning_trig/img/Stim/FN_002_g.png"",""time"":346.2999999523163},{""stimulus"":""blank"",""time"":656},{""stimulus"":""https://ziweizhang0304.github.io/Stats_learning_trig/img/Stim/FN_011_g.png"",""time"":681},{""stimulus"":""blank"",""time"":997.1999999284744},{""stimulus"":""https://ziweizhang0304.github.io/Stats_learning_trig/img/Stim/FN_016_g.png"",""time"":1029.1000000238419},{""stimulus"":""blank"",""time"":1337.6999999284744},{""stimulus"":""https://ziweizhang0304.github.io/Stats_learning_trig/img/Stim/FN_001_g.png"",""time"":1361.2999999523163},{""stimulus"":""blank"",""time"":1665},{""stimulus"":""https://ziweizhang0304.github.io/Stats_learning_trig/img/Stim/FN_005_g.png"",""time"":1701.2999999523163},{""stimulus"":""blank"",""time"":2005.7999999523163},{""stimulus"":""https://ziweizhang0304.github.io/Stats_learning_trig/img/Stim/FN_014_g.png"",""time"":2053.1999999284744},{""stimulus"":""blank"",""time"":2362.1999999284744},{""stimulus"":""https://ziweizhang0304.github.io/Stats_learning_trig/img/Stim/FN_024_g.png"",""time"":2381.1999999284744},{""stimulus"":""blank"",""time"":2690.100000023842},{""stimulus"":""https://ziweizhang0304.github.io/Stats_learning_trig/img/Stim/FN_007_g.png"",""time"":2721},{""stimulus"":""blank"",""time"":3033},{""stimulus"":""https://ziweizhang0304.github.io/Stats_learning_trig/img/Stim/FN_019_g.png"",""time"":3065.2999999523163},{""stimulus"":""blank"",""time"":3375.5},{""stimulus"":""https://ziweizhang0304.github.io/Stats_learning_trig/img/Stim/FN_008_g.png"",""time"":3400.7999999523163},{""stimulus"":""blank"",""time"":3701.399999976158},{""stimulus"":""https://ziweizhang0304.github.io/Stats_learning_trig/img/Stim/FN_025_g.png"",""time"":3749.5},{""stimulus"":""blank"",""time"":4058.399999976158},{""stimulus"":""https://ziweizhang0304.github.io/Stats_learning_trig/img/Stim/FN_021_g.png"",""time"":4080.600000023842},{""stimulus"":""blank"",""time"":4384.600000023842}]","[{""key_press"":32,""rt"":3449.399999976158,""stimulus"":""https://ziweizhang0304.github.io/Stats_learning_trig/img/Stim/FN_008_g.png""}]","1068.2000000476837","https://ziweizhang0304.github.io/Stats_learning_trig/img/Stim/FN_024_g.png","post_TD","11","2381.1999999284744","3449.399999976158","fast","7","2","5a8f13595292b80001235e09","","","","","",""
"","image-keyboard-response","35","109730","0.0-5.0-11.0-0.0","397.89999997615814","","","https://ziweizhang0304.github.io/Stats_learning_trig/img/Stim/FN_006_g.png","13","","","","","","","","","","","","","","","","","",""
"","animation","36","114151","0.0-5.0-11.0-1.0","","","","","","[{""stimulus"":""https://ziweizhang0304.github.io/Stats_learning_trig/img/Stim/FN_005_g.png"",""time"":345},{""stimulus"":""blank"",""time"":654.7000000476837},{""stimulus"":""https://ziweizhang0304.github.io/Stats_learning_trig/img/Stim/FN_001_g.png"",""time"":685.2000000476837},{""stimulus"":""blank"",""time"":995.5},{""stimulus"":""https://ziweizhang0304.github.io/Stats_learning_trig/img/Stim/FN_016_g.png"",""time"":1027.8000000715256},{""stimulus"":""blank"",""time"":1337.3000000715256},{""stimulus"":""https://ziweizhang0304.github.io/Stats_learning_trig/img/Stim/FN_012_g.png"",""time"":1361.4000000953674},{""stimulus"":""blank"",""time"":1662.8000000715256},{""stimulus"":""https://ziweizhang0304.github.io/Stats_learning_trig/img/Stim/FN_006_g.png"",""time"":1701.7000000476837},{""stimulus"":""blank"",""time"":2005.7000000476837},{""stimulus"":""https://ziweizhang0304.github.io/Stats_learning_trig/img/Stim/FN_022_g.png"",""time"":2053.2000000476837},{""stimulus"":""blank"",""time"":2361.8000000715256},{""stimulus"":""https://ziweizhang0304.github.io/Stats_learning_trig/img/Stim/FN_019_g.png"",""time"":2381.600000023842},{""stimulus"":""blank"",""time"":2688.4000000953674},{""stimulus"":""https://ziweizhang0304.github.io/Stats_learning_trig/img/Stim/FN_008_g.png"",""time"":2736.100000023842},{""stimulus"":""blank"",""time"":3047.3000000715256},{""stimulus"":""https://ziweizhang0304.github.io/Stats_learning_trig/img/Stim/FN_011_g.png"",""time"":3060.8000000715256},{""stimulus"":""blank"",""time"":3373.7000000476837},{""stimulus"":""https://ziweizhang0304.github.io/Stats_learning_trig/img/Stim/FN_002_g.png"",""time"":3401},{""stimulus"":""blank"",""time"":3701.5},{""stimulus"":""https://ziweizhang0304.github.io/Stats_learning_trig/img/Stim/FN_025_g.png"",""time"":3740.8000000715256},{""stimulus"":""blank"",""time"":4044.100000023842},{""stimulus"":""https://ziweizhang0304.github.io/Stats_learning_trig/img/Stim/FN_021_g.png"",""time"":4080.9000000953674},{""stimulus"":""blank"",""time"":4384.300000071526}]","[{""key_press"":32,""rt"":2081.3000000715256,""stimulus"":""https://ziweizhang0304.github.io/Stats_learning_trig/img/Stim/FN_022_g.png""}]","379.60000002384186","https://ziweizhang0304.github.io/Stats_learning_trig/img/Stim/FN_006_g.png","post_TD","12","1701.7000000476837","2081.3000000715256","slow","5","2","5a8f13595292b80001235e09","","","","","",""
"","image-keyboard-response","37","114519","0.0-5.0-12.0-0.0","365.2999999523163","","","https://ziweizhang0304.github.io/Stats_learning_trig/img/Stim/FN_022_g.png","13","","","","","","","","","","","","","","","","","",""
"","animation","38","118941","0.0-5.0-12.0-1.0","","","","","","[{""stimulus"":""https://ziweizhang0304.github.io/Stats_learning_trig/img/Stim/FN_001_g.png"",""time"":356.3000000715256},{""stimulus"":""blank"",""time"":666.7000000476837},{""stimulus"":""https://ziweizhang0304.github.io/Stats_learning_trig/img/Stim/FN_002_g.png"",""time"":681.7000000476837},{""stimulus"":""blank"",""time"":995.1000000238419},{""stimulus"":""https://ziweizhang0304.github.io/Stats_learning_trig/img/Stim/FN_005_g.png"",""time"":1021},{""stimulus"":""blank"",""time"":1322.7000000476837},{""stimulus"":""https://ziweizhang0304.github.io/Stats_learning_trig/img/Stim/FN_008_g.png"",""time"":1361.2000000476837},{""stimulus"":""blank"",""time"":1666.6000000238419},{""stimulus"":""https://ziweizhang0304.github.io/Stats_learning_trig/img/Stim/FN_012_g.png"",""time"":1713.7000000476837},{""stimulus"":""blank"",""time"":2023.6000000238419},{""stimulus"":""https://ziweizhang0304.github.io/Stats_learning_trig/img/Stim/FN_006_g.png"",""time"":2041.1000000238419},{""stimulus"":""blank"",""time"":2351.2000000476837},{""stimulus"":""https://ziweizhang0304.github.io/Stats_learning_trig/img/Stim/FN_022_g.png"",""time"":2381.8000000715256},{""stimulus"":""blank"",""time"":2693.600000023842},{""stimulus"":""https://ziweizhang0304.github.io/Stats_learning_trig/img/Stim/FN_019_g.png"",""time"":2725.600000023842},{""stimulus"":""blank"",""time"":3036.100000023842},{""stimulus"":""https://ziweizhang0304.github.io/Stats_learning_trig/img/Stim/FN_016_g.png"",""time"":3061.600000023842},{""stimulus"":""blank"",""time"":3374.600000023842},{""stimulus"":""https://ziweizhang0304.github.io/Stats_learning_trig/img/Stim/FN_011_g.png"",""time"":3406.399999976158},{""stimulus"":""blank"",""time"":3717.7000000476837},{""stimulus"":""https://ziweizhang0304.github.io/Stats_learning_trig/img/Stim/FN_025_g.png"",""time"":3741.3000000715256},{""stimulus"":""blank"",""time"":4047.100000023842},{""stimulus"":""https://ziweizhang0304.github.io/Stats_learning_trig/img/Stim/FN_021_g.png"",""time"":4094.100000023842},{""stimulus"":""blank"",""time"":4408.100000023842}]","[{""key_press"":32,""rt"":2955.899999976158,""stimulus"":""https://ziweizhang0304.github.io/Stats_learning_trig/img/Stim/FN_019_g.png""}]","574.0999999046326","https://ziweizhang0304.github.io/Stats_learning_trig/img/Stim/FN_022_g.png","post_TD","13","2381.8000000715256","2955.899999976158","slow","7","3","5a8f13595292b80001235e09","","","","","",""
"","image-keyboard-response","39","119333","0.0-5.0-13.0-0.0","388.7999999523163","","","https://ziweizhang0304.github.io/Stats_learning_trig/img/Stim/FN_022_g.png","13","","","","","","","","","","","","","","","","","",""
"","animation","40","123759","0.0-5.0-13.0-1.0","","","","","","[{""stimulus"":""https://ziweizhang0304.github.io/Stats_learning_trig/img/Stim/FN_005_g.png"",""time"":343.5},{""stimulus"":""blank"",""time"":655.3999999761581},{""stimulus"":""https://ziweizhang0304.github.io/Stats_learning_trig/img/Stim/FN_001_g.png"",""time"":681.1000000238419},{""stimulus"":""blank"",""time"":982.6000000238419},{""stimulus"":""https://ziweizhang0304.github.io/Stats_learning_trig/img/Stim/FN_016_g.png"",""time"":1021.7000000476837},{""stimulus"":""blank"",""time"":1324.3000000715256},{""stimulus"":""https://ziweizhang0304.github.io/Stats_learning_trig/img/Stim/FN_012_g.png"",""time"":1361.3999999761581},{""stimulus"":""blank"",""time"":1667.2000000476837},{""stimulus"":""https://ziweizhang0304.github.io/Stats_learning_trig/img/Stim/FN_006_g.png"",""time"":1713.3999999761581},{""stimulus"":""blank"",""time"":2025.5},{""stimulus"":""https://ziweizhang0304.github.io/Stats_learning_trig/img/Stim/FN_022_g.png"",""time"":2041.8999999761581},{""stimulus"":""blank"",""time"":2354.3000000715256},{""stimulus"":""https://ziweizhang0304.github.io/Stats_learning_trig/img/Stim/FN_019_g.png"",""time"":2382.399999976158},{""stimulus"":""blank"",""time"":2695.5},{""stimulus"":""https://ziweizhang0304.github.io/Stats_learning_trig/img/Stim/FN_008_g.png"",""time"":2727.7000000476837},{""stimulus"":""blank"",""time"":3038.899999976158},{""stimulus"":""https://ziweizhang0304.github.io/Stats_learning_trig/img/Stim/FN_011_g.png"",""time"":3061.600000023842},{""stimulus"":""blank"",""time"":3366.600000023842},{""stimulus"":""https://ziweizhang0304.github.io/Stats_learning_trig/img/Stim/FN_002_g.png"",""time"":3413.899999976158},{""stimulus"":""blank"",""time"":3724.3000000715256},{""stimulus"":""https://ziweizhang0304.github.io/Stats_learning_trig/img/Stim/FN_025_g.png"",""time"":3741.5},{""stimulus"":""blank"",""time"":4051.100000023842},{""stimulus"":""https://ziweizhang0304.github.io/Stats_learning_trig/img/Stim/FN_021_g.png"",""time"":4081.8000000715256},{""stimulus"":""blank"",""time"":4394.399999976158}]","[{""key_press"":32,""rt"":2474.399999976158,""stimulus"":""https://ziweizhang0304.github.io/Stats_learning_trig/img/Stim/FN_019_g.png""}]","432.5","https://ziweizhang0304.github.io/Stats_learning_trig/img/Stim/FN_022_g.png","post_TD","14","2041.8999999761581","2474.399999976158","slow","6","3","5a8f13595292b80001235e09","","","","","",""
"","image-keyboard-response","41","124671","0.0-5.0-14.0-0.0","911.3000000715256","","","https://ziweizhang0304.github.io/Stats_learning_trig/img/Stim/FN_006_g.png","13","","","","","","","","","","","","","","","","","",""
"","animation","42","129092","0.0-5.0-14.0-1.0","","","","","","[{""stimulus"":""https://ziweizhang0304.github.io/Stats_learning_trig/img/Stim/FN_001_g.png"",""time"":350.40000009536743},{""stimulus"":""blank"",""time"":660.7000000476837},{""stimulus"":""https://ziweizhang0304.github.io/Stats_learning_trig/img/Stim/FN_025_g.png"",""time"":682.3000000715256},{""stimulus"":""blank"",""time"":986.9000000953674},{""stimulus"":""https://ziweizhang0304.github.io/Stats_learning_trig/img/Stim/FN_016_g.png"",""time"":1021.1000000238419},{""stimulus"":""blank"",""time"":1326.8000000715256},{""stimulus"":""https://ziweizhang0304.github.io/Stats_learning_trig/img/Stim/FN_002_g.png"",""time"":1360.7000000476837},{""stimulus"":""blank"",""time"":1669},{""stimulus"":""https://ziweizhang0304.github.io/Stats_learning_trig/img/Stim/FN_011_g.png"",""time"":1701.8000000715256},{""stimulus"":""blank"",""time"":2012.7000000476837},{""stimulus"":""https://ziweizhang0304.github.io/Stats_learning_trig/img/Stim/FN_005_g.png"",""time"":2041.5},{""stimulus"":""blank"",""time"":2354.5},{""stimulus"":""https://ziweizhang0304.github.io/Stats_learning_trig/img/Stim/FN_012_g.png"",""time"":2382.4000000953674},{""stimulus"":""blank"",""time"":2696.2000000476837},{""stimulus"":""https://ziweizhang0304.github.io/Stats_learning_trig/img/Stim/FN_006_g.png"",""time"":2721.3000000715256},{""stimulus"":""blank"",""time"":3023.2000000476837},{""stimulus"":""https://ziweizhang0304.github.io/Stats_learning_trig/img/Stim/FN_022_g.png"",""time"":3069.8000000715256},{""stimulus"":""blank"",""time"":3380.7000000476837},{""stimulus"":""https://ziweizhang0304.github.io/Stats_learning_trig/img/Stim/FN_019_g.png"",""time"":3401.9000000953674},{""stimulus"":""blank"",""time"":3709.5},{""stimulus"":""https://ziweizhang0304.github.io/Stats_learning_trig/img/Stim/FN_008_g.png"",""time"":3740.9000000953674},{""stimulus"":""blank"",""time"":4042.5},{""stimulus"":""https://ziweizhang0304.github.io/Stats_learning_trig/img/Stim/FN_021_g.png"",""time"":4081.2000000476837},{""stimulus"":""blank"",""time"":4394.100000023842}]","[{""key_press"":32,""rt"":3098.2000000476837,""stimulus"":""https://ziweizhang0304.github.io/Stats_learning_trig/img/Stim/FN_022_g.png""}]","376.89999997615814","https://ziweizhang0304.github.io/Stats_learning_trig/img/Stim/FN_006_g.png","post_TD","15","2721.3000000715256","3098.2000000476837","slow","8","2","5a8f13595292b80001235e09","","","","","",""
"","image-keyboard-response","43","129425","0.0-5.0-15.0-0.0","329.89999997615814","","","https://ziweizhang0304.github.io/Stats_learning_trig/img/Stim/FN_006_g.png","13","","","","","","","","","","","","","","","","","",""
"","animation","44","133860","0.0-5.0-15.0-1.0","","","","","","[{""stimulus"":""https://ziweizhang0304.github.io/Stats_learning_trig/img/Stim/FN_016_g.png"",""time"":356.7000000476837},{""stimulus"":""blank"",""time"":666.3999999761581},{""stimulus"":""https://ziweizhang0304.github.io/Stats_learning_trig/img/Stim/FN_025_g.png"",""time"":682},{""stimulus"":""blank"",""time"":992.8999999761581},{""stimulus"":""https://ziweizhang0304.github.io/Stats_learning_trig/img/Stim/FN_005_g.png"",""time"":1021.5},{""stimulus"":""blank"",""time"":1333.8999999761581},{""stimulus"":""https://ziweizhang0304.github.io/Stats_learning_trig/img/Stim/FN_019_g.png"",""time"":1361.3999999761581},{""stimulus"":""blank"",""time"":1675.2000000476837},{""stimulus"":""https://ziweizhang0304.github.io/Stats_learning_trig/img/Stim/FN_001_g.png"",""time"":1701.7000000476837},{""stimulus"":""blank"",""time"":2017.6000000238419},{""stimulus"":""https://ziweizhang0304.github.io/Stats_learning_trig/img/Stim/FN_012_g.png"",""time"":2049.5},{""stimulus"":""blank"",""time"":2361.8000000715256},{""stimulus"":""https://ziweizhang0304.github.io/Stats_learning_trig/img/Stim/FN_006_g.png"",""time"":2381.100000023842},{""stimulus"":""blank"",""time"":2689.899999976158},{""stimulus"":""https://ziweizhang0304.github.io/Stats_learning_trig/img/Stim/FN_022_g.png"",""time"":2721.100000023842},{""stimulus"":""blank"",""time"":3031.8000000715256},{""stimulus"":""https://ziweizhang0304.github.io/Stats_learning_trig/img/Stim/FN_008_g.png"",""time"":3061.100000023842},{""stimulus"":""blank"",""time"":3375.5},{""stimulus"":""https://ziweizhang0304.github.io/Stats_learning_trig/img/Stim/FN_011_g.png"",""time"":3401.3000000715256},{""stimulus"":""blank"",""time"":3716.100000023842},{""stimulus"":""https://ziweizhang0304.github.io/Stats_learning_trig/img/Stim/FN_002_g.png"",""time"":3741.399999976158},{""stimulus"":""blank"",""time"":4043.2000000476837},{""stimulus"":""https://ziweizhang0304.github.io/Stats_learning_trig/img/Stim/FN_021_g.png"",""time"":4081.100000023842},{""stimulus"":""blank"",""time"":4387.5}]","[{""key_press"":32,""rt"":3112,""stimulus"":""https://ziweizhang0304.github.io/Stats_learning_trig/img/Stim/FN_008_g.png""}]","730.8999999761581","https://ziweizhang0304.github.io/Stats_learning_trig/img/Stim/FN_006_g.png","post_TD","16","2381.100000023842","3112","slow","7","2","5a8f13595292b80001235e09","","","","","",""
"","image-keyboard-response","45","134258","0.0-5.0-16.0-0.0","394.90000009536743","","","https://ziweizhang0304.github.io/Stats_learning_trig/img/Stim/FN_007_g.png","13","","","","","","","","","","","","","","","","","",""
"","animation","46","138680","0.0-5.0-16.0-1.0","","","","","","[{""stimulus"":""https://ziweizhang0304.github.io/Stats_learning_trig/img/Stim/FN_019_g.png"",""time"":348.5},{""stimulus"":""blank"",""time"":660.2000000476837},{""stimulus"":""https://ziweizhang0304.github.io/Stats_learning_trig/img/Stim/FN_011_g.png"",""time"":681.2000000476837},{""stimulus"":""blank"",""time"":985.6000000238419},{""stimulus"":""https://ziweizhang0304.github.io/Stats_learning_trig/img/Stim/FN_016_g.png"",""time"":1021.7000000476837},{""stimulus"":""blank"",""time"":1326.6000000238419},{""stimulus"":""https://ziweizhang0304.github.io/Stats_learning_trig/img/Stim/FN_002_g.png"",""time"":1360.9000000953674},{""stimulus"":""blank"",""time"":1668.6000000238419},{""stimulus"":""https://ziweizhang0304.github.io/Stats_learning_trig/img/Stim/FN_014_g.png"",""time"":1701.5},{""stimulus"":""blank"",""time"":2010.4000000953674},{""stimulus"":""https://ziweizhang0304.github.io/Stats_learning_trig/img/Stim/FN_024_g.png"",""time"":2041},{""stimulus"":""blank"",""time"":2351.600000023842},{""stimulus"":""https://ziweizhang0304.github.io/Stats_learning_trig/img/Stim/FN_007_g.png"",""time"":2383},{""stimulus"":""blank"",""time"":2694.9000000953674},{""stimulus"":""https://ziweizhang0304.github.io/Stats_learning_trig/img/Stim/FN_001_g.png"",""time"":2720.8000000715256},{""stimulus"":""blank"",""time"":3035.8000000715256},{""stimulus"":""https://ziweizhang0304.github.io/Stats_learning_trig/img/Stim/FN_008_g.png"",""time"":3068},{""stimulus"":""blank"",""time"":3376.600000023842},{""stimulus"":""https://ziweizhang0304.github.io/Stats_learning_trig/img/Stim/FN_005_g.png"",""time"":3406.3000000715256},{""stimulus"":""blank"",""time"":3720.4000000953674},{""stimulus"":""https://ziweizhang0304.github.io/Stats_learning_trig/img/Stim/FN_025_g.png"",""time"":3741.5},{""stimulus"":""blank"",""time"":4047.3000000715256},{""stimulus"":""https://ziweizhang0304.github.io/Stats_learning_trig/img/Stim/FN_021_g.png"",""time"":4094.7000000476837},{""stimulus"":""blank"",""time"":4405.400000095367}]","[{""key_press"":32,""rt"":2792.2000000476837,""stimulus"":""https://ziweizhang0304.github.io/Stats_learning_trig/img/Stim/FN_001_g.png""}]","409.2000000476837","https://ziweizhang0304.github.io/Stats_learning_trig/img/Stim/FN_007_g.png","post_TD","17","2383","2792.2000000476837","fast","7","3","5a8f13595292b80001235e09","","","","","",""
"","image-keyboard-response","47","139062","0.0-5.0-17.0-0.0","381.09999990463257","","","https://ziweizhang0304.github.io/Stats_learning_trig/img/Stim/FN_006_g.png","13","","","","","","","","","","","","","","","","","",""
"","animation","48","143486","0.0-5.0-17.0-1.0","","","","","","[{""stimulus"":""https://ziweizhang0304.github.io/Stats_learning_trig/img/Stim/FN_001_g.png"",""time"":352},{""stimulus"":""blank"",""time"":661.2999999523163},{""stimulus"":""https://ziweizhang0304.github.io/Stats_learning_trig/img/Stim/FN_002_g.png"",""time"":681.6999999284744},{""stimulus"":""blank"",""time"":991.5999999046326},{""stimulus"":""https://ziweizhang0304.github.io/Stats_learning_trig/img/Stim/FN_005_g.png"",""time"":1023},{""stimulus"":""blank"",""time"":1334.2999999523163},{""stimulus"":""https://ziweizhang0304.github.io/Stats_learning_trig/img/Stim/FN_008_g.png"",""time"":1361.2999999523163},{""stimulus"":""blank"",""time"":1675.5},{""stimulus"":""https://ziweizhang0304.github.io/Stats_learning_trig/img/Stim/FN_012_g.png"",""time"":1701.8999999761581},{""stimulus"":""blank"",""time"":2016.2999999523163},{""stimulus"":""https://ziweizhang0304.github.io/Stats_learning_trig/img/Stim/FN_006_g.png"",""time"":2049.0999999046326},{""stimulus"":""blank"",""time"":2358},{""stimulus"":""https://ziweizhang0304.github.io/Stats_learning_trig/img/Stim/FN_022_g.png"",""time"":2381.899999976158},{""stimulus"":""blank"",""time"":2683.899999976158},{""stimulus"":""https://ziweizhang0304.github.io/Stats_learning_trig/img/Stim/FN_019_g.png"",""time"":2721.5999999046326},{""stimulus"":""blank"",""time"":3025.5},{""stimulus"":""https://ziweizhang0304.github.io/Stats_learning_trig/img/Stim/FN_016_g.png"",""time"":3061.399999976158},{""stimulus"":""blank"",""time"":3367.5999999046326},{""stimulus"":""https://ziweizhang0304.github.io/Stats_learning_trig/img/Stim/FN_011_g.png"",""time"":3402.899999976158},{""stimulus"":""blank"",""time"":3710.899999976158},{""stimulus"":""https://ziweizhang0304.github.io/Stats_learning_trig/img/Stim/FN_025_g.png"",""time"":3741.6999999284744},{""stimulus"":""blank"",""time"":4051},{""stimulus"":""https://ziweizhang0304.github.io/Stats_learning_trig/img/Stim/FN_021_g.png"",""time"":4082},{""stimulus"":""blank"",""time"":4392.299999952316}]","[{""key_press"":32,""rt"":2724,""stimulus"":""https://ziweizhang0304.github.io/Stats_learning_trig/img/Stim/FN_019_g.png""}]","674.9000000953674","https://ziweizhang0304.github.io/Stats_learning_trig/img/Stim/FN_006_g.png","post_TD","18","2049.0999999046326","2724","slow","6","2","5a8f13595292b80001235e09","","","","","",""
"","image-keyboard-response","49","144182","0.0-5.0-18.0-0.0","693.2000000476837","","","https://ziweizhang0304.github.io/Stats_learning_trig/img/Stim/FN_007_g.png","13","","","","","","","","","","","","","","","","","",""
"","animation","50","148604","0.0-5.0-18.0-1.0","","","","","","[{""stimulus"":""https://ziweizhang0304.github.io/Stats_learning_trig/img/Stim/FN_025_g.png"",""time"":348.7000000476837},{""stimulus"":""blank"",""time"":658},{""stimulus"":""https://ziweizhang0304.github.io/Stats_learning_trig/img/Stim/FN_019_g.png"",""time"":681.7000000476837},{""stimulus"":""blank"",""time"":985.8999999761581},{""stimulus"":""https://ziweizhang0304.github.io/Stats_learning_trig/img/Stim/FN_008_g.png"",""time"":1021.8999999761581},{""stimulus"":""blank"",""time"":1329.2000000476837},{""stimulus"":""https://ziweizhang0304.github.io/Stats_learning_trig/img/Stim/FN_005_g.png"",""time"":1365.8999999761581},{""stimulus"":""blank"",""time"":1672.1000000238419},{""stimulus"":""https://ziweizhang0304.github.io/Stats_learning_trig/img/Stim/FN_016_g.png"",""time"":1703.2000000476837},{""stimulus"":""blank"",""time"":2014.2000000476837},{""stimulus"":""https://ziweizhang0304.github.io/Stats_learning_trig/img/Stim/FN_002_g.png"",""time"":2046.6000000238419},{""stimulus"":""blank"",""time"":2356.399999976158},{""stimulus"":""https://ziweizhang0304.github.io/Stats_learning_trig/img/Stim/FN_014_g.png"",""time"":2381},{""stimulus"":""blank"",""time"":2684.600000023842},{""stimulus"":""https://ziweizhang0304.github.io/Stats_learning_trig/img/Stim/FN_024_g.png"",""time"":2721.8000000715256},{""stimulus"":""blank"",""time"":3026.399999976158},{""stimulus"":""https://ziweizhang0304.github.io/Stats_learning_trig/img/Stim/FN_007_g.png"",""time"":3065.7000000476837},{""stimulus"":""blank"",""time"":3370.2000000476837},{""stimulus"":""https://ziweizhang0304.github.io/Stats_learning_trig/img/Stim/FN_001_g.png"",""time"":3401.7000000476837},{""stimulus"":""blank"",""time"":3712},{""stimulus"":""https://ziweizhang0304.github.io/Stats_learning_trig/img/Stim/FN_011_g.png"",""time"":3742.100000023842},{""stimulus"":""blank"",""time"":4054.3000000715256},{""stimulus"":""https://ziweizhang0304.github.io/Stats_learning_trig/img/Stim/FN_021_g.png"",""time"":4081.600000023842},{""stimulus"":""blank"",""time"":4395.800000071526}]","[{""key_press"":32,""rt"":3507.2999999523163,""stimulus"":""https://ziweizhang0304.github.io/Stats_learning_trig/img/Stim/FN_001_g.png""}]","441.59999990463257","https://ziweizhang0304.github.io/Stats_learning_trig/img/Stim/FN_007_g.png","post_TD","19","3065.7000000476837","3507.2999999523163","fast","9","3","5a8f13595292b80001235e09","","","","","",""
"","image-keyboard-response","51","149226","0.0-5.0-19.0-0.0","618.6000000238419","","","https://ziweizhang0304.github.io/Stats_learning_trig/img/Stim/FN_012_g.png","13","","","","","","","","","","","","","","","","","",""
"","animation","52","153648","0.0-5.0-19.0-1.0","","","","","","[{""stimulus"":""https://ziweizhang0304.github.io/Stats_learning_trig/img/Stim/FN_001_g.png"",""time"":349},{""stimulus"":""blank"",""time"":658.7999999523163},{""stimulus"":""https://ziweizhang0304.github.io/Stats_learning_trig/img/Stim/FN_002_g.png"",""time"":680.7999999523163},{""stimulus"":""blank"",""time"":985.1999999284744},{""stimulus"":""https://ziweizhang0304.github.io/Stats_learning_trig/img/Stim/FN_005_g.png"",""time"":1022.5},{""stimulus"":""blank"",""time"":1327.8999999761581},{""stimulus"":""https://ziweizhang0304.github.io/Stats_learning_trig/img/Stim/FN_008_g.png"",""time"":1361},{""stimulus"":""blank"",""time"":1669.8999999761581},{""stimulus"":""https://ziweizhang0304.github.io/Stats_learning_trig/img/Stim/FN_012_g.png"",""time"":1702.0999999046326},{""stimulus"":""blank"",""time"":2012.5999999046326},{""stimulus"":""https://ziweizhang0304.github.io/Stats_learning_trig/img/Stim/FN_006_g.png"",""time"":2041.8999999761581},{""stimulus"":""blank"",""time"":2355.6999999284744},{""stimulus"":""https://ziweizhang0304.github.io/Stats_learning_trig/img/Stim/FN_022_g.png"",""time"":2381.399999976158},{""stimulus"":""blank"",""time"":2682.6999999284744},{""stimulus"":""https://ziweizhang0304.github.io/Stats_learning_trig/img/Stim/FN_019_g.png"",""time"":2722.399999976158},{""stimulus"":""blank"",""time"":3024.5},{""stimulus"":""https://ziweizhang0304.github.io/Stats_learning_trig/img/Stim/FN_016_g.png"",""time"":3061.5},{""stimulus"":""blank"",""time"":3364.6999999284744},{""stimulus"":""https://ziweizhang0304.github.io/Stats_learning_trig/img/Stim/FN_011_g.png"",""time"":3402.0999999046326},{""stimulus"":""blank"",""time"":3706.6999999284744},{""stimulus"":""https://ziweizhang0304.github.io/Stats_learning_trig/img/Stim/FN_025_g.png"",""time"":3741.5},{""stimulus"":""blank"",""time"":4046.5999999046326},{""stimulus"":""https://ziweizhang0304.github.io/Stats_learning_trig/img/Stim/FN_021_g.png"",""time"":4081.6999999284744},{""stimulus"":""blank"",""time"":4390.299999952316}]","[{""key_press"":32,""rt"":2172.2999999523163,""stimulus"":""https://ziweizhang0304.github.io/Stats_learning_trig/img/Stim/FN_006_g.png""}]","470.2000000476837","https://ziweizhang0304.github.io/Stats_learning_trig/img/Stim/FN_012_g.png","post_TD","20","1702.0999999046326","2172.2999999523163","slow","5","1","5a8f13595292b80001235e09","","","","","",""
"","image-keyboard-response","53","154120","0.0-5.0-20.0-0.0","469.39999997615814","","","https://ziweizhang0304.github.io/Stats_learning_trig/img/Stim/FN_024_g.png","13","","","","","","","","","","","","","","","","","",""
"","animation","54","158541","0.0-5.0-20.0-1.0","","","","","","[{""stimulus"":""https://ziweizhang0304.github.io/Stats_learning_trig/img/Stim/FN_001_g.png"",""time"":346.2000000476837},{""stimulus"":""blank"",""time"":658.6000000238419},{""stimulus"":""https://ziweizhang0304.github.io/Stats_learning_trig/img/Stim/FN_025_g.png"",""time"":682.1000000238419},{""stimulus"":""blank"",""time"":986.8000000715256},{""stimulus"":""https://ziweizhang0304.github.io/Stats_learning_trig/img/Stim/FN_005_g.png"",""time"":1027.6000000238419},{""stimulus"":""blank"",""time"":1332.6000000238419},{""stimulus"":""https://ziweizhang0304.github.io/Stats_learning_trig/img/Stim/FN_014_g.png"",""time"":1361.3000000715256},{""stimulus"":""blank"",""time"":1673.8000000715256},{""stimulus"":""https://ziweizhang0304.github.io/Stats_learning_trig/img/Stim/FN_024_g.png"",""time"":1705.5},{""stimulus"":""blank"",""time"":2015.8999999761581},{""stimulus"":""https://ziweizhang0304.github.io/Stats_learning_trig/img/Stim/FN_007_g.png"",""time"":2041.7000000476837},{""stimulus"":""blank"",""time"":2343.399999976158},{""stimulus"":""https://ziweizhang0304.github.io/Stats_learning_trig/img/Stim/FN_019_g.png"",""time"":2380.3000000715256},{""stimulus"":""blank"",""time"":2685.600000023842},{""stimulus"":""https://ziweizhang0304.github.io/Stats_learning_trig/img/Stim/FN_008_g.png"",""time"":2732.5},{""stimulus"":""blank"",""time"":3042.7000000476837},{""stimulus"":""https://ziweizhang0304.github.io/Stats_learning_trig/img/Stim/FN_016_g.png"",""time"":3074.2000000476837},{""stimulus"":""blank"",""time"":3385.600000023842},{""stimulus"":""https://ziweizhang0304.github.io/Stats_learning_trig/img/Stim/FN_011_g.png"",""time"":3402.100000023842},{""stimulus"":""blank"",""time"":3713.399999976158},{""stimulus"":""https://ziweizhang0304.github.io/Stats_learning_trig/img/Stim/FN_002_g.png"",""time"":3740.8000000715256},{""stimulus"":""blank"",""time"":4056.5},{""stimulus"":""https://ziweizhang0304.github.io/Stats_learning_trig/img/Stim/FN_021_g.png"",""time"":4088.600000023842},{""stimulus"":""blank"",""time"":4400.200000047684}]","[{""key_press"":32,""rt"":2122,""stimulus"":""https://ziweizhang0304.github.io/Stats_learning_trig/img/Stim/FN_007_g.png""}]","416.5","https://ziweizhang0304.github.io/Stats_learning_trig/img/Stim/FN_024_g.png","post_TD","21","1705.5","2122","fast","5","2","5a8f13595292b80001235e09","","","","","",""
"","image-keyboard-response","55","159108","0.0-5.0-21.0-0.0","563.8999999761581","","","https://ziweizhang0304.github.io/Stats_learning_trig/img/Stim/FN_012_g.png","13","","","","","","","","","","","","","","","","","",""
"","animation","56","163531","0.0-5.0-21.0-1.0","","","","","","[{""stimulus"":""https://ziweizhang0304.github.io/Stats_learning_trig/img/Stim/FN_005_g.png"",""time"":343},{""stimulus"":""blank"",""time"":653.8999999761581},{""stimulus"":""https://ziweizhang0304.github.io/Stats_learning_trig/img/Stim/FN_001_g.png"",""time"":685.1999999284744},{""stimulus"":""blank"",""time"":994.6000000238419},{""stimulus"":""https://ziweizhang0304.github.io/Stats_learning_trig/img/Stim/FN_016_g.png"",""time"":1021.1999999284744},{""stimulus"":""blank"",""time"":1336.1999999284744},{""stimulus"":""https://ziweizhang0304.github.io/Stats_learning_trig/img/Stim/FN_012_g.png"",""time"":1361},{""stimulus"":""blank"",""time"":1663.8999999761581},{""stimulus"":""https://ziweizhang0304.github.io/Stats_learning_trig/img/Stim/FN_006_g.png"",""time"":1701.6999999284744},{""stimulus"":""blank"",""time"":2003.8999999761581},{""stimulus"":""https://ziweizhang0304.github.io/Stats_learning_trig/img/Stim/FN_022_g.png"",""time"":2050.600000023842},{""stimulus"":""blank"",""time"":2359.100000023842},{""stimulus"":""https://ziweizhang0304.github.io/Stats_learning_trig/img/Stim/FN_019_g.png"",""time"":2381.600000023842},{""stimulus"":""blank"",""time"":2685.100000023842},{""stimulus"":""https://ziweizhang0304.github.io/Stats_learning_trig/img/Stim/FN_008_g.png"",""time"":2733},{""stimulus"":""blank"",""time"":3045.1999999284744},{""stimulus"":""https://ziweizhang0304.github.io/Stats_learning_trig/img/Stim/FN_011_g.png"",""time"":3061},{""stimulus"":""blank"",""time"":3372.1999999284744},{""stimulus"":""https://ziweizhang0304.github.io/Stats_learning_trig/img/Stim/FN_002_g.png"",""time"":3403.2999999523163},{""stimulus"":""blank"",""time"":3713.899999976158},{""stimulus"":""https://ziweizhang0304.github.io/Stats_learning_trig/img/Stim/FN_025_g.png"",""time"":3745.5},{""stimulus"":""blank"",""time"":4058.5},{""stimulus"":""https://ziweizhang0304.github.io/Stats_learning_trig/img/Stim/FN_021_g.png"",""time"":4081.6999999284744},{""stimulus"":""blank"",""time"":4382.5}]","[{""key_press"":32,""rt"":1831.5,""stimulus"":""https://ziweizhang0304.github.io/Stats_learning_trig/img/Stim/FN_006_g.png""}]","470.5","https://ziweizhang0304.github.io/Stats_learning_trig/img/Stim/FN_012_g.png","post_TD","22","1361","1831.5","slow","4","1","5a8f13595292b80001235e09","","","","","",""
"","image-keyboard-response","57","164228","0.0-5.0-22.0-0.0","696.1999999284744","","","https://ziweizhang0304.github.io/Stats_learning_trig/img/Stim/FN_014_g.png","13","","","","","","","","","","","","","","","","","",""
"","animation","58","168654","0.0-5.0-22.0-1.0","","","","","","[{""stimulus"":""https://ziweizhang0304.github.io/Stats_learning_trig/img/Stim/FN_002_g.png"",""time"":349.7000000476837},{""stimulus"":""blank"",""time"":658.8000000715256},{""stimulus"":""https://ziweizhang0304.github.io/Stats_learning_trig/img/Stim/FN_011_g.png"",""time"":681.3999999761581},{""stimulus"":""blank"",""time"":986.8000000715256},{""stimulus"":""https://ziweizhang0304.github.io/Stats_learning_trig/img/Stim/FN_016_g.png"",""time"":1021.1000000238419},{""stimulus"":""blank"",""time"":1328.8000000715256},{""stimulus"":""https://ziweizhang0304.github.io/Stats_learning_trig/img/Stim/FN_001_g.png"",""time"":1361.1000000238419},{""stimulus"":""blank"",""time"":1672.3000000715256},{""stimulus"":""https://ziweizhang0304.github.io/Stats_learning_trig/img/Stim/FN_005_g.png"",""time"":1700.8000000715256},{""stimulus"":""blank"",""time"":2014.8999999761581},{""stimulus"":""https://ziweizhang0304.github.io/Stats_learning_trig/img/Stim/FN_014_g.png"",""time"":2041.5},{""stimulus"":""blank"",""time"":2356.5},{""stimulus"":""https://ziweizhang0304.github.io/Stats_learning_trig/img/Stim/FN_024_g.png"",""time"":2381.3000000715256},{""stimulus"":""blank"",""time"":2697.100000023842},{""stimulus"":""https://ziweizhang0304.github.io/Stats_learning_trig/img/Stim/FN_007_g.png"",""time"":2720.8000000715256},{""stimulus"":""blank"",""time"":3022.2000000476837},{""stimulus"":""https://ziweizhang0304.github.io/Stats_learning_trig/img/Stim/FN_019_g.png"",""time"":3061.2000000476837},{""stimulus"":""blank"",""time"":3365.2000000476837},{""stimulus"":""https://ziweizhang0304.github.io/Stats_learning_trig/img/Stim/FN_008_g.png"",""time"":3401.7000000476837},{""stimulus"":""blank"",""time"":3706.600000023842},{""stimulus"":""https://ziweizhang0304.github.io/Stats_learning_trig/img/Stim/FN_025_g.png"",""time"":3740.7000000476837},{""stimulus"":""blank"",""time"":4050.399999976158},{""stimulus"":""https://ziweizhang0304.github.io/Stats_learning_trig/img/Stim/FN_021_g.png"",""time"":4082},{""stimulus"":""blank"",""time"":4393.100000023842}]","[{""key_press"":32,""rt"":2616,""stimulus"":""https://ziweizhang0304.github.io/Stats_learning_trig/img/Stim/FN_024_g.png""}]","574.5","https://ziweizhang0304.github.io/Stats_learning_trig/img/Stim/FN_014_g.png","post_TD","23","2041.5","2616","fast","6","1","5a8f13595292b80001235e09","","","","","",""
"","image-keyboard-response","59","169137","0.0-5.0-23.0-0.0","481.3000000715256","","","https://ziweizhang0304.github.io/Stats_learning_trig/img/Stim/FN_014_g.png","13","","","","","","","","","","","","","","","","","",""
"","animation","60","173560","0.0-5.0-23.0-1.0","","","","","","[{""stimulus"":""https://ziweizhang0304.github.io/Stats_learning_trig/img/Stim/FN_001_g.png"",""time"":356.7999999523163},{""stimulus"":""blank"",""time"":667.6999999284744},{""stimulus"":""https://ziweizhang0304.github.io/Stats_learning_trig/img/Stim/FN_025_g.png"",""time"":681.8999999761581},{""stimulus"":""blank"",""time"":994.1999999284744},{""stimulus"":""https://ziweizhang0304.github.io/Stats_learning_trig/img/Stim/FN_005_g.png"",""time"":1020.8999999761581},{""stimulus"":""blank"",""time"":1321.6999999284744},{""stimulus"":""https://ziweizhang0304.github.io/Stats_learning_trig/img/Stim/FN_014_g.png"",""time"":1367.8999999761581},{""stimulus"":""blank"",""time"":1678.8999999761581},{""stimulus"":""https://ziweizhang0304.github.io/Stats_learning_trig/img/Stim/FN_024_g.png"",""time"":1701.1000000238419},{""stimulus"":""blank"",""time"":2003.8999999761581},{""stimulus"":""https://ziweizhang0304.github.io/Stats_learning_trig/img/Stim/FN_007_g.png"",""time"":2042.1000000238419},{""stimulus"":""blank"",""time"":2346.399999976158},{""stimulus"":""https://ziweizhang0304.github.io/Stats_learning_trig/img/Stim/FN_019_g.png"",""time"":2381.2999999523163},{""stimulus"":""blank"",""time"":2689.6999999284744},{""stimulus"":""https://ziweizhang0304.github.io/Stats_learning_trig/img/Stim/FN_008_g.png"",""time"":2721.399999976158},{""stimulus"":""blank"",""time"":3033.399999976158},{""stimulus"":""https://ziweizhang0304.github.io/Stats_learning_trig/img/Stim/FN_016_g.png"",""time"":3061.2999999523163},{""stimulus"":""blank"",""time"":3363.7999999523163},{""stimulus"":""https://ziweizhang0304.github.io/Stats_learning_trig/img/Stim/FN_011_g.png"",""time"":3411},{""stimulus"":""blank"",""time"":3723.5},{""stimulus"":""https://ziweizhang0304.github.io/Stats_learning_trig/img/Stim/FN_002_g.png"",""time"":3741.899999976158},{""stimulus"":""blank"",""time"":4050.600000023842},{""stimulus"":""https://ziweizhang0304.github.io/Stats_learning_trig/img/Stim/FN_021_g.png"",""time"":4081.6999999284744},{""stimulus"":""blank"",""time"":4391.5}]","[{""key_press"":32,""rt"":1820.6999999284744,""stimulus"":""https://ziweizhang0304.github.io/Stats_learning_trig/img/Stim/FN_024_g.png""}]","452.7999999523163","https://ziweizhang0304.github.io/Stats_learning_trig/img/Stim/FN_014_g.png","post_TD","24","1367.8999999761581","1820.6999999284744","fast","4","1","5a8f13595292b80001235e09","2f6d9","","","","",""
"","survey-text","61","178301","0.0-6.0","4737.5","","","","","","","","","","","","","","","","","","{""Q0"":""no""}","","","",""
"","survey-text","62","180911","0.0-7.0","2608.2999999523163","","","","","","","","","","","","","","","","","","{""[object Object]"":""no""}","","","",""
"","instructions","63","185010","0.0-8.0","4098.399999976158","","[{""page_index"":0,""viewing_time"":4097.600000023842}]","","","","","","","","","","","","","","","","","","","",""
"","free-sort","64","193129","0.0-9.0","8115.5","","","","","","","","","post_drag","","","","fast","","","","","","[{""src"":""https://ziweizhang0304.github.io/Stats_learning_trig/img/Stim/FN_007_g.png"",""x"":475,""y"":0},{""src"":""https://ziweizhang0304.github.io/Stats_learning_trig/img/Stim/FN_024_g.png"",""x"":-225,""y"":50},{""src"":""https://ziweizhang0304.github.io/Stats_learning_trig/img/Stim/FN_014_g.png"",""x"":475,""y"":50}]","[{""src"":""https://ziweizhang0304.github.io/Stats_learning_trig/img/Stim/FN_024_g.png"",""x"":98,""y"":17},{""src"":""https://ziweizhang0304.github.io/Stats_learning_trig/img/Stim/FN_007_g.png"",""x"":196,""y"":29},{""src"":""https://ziweizhang0304.github.io/Stats_learning_trig/img/Stim/FN_014_g.png"",""x"":74,""y"":23}]","[{""src"":""https://ziweizhang0304.github.io/Stats_learning_trig/img/Stim/FN_007_g.png"",""x"":196,""y"":29},{""src"":""https://ziweizhang0304.github.io/Stats_learning_trig/img/Stim/FN_024_g.png"",""x"":98,""y"":17},{""src"":""https://ziweizhang0304.github.io/Stats_learning_trig/img/Stim/FN_014_g.png"",""x"":74,""y"":23}]",""
"","free-sort","65","200937","0.0-10.0","7807.099999904633","","","","","","","","","post_drag","","","","slow","","","","","","[{""src"":""https://ziweizhang0304.github.io/Stats_learning_trig/img/Stim/FN_012_g.png"",""x"":475,""y"":0},{""src"":""https://ziweizhang0304.github.io/Stats_learning_trig/img/Stim/FN_006_g.png"",""x"":-225,""y"":50},{""src"":""https://ziweizhang0304.github.io/Stats_learning_trig/img/Stim/FN_022_g.png"",""x"":475,""y"":50}]","[{""src"":""https://ziweizhang0304.github.io/Stats_learning_trig/img/Stim/FN_006_g.png"",""x"":126,""y"":31},{""src"":""https://ziweizhang0304.github.io/Stats_learning_trig/img/Stim/FN_022_g.png"",""x"":12,""y"":37},{""src"":""https://ziweizhang0304.github.io/Stats_learning_trig/img/Stim/FN_012_g.png"",""x"":240,""y"":33}]","[{""src"":""https://ziweizhang0304.github.io/Stats_learning_trig/img/Stim/FN_012_g.png"",""x"":240,""y"":33},{""src"":""https://ziweizhang0304.github.io/Stats_learning_trig/img/Stim/FN_006_g.png"",""x"":126,""y"":31},{""src"":""https://ziweizhang0304.github.io/Stats_learning_trig/img/Stim/FN_022_g.png"",""x"":12,""y"":37}]",""
"","survey-multi-choice","66","206612","0.0-11.0","5672.700000047684","","","","","","","","","","","","","","","","5a8f13595292b80001235e09","","{""awareness"":""No"",""attention_check"":""Press SPACEBAR to a target""}","","","","[0,1]"
