"success","trial_type","trial_index","time_elapsed","internal_node_id","rt","url","view_history","stimulus","key_press","animation_sequence","response","TD_rt","TD_target","test_part","TD_trial_number","onset","offset","attention_state","TD_target_position","TD_within_triplet_counter","participant","yoke_participant","responses","init_locations","moves","final_locations","question_order"
"true","fullscreen","0","237426","0.0-0.0","","","","","","","","","","","","","","","","","","","","","","",""
"","external-html","1","245872","0.0-1.0","8296.100000143051","https://ziweizhang0304.github.io/Stats_learning_trig/content/consent.html","","","","","","","","","","","","","","","","","","","","",""
"","instructions","2","257754","0.0-2.0","11880.399999856949","","[{""page_index"":0,""viewing_time"":1163.5999999046326},{""page_index"":1,""viewing_time"":4514.299999952316},{""page_index"":2,""viewing_time"":5229.900000095367},{""page_index"":3,""viewing_time"":971.8999998569489}]","","","","","","","","","","","","","","","","","","","",""
"","image-keyboard-response","3","261499","0.0-3.0-0.0-0.0","3743.7999999523163","","","https://ziweizhang0304.github.io/Stats_learning_trig/img/Stim/FN_020_g.png","13","","","","","","","","","","","","","","","","","",""
"","animation","4","265921","0.0-3.0-0.0-1.0","","","","","","[{""stimulus"":""https://ziweizhang0304.github.io/Stats_learning_trig/img/Stim/FN_003_g.png"",""time"":359},{""stimulus"":""blank"",""time"":669.7999999523163},{""stimulus"":""https://ziweizhang0304.github.io/Stats_learning_trig/img/Stim/FN_020_g.png"",""time"":681.3999998569489},{""stimulus"":""blank"",""time"":983.7999999523163},{""stimulus"":""https://ziweizhang0304.github.io/Stats_learning_trig/img/Stim/FN_014_g.png"",""time"":1030.5},{""stimulus"":""blank"",""time"":1345.0999999046326},{""stimulus"":""https://ziweizhang0304.github.io/Stats_learning_trig/img/Stim/FN_001_g.png"",""time"":1361.2999999523163},{""stimulus"":""blank"",""time"":1673.5},{""stimulus"":""https://ziweizhang0304.github.io/Stats_learning_trig/img/Stim/FN_005_g.png"",""time"":1705},{""stimulus"":""blank"",""time"":2016.7999999523163},{""stimulus"":""https://ziweizhang0304.github.io/Stats_learning_trig/img/Stim/FN_008_g.png"",""time"":2041.0999999046326},{""stimulus"":""blank"",""time"":2345.5},{""stimulus"":""https://ziweizhang0304.github.io/Stats_learning_trig/img/Stim/FN_007_g.png"",""time"":2382},{""stimulus"":""blank"",""time"":2689.5999999046326},{""stimulus"":""https://ziweizhang0304.github.io/Stats_learning_trig/img/Stim/FN_023_g.png"",""time"":2721.5999999046326},{""stimulus"":""blank"",""time"":3035.7000000476837},{""stimulus"":""https://ziweizhang0304.github.io/Stats_learning_trig/img/Stim/FN_026_g.png"",""time"":3067.899999856949},{""stimulus"":""blank"",""time"":3380.7000000476837},{""stimulus"":""https://ziweizhang0304.github.io/Stats_learning_trig/img/Stim/FN_004_g.png"",""time"":3401.7000000476837},{""stimulus"":""blank"",""time"":3709.899999856949},{""stimulus"":""https://ziweizhang0304.github.io/Stats_learning_trig/img/Stim/FN_015_g.png"",""time"":3741.5},{""stimulus"":""blank"",""time"":4053.899999856949},{""stimulus"":""https://ziweizhang0304.github.io/Stats_learning_trig/img/Stim/FN_024_g.png"",""time"":4085.0999999046326},{""stimulus"":""blank"",""time"":4396.200000047684}]","[{""key_press"":32,""rt"":1174.8999998569489,""stimulus"":""https://ziweizhang0304.github.io/Stats_learning_trig/img/Stim/FN_014_g.png""}]","493.5","https://ziweizhang0304.github.io/Stats_learning_trig/img/Stim/FN_020_g.png","post_prac","","","","","","","","","","","","",""
"","html-keyboard-response","5","271642","0.0-3.0-0.0-2.0","5715.5","","","<p>Your reaction time for this trial was 493.5 ms.</p><p>Remember that you should only press the SPACEBAR when you see the shape presented at the beginning of the trial. </b> </p><p>Press enter to move on.</p>","13","","","","","","","","","","","","","","","","","",""
"","image-keyboard-response","6","274493","0.0-3.0-1.0-0.0","2849.899999856949","","","https://ziweizhang0304.github.io/Stats_learning_trig/img/Stim/FN_026_g.png","13","","","","","","","","","","","","","","","","","",""
"","animation","7","278915","0.0-3.0-1.0-1.0","","","","","","[{""stimulus"":""https://ziweizhang0304.github.io/Stats_learning_trig/img/Stim/FN_007_g.png"",""time"":343.39999985694885},{""stimulus"":""blank"",""time"":657},{""stimulus"":""https://ziweizhang0304.github.io/Stats_learning_trig/img/Stim/FN_023_g.png"",""time"":681.2000000476837},{""stimulus"":""blank"",""time"":984.3999998569489},{""stimulus"":""https://ziweizhang0304.github.io/Stats_learning_trig/img/Stim/FN_003_g.png"",""time"":1021.2999999523163},{""stimulus"":""blank"",""time"":1328.5},{""stimulus"":""https://ziweizhang0304.github.io/Stats_learning_trig/img/Stim/FN_004_g.png"",""time"":1361.7000000476837},{""stimulus"":""blank"",""time"":1673.2999999523163},{""stimulus"":""https://ziweizhang0304.github.io/Stats_learning_trig/img/Stim/FN_024_g.png"",""time"":1704.5999999046326},{""stimulus"":""blank"",""time"":2016.7000000476837},{""stimulus"":""https://ziweizhang0304.github.io/Stats_learning_trig/img/Stim/FN_020_g.png"",""time"":2041.2000000476837},{""stimulus"":""blank"",""time"":2343.0999999046326},{""stimulus"":""https://ziweizhang0304.github.io/Stats_learning_trig/img/Stim/FN_026_g.png"",""time"":2380.7999999523163},{""stimulus"":""blank"",""time"":2684.7999999523163},{""stimulus"":""https://ziweizhang0304.github.io/Stats_learning_trig/img/Stim/FN_008_g.png"",""time"":2721.2000000476837},{""stimulus"":""blank"",""time"":3028.7999999523163},{""stimulus"":""https://ziweizhang0304.github.io/Stats_learning_trig/img/Stim/FN_005_g.png"",""time"":3061.399999856949},{""stimulus"":""blank"",""time"":3370.0999999046326},{""stimulus"":""https://ziweizhang0304.github.io/Stats_learning_trig/img/Stim/FN_014_g.png"",""time"":3402},{""stimulus"":""blank"",""time"":3716.7999999523163},{""stimulus"":""https://ziweizhang0304.github.io/Stats_learning_trig/img/Stim/FN_001_g.png"",""time"":3741.5},{""stimulus"":""blank"",""time"":4044.0999999046326},{""stimulus"":""https://ziweizhang0304.github.io/Stats_learning_trig/img/Stim/FN_015_g.png"",""time"":4081.5},{""stimulus"":""blank"",""time"":4385.099999904633}]","[{""key_press"":32,""rt"":2860.100000143051,""stimulus"":""https://ziweizhang0304.github.io/Stats_learning_trig/img/Stim/FN_008_g.png""}]","479.30000019073486","https://ziweizhang0304.github.io/Stats_learning_trig/img/Stim/FN_026_g.png","post_prac","","","","","","","","","","","","",""
"","html-keyboard-response","8","282280","0.0-3.0-1.0-2.0","3361.7999999523163","","","<p>Your reaction time for this trial was 479.3 ms.</p><p>Remember that you should only press the SPACEBAR when you see the shape presented at the beginning of the trial. </b> </p><p>Press enter to move on.</p>","13","","","","","","","","","","","","","","","","","",""
"","image-keyboard-response","9","284353","0.0-3.0-2.0-0.0","2071.5","","","https://ziweizhang0304.github.io/Stats_learning_trig/img/Stim/FN_009_g.png","13","","","","","","","","","","","","","","","","","",""
"","animation","10","288775","0.0-3.0-2.0-1.0","","","","","","[{""stimulus"":""https://ziweizhang0304.github.io/Stats_learning_trig/img/Stim/FN_003_g.png"",""time"":355.7999999523163},{""stimulus"":""blank"",""time"":669.1999998092651},{""stimulus"":""https://ziweizhang0304.github.io/Stats_learning_trig/img/Stim/FN_023_g.png"",""time"":680.7999999523163},{""stimulus"":""blank"",""time"":995.0999999046326},{""stimulus"":""https://ziweizhang0304.github.io/Stats_learning_trig/img/Stim/FN_015_g.png"",""time"":1020.7999999523163},{""stimulus"":""blank"",""time"":1322.0999999046326},{""stimulus"":""https://ziweizhang0304.github.io/Stats_learning_trig/img/Stim/FN_008_g.png"",""time"":1361.6999998092651},{""stimulus"":""blank"",""time"":1665},{""stimulus"":""https://ziweizhang0304.github.io/Stats_learning_trig/img/Stim/FN_001_g.png"",""time"":1701.2999999523163},{""stimulus"":""blank"",""time"":2007.8999998569489},{""stimulus"":""https://ziweizhang0304.github.io/Stats_learning_trig/img/Stim/FN_012_g.png"",""time"":2055.7999999523163},{""stimulus"":""blank"",""time"":2367.699999809265},{""stimulus"":""https://ziweizhang0304.github.io/Stats_learning_trig/img/Stim/FN_019_g.png"",""time"":2381.399999856949},{""stimulus"":""blank"",""time"":2696.899999856949},{""stimulus"":""https://ziweizhang0304.github.io/Stats_learning_trig/img/Stim/FN_009_g.png"",""time"":2727.5},{""stimulus"":""blank"",""time"":3038.0999999046326},{""stimulus"":""https://ziweizhang0304.github.io/Stats_learning_trig/img/Stim/FN_005_g.png"",""time"":3061.7999999523163},{""stimulus"":""blank"",""time"":3365.699999809265},{""stimulus"":""https://ziweizhang0304.github.io/Stats_learning_trig/img/Stim/FN_014_g.png"",""time"":3401.5},{""stimulus"":""blank"",""time"":3708.5999999046326},{""stimulus"":""https://ziweizhang0304.github.io/Stats_learning_trig/img/Stim/FN_007_g.png"",""time"":3741.7999999523163},{""stimulus"":""blank"",""time"":4052.5999999046326},{""stimulus"":""https://ziweizhang0304.github.io/Stats_learning_trig/img/Stim/FN_004_g.png"",""time"":4081.5},{""stimulus"":""blank"",""time"":4397.299999952316}]","[{""key_press"":32,""rt"":3104.7999999523163,""stimulus"":""https://ziweizhang0304.github.io/Stats_learning_trig/img/Stim/FN_005_g.png""}]","377.2999999523163","https://ziweizhang0304.github.io/Stats_learning_trig/img/Stim/FN_009_g.png","post_prac","","","","","","","","","","","","",""
"","html-keyboard-response","11","290695","0.0-3.0-2.0-2.0","1917.3000001907349","","","<p>Your reaction time for this trial was 377.3 ms.</p><p>Remember that you should only press the SPACEBAR when you see the shape presented at the beginning of the trial. </b> </p><p>Press enter to move on.</p>","13","","","","","","","","","","","","","","","","","",""
"","instructions","12","292632","0.0-4.0","1936.3999998569489","","[{""page_index"":0,""viewing_time"":1936.2999999523163}]","","","","","","","","","","","","","","","","","","","",""
"","image-keyboard-response","13","295377","0.0-5.0-0.0-0.0","2744.0999999046326","","","https://ziweizhang0304.github.io/Stats_learning_trig/img/Stim/FN_012_g.png","13","","","","","","","","","","","","","","","","","",""
"","animation","14","299799","0.0-5.0-0.0-1.0","","","","","","[{""stimulus"":""https://ziweizhang0304.github.io/Stats_learning_trig/img/Stim/FN_001_g.png"",""time"":347.59999990463257},{""stimulus"":""blank"",""time"":658.0999999046326},{""stimulus"":""https://ziweizhang0304.github.io/Stats_learning_trig/img/Stim/FN_005_g.png"",""time"":681},{""stimulus"":""blank"",""time"":986.3999998569489},{""stimulus"":""https://ziweizhang0304.github.io/Stats_learning_trig/img/Stim/FN_014_g.png"",""time"":1021.5},{""stimulus"":""blank"",""time"":1328.7999999523163},{""stimulus"":""https://ziweizhang0304.github.io/Stats_learning_trig/img/Stim/FN_012_g.png"",""time"":1361},{""stimulus"":""blank"",""time"":1672.8999998569489},{""stimulus"":""https://ziweizhang0304.github.io/Stats_learning_trig/img/Stim/FN_019_g.png"",""time"":1701.2999999523163},{""stimulus"":""blank"",""time"":2015.7999999523163},{""stimulus"":""https://ziweizhang0304.github.io/Stats_learning_trig/img/Stim/FN_009_g.png"",""time"":2041.5},{""stimulus"":""blank"",""time"":2343},{""stimulus"":""https://ziweizhang0304.github.io/Stats_learning_trig/img/Stim/FN_008_g.png"",""time"":2381.399999856949},{""stimulus"":""blank"",""time"":2689.0999999046326},{""stimulus"":""https://ziweizhang0304.github.io/Stats_learning_trig/img/Stim/FN_003_g.png"",""time"":2720.899999856949},{""stimulus"":""blank"",""time"":3031.899999856949},{""stimulus"":""https://ziweizhang0304.github.io/Stats_learning_trig/img/Stim/FN_023_g.png"",""time"":3061.5},{""stimulus"":""blank"",""time"":3374.899999856949},{""stimulus"":""https://ziweizhang0304.github.io/Stats_learning_trig/img/Stim/FN_007_g.png"",""time"":3401.699999809265},{""stimulus"":""blank"",""time"":3704.2999999523163},{""stimulus"":""https://ziweizhang0304.github.io/Stats_learning_trig/img/Stim/FN_004_g.png"",""time"":3751.5},{""stimulus"":""blank"",""time"":4062.899999856949},{""stimulus"":""https://ziweizhang0304.github.io/Stats_learning_trig/img/Stim/FN_015_g.png"",""time"":4081.699999809265},{""stimulus"":""blank"",""time"":4390.799999952316}]","[{""key_press"":32,""rt"":1774.0999999046326,""stimulus"":""https://ziweizhang0304.github.io/Stats_learning_trig/img/Stim/FN_019_g.png""}]","413.09999990463257","https://ziweizhang0304.github.io/Stats_learning_trig/img/Stim/FN_012_g.png","post_TD","1","1361","1774.0999999046326","fast","4","1","6168b61ad8c0d63b37a92109","","","","","",""
"","image-keyboard-response","15","301579","0.0-5.0-1.0-0.0","1776.3999998569489","","","https://ziweizhang0304.github.io/Stats_learning_trig/img/Stim/FN_009_g.png","13","","","","","","","","","","","","","","","","","",""
"","animation","16","306015","0.0-5.0-1.0-1.0","","","","","","[{""stimulus"":""https://ziweizhang0304.github.io/Stats_learning_trig/img/Stim/FN_003_g.png"",""time"":347.2000000476837},{""stimulus"":""blank"",""time"":657.7999999523163},{""stimulus"":""https://ziweizhang0304.github.io/Stats_learning_trig/img/Stim/FN_023_g.png"",""time"":681.5999999046326},{""stimulus"":""blank"",""time"":985.2000000476837},{""stimulus"":""https://ziweizhang0304.github.io/Stats_learning_trig/img/Stim/FN_015_g.png"",""time"":1021.2000000476837},{""stimulus"":""blank"",""time"":1327.5999999046326},{""stimulus"":""https://ziweizhang0304.github.io/Stats_learning_trig/img/Stim/FN_008_g.png"",""time"":1361.5},{""stimulus"":""blank"",""time"":1672.2000000476837},{""stimulus"":""https://ziweizhang0304.github.io/Stats_learning_trig/img/Stim/FN_001_g.png"",""time"":1701},{""stimulus"":""blank"",""time"":2015.2000000476837},{""stimulus"":""https://ziweizhang0304.github.io/Stats_learning_trig/img/Stim/FN_012_g.png"",""time"":2046.7999999523163},{""stimulus"":""blank"",""time"":2359},{""stimulus"":""https://ziweizhang0304.github.io/Stats_learning_trig/img/Stim/FN_019_g.png"",""time"":2381.2000000476837},{""stimulus"":""blank"",""time"":2687.2999999523163},{""stimulus"":""https://ziweizhang0304.github.io/Stats_learning_trig/img/Stim/FN_009_g.png"",""time"":2736.0999999046326},{""stimulus"":""blank"",""time"":3046.2999999523163},{""stimulus"":""https://ziweizhang0304.github.io/Stats_learning_trig/img/Stim/FN_005_g.png"",""time"":3061.0999999046326},{""stimulus"":""blank"",""time"":3374.7000000476837},{""stimulus"":""https://ziweizhang0304.github.io/Stats_learning_trig/img/Stim/FN_014_g.png"",""time"":3401.7999999523163},{""stimulus"":""blank"",""time"":3717},{""stimulus"":""https://ziweizhang0304.github.io/Stats_learning_trig/img/Stim/FN_007_g.png"",""time"":3741.7999999523163},{""stimulus"":""blank"",""time"":4044},{""stimulus"":""https://ziweizhang0304.github.io/Stats_learning_trig/img/Stim/FN_004_g.png"",""time"":4081.5999999046326},{""stimulus"":""blank"",""time"":4388.599999904633}]","[{""key_press"":32,""rt"":3064.7000000476837,""stimulus"":""https://ziweizhang0304.github.io/Stats_learning_trig/img/Stim/FN_005_g.png""}]","328.60000014305115","https://ziweizhang0304.github.io/Stats_learning_trig/img/Stim/FN_009_g.png","post_TD","2","2736.0999999046326","3064.7000000476837","fast","8","3","6168b61ad8c0d63b37a92109","","","","","",""
"","image-keyboard-response","17","308391","0.0-5.0-2.0-0.0","2374.600000143051","","","https://ziweizhang0304.github.io/Stats_learning_trig/img/Stim/FN_009_g.png","13","","","","","","","","","","","","","","","","","",""
"","animation","18","312822","0.0-5.0-2.0-1.0","","","","","","[{""stimulus"":""https://ziweizhang0304.github.io/Stats_learning_trig/img/Stim/FN_001_g.png"",""time"":355.2999999523163},{""stimulus"":""blank"",""time"":667.5},{""stimulus"":""https://ziweizhang0304.github.io/Stats_learning_trig/img/Stim/FN_005_g.png"",""time"":681.2000000476837},{""stimulus"":""blank"",""time"":982.9000000953674},{""stimulus"":""https://ziweizhang0304.github.io/Stats_learning_trig/img/Stim/FN_014_g.png"",""time"":1030.4000000953674},{""stimulus"":""blank"",""time"":1341.2000000476837},{""stimulus"":""https://ziweizhang0304.github.io/Stats_learning_trig/img/Stim/FN_012_g.png"",""time"":1370.6000001430511},{""stimulus"":""blank"",""time"":1674.2999999523163},{""stimulus"":""https://ziweizhang0304.github.io/Stats_learning_trig/img/Stim/FN_019_g.png"",""time"":1700.9000000953674},{""stimulus"":""blank"",""time"":2004.9000000953674},{""stimulus"":""https://ziweizhang0304.github.io/Stats_learning_trig/img/Stim/FN_009_g.png"",""time"":2041},{""stimulus"":""blank"",""time"":2348.7999999523163},{""stimulus"":""https://ziweizhang0304.github.io/Stats_learning_trig/img/Stim/FN_008_g.png"",""time"":2381.7999999523163},{""stimulus"":""blank"",""time"":2693.7000000476837},{""stimulus"":""https://ziweizhang0304.github.io/Stats_learning_trig/img/Stim/FN_003_g.png"",""time"":2721.5},{""stimulus"":""blank"",""time"":3025.2000000476837},{""stimulus"":""https://ziweizhang0304.github.io/Stats_learning_trig/img/Stim/FN_023_g.png"",""time"":3061.2999999523163},{""stimulus"":""blank"",""time"":3368.4000000953674},{""stimulus"":""https://ziweizhang0304.github.io/Stats_learning_trig/img/Stim/FN_007_g.png"",""time"":3401.7000000476837},{""stimulus"":""blank"",""time"":3713},{""stimulus"":""https://ziweizhang0304.github.io/Stats_learning_trig/img/Stim/FN_004_g.png"",""time"":3745.4000000953674},{""stimulus"":""blank"",""time"":4057.600000143051},{""stimulus"":""https://ziweizhang0304.github.io/Stats_learning_trig/img/Stim/FN_015_g.png"",""time"":4081.7999999523163},{""stimulus"":""blank"",""time"":4383.5}]","[{""key_press"":32,""rt"":2464.5,""stimulus"":""https://ziweizhang0304.github.io/Stats_learning_trig/img/Stim/FN_008_g.png""}]","423.5","https://ziweizhang0304.github.io/Stats_learning_trig/img/Stim/FN_009_g.png","post_TD","3","2041","2464.5","fast","6","3","6168b61ad8c0d63b37a92109","","","","","",""
"","image-keyboard-response","19","314594","0.0-5.0-3.0-0.0","1769.2000000476837","","","https://ziweizhang0304.github.io/Stats_learning_trig/img/Stim/FN_009_g.png","13","","","","","","","","","","","","","","","","","",""
"","animation","20","319016","0.0-5.0-3.0-1.0","","","","","","[{""stimulus"":""https://ziweizhang0304.github.io/Stats_learning_trig/img/Stim/FN_008_g.png"",""time"":351.2000000476837},{""stimulus"":""blank"",""time"":662.2000000476837},{""stimulus"":""https://ziweizhang0304.github.io/Stats_learning_trig/img/Stim/FN_015_g.png"",""time"":680.9000000953674},{""stimulus"":""blank"",""time"":989.7999999523163},{""stimulus"":""https://ziweizhang0304.github.io/Stats_learning_trig/img/Stim/FN_005_g.png"",""time"":1020.7999999523163},{""stimulus"":""blank"",""time"":1330.7999999523163},{""stimulus"":""https://ziweizhang0304.github.io/Stats_learning_trig/img/Stim/FN_004_g.png"",""time"":1360.7999999523163},{""stimulus"":""blank"",""time"":1673},{""stimulus"":""https://ziweizhang0304.github.io/Stats_learning_trig/img/Stim/FN_012_g.png"",""time"":1704.6000001430511},{""stimulus"":""blank"",""time"":2016.6000001430511},{""stimulus"":""https://ziweizhang0304.github.io/Stats_learning_trig/img/Stim/FN_019_g.png"",""time"":2041.5},{""stimulus"":""blank"",""time"":2344.100000143051},{""stimulus"":""https://ziweizhang0304.github.io/Stats_learning_trig/img/Stim/FN_009_g.png"",""time"":2380.9000000953674},{""stimulus"":""blank"",""time"":2689.2999999523163},{""stimulus"":""https://ziweizhang0304.github.io/Stats_learning_trig/img/Stim/FN_003_g.png"",""time"":2720.2999999523163},{""stimulus"":""blank"",""time"":3033.4000000953674},{""stimulus"":""https://ziweizhang0304.github.io/Stats_learning_trig/img/Stim/FN_023_g.png"",""time"":3060.4000000953674},{""stimulus"":""blank"",""time"":3363.2999999523163},{""stimulus"":""https://ziweizhang0304.github.io/Stats_learning_trig/img/Stim/FN_014_g.png"",""time"":3410.5},{""stimulus"":""blank"",""time"":3722},{""stimulus"":""https://ziweizhang0304.github.io/Stats_learning_trig/img/Stim/FN_001_g.png"",""time"":3741.7000000476837},{""stimulus"":""blank"",""time"":4050.100000143051},{""stimulus"":""https://ziweizhang0304.github.io/Stats_learning_trig/img/Stim/FN_007_g.png"",""time"":4080.7999999523163},{""stimulus"":""blank"",""time"":4393.600000143051}]","[{""key_press"":32,""rt"":2713.100000143051,""stimulus"":""blank""}]","332.2000000476837","https://ziweizhang0304.github.io/Stats_learning_trig/img/Stim/FN_009_g.png","post_TD","4","2380.9000000953674","2713.100000143051","fast","7","3","6168b61ad8c0d63b37a92109","","","","","",""
"","image-keyboard-response","21","322091","0.0-5.0-4.0-0.0","3073","","","https://ziweizhang0304.github.io/Stats_learning_trig/img/Stim/FN_012_g.png","13","","","","","","","","","","","","","","","","","",""
"","animation","22","326512","0.0-5.0-4.0-1.0","","","","","","[{""stimulus"":""https://ziweizhang0304.github.io/Stats_learning_trig/img/Stim/FN_003_g.png"",""time"":346.40000009536743},{""stimulus"":""blank"",""time"":657.4000000953674},{""stimulus"":""https://ziweizhang0304.github.io/Stats_learning_trig/img/Stim/FN_023_g.png"",""time"":681.1000001430511},{""stimulus"":""blank"",""time"":984},{""stimulus"":""https://ziweizhang0304.github.io/Stats_learning_trig/img/Stim/FN_015_g.png"",""time"":1022.2000000476837},{""stimulus"":""blank"",""time"":1326.7000000476837},{""stimulus"":""https://ziweizhang0304.github.io/Stats_learning_trig/img/Stim/FN_008_g.png"",""time"":1365.7999999523163},{""stimulus"":""blank"",""time"":1669.6000001430511},{""stimulus"":""https://ziweizhang0304.github.io/Stats_learning_trig/img/Stim/FN_001_g.png"",""time"":1701.6000001430511},{""stimulus"":""blank"",""time"":2012},{""stimulus"":""https://ziweizhang0304.github.io/Stats_learning_trig/img/Stim/FN_012_g.png"",""time"":2041.7999999523163},{""stimulus"":""blank"",""time"":2356.7000000476837},{""stimulus"":""https://ziweizhang0304.github.io/Stats_learning_trig/img/Stim/FN_019_g.png"",""time"":2381.5},{""stimulus"":""blank"",""time"":2685.100000143051},{""stimulus"":""https://ziweizhang0304.github.io/Stats_learning_trig/img/Stim/FN_009_g.png"",""time"":2733.2000000476837},{""stimulus"":""blank"",""time"":3045.600000143051},{""stimulus"":""https://ziweizhang0304.github.io/Stats_learning_trig/img/Stim/FN_005_g.png"",""time"":3061.9000000953674},{""stimulus"":""blank"",""time"":3374.100000143051},{""stimulus"":""https://ziweizhang0304.github.io/Stats_learning_trig/img/Stim/FN_014_g.png"",""time"":3405.7000000476837},{""stimulus"":""blank"",""time"":3716.2999999523163},{""stimulus"":""https://ziweizhang0304.github.io/Stats_learning_trig/img/Stim/FN_007_g.png"",""time"":3740.9000000953674},{""stimulus"":""blank"",""time"":4045.2999999523163},{""stimulus"":""https://ziweizhang0304.github.io/Stats_learning_trig/img/Stim/FN_004_g.png"",""time"":4081.5},{""stimulus"":""blank"",""time"":4389.200000047684}]","[{""key_press"":32,""rt"":2431.5999999046326,""stimulus"":""https://ziweizhang0304.github.io/Stats_learning_trig/img/Stim/FN_019_g.png""}]","389.7999999523163","https://ziweizhang0304.github.io/Stats_learning_trig/img/Stim/FN_012_g.png","post_TD","5","2041.7999999523163","2431.5999999046326","fast","6","1","6168b61ad8c0d63b37a92109","","","","","",""
"","image-keyboard-response","23","328186","0.0-5.0-5.0-0.0","1671.9000000953674","","","https://ziweizhang0304.github.io/Stats_learning_trig/img/Stim/FN_019_g.png","13","","","","","","","","","","","","","","","","","",""
"","animation","24","332607","0.0-5.0-5.0-1.0","","","","","","[{""stimulus"":""https://ziweizhang0304.github.io/Stats_learning_trig/img/Stim/FN_001_g.png"",""time"":352.59999990463257},{""stimulus"":""blank"",""time"":662.6999998092651},{""stimulus"":""https://ziweizhang0304.github.io/Stats_learning_trig/img/Stim/FN_005_g.png"",""time"":681.2999999523163},{""stimulus"":""blank"",""time"":990.7999999523163},{""stimulus"":""https://ziweizhang0304.github.io/Stats_learning_trig/img/Stim/FN_014_g.png"",""time"":1021.5999999046326},{""stimulus"":""blank"",""time"":1334.5999999046326},{""stimulus"":""https://ziweizhang0304.github.io/Stats_learning_trig/img/Stim/FN_012_g.png"",""time"":1361.1999998092651},{""stimulus"":""blank"",""time"":1675},{""stimulus"":""https://ziweizhang0304.github.io/Stats_learning_trig/img/Stim/FN_019_g.png"",""time"":1700.8999998569489},{""stimulus"":""blank"",""time"":2002.5},{""stimulus"":""https://ziweizhang0304.github.io/Stats_learning_trig/img/Stim/FN_009_g.png"",""time"":2041.2999999523163},{""stimulus"":""blank"",""time"":2344.5999999046326},{""stimulus"":""https://ziweizhang0304.github.io/Stats_learning_trig/img/Stim/FN_008_g.png"",""time"":2381.699999809265},{""stimulus"":""blank"",""time"":2686.199999809265},{""stimulus"":""https://ziweizhang0304.github.io/Stats_learning_trig/img/Stim/FN_003_g.png"",""time"":2720.899999856949},{""stimulus"":""blank"",""time"":3029.2999999523163},{""stimulus"":""https://ziweizhang0304.github.io/Stats_learning_trig/img/Stim/FN_023_g.png"",""time"":3061.199999809265},{""stimulus"":""blank"",""time"":3373.399999856949},{""stimulus"":""https://ziweizhang0304.github.io/Stats_learning_trig/img/Stim/FN_007_g.png"",""time"":3400.899999856949},{""stimulus"":""blank"",""time"":3714.899999856949},{""stimulus"":""https://ziweizhang0304.github.io/Stats_learning_trig/img/Stim/FN_004_g.png"",""time"":3741.0999999046326},{""stimulus"":""blank"",""time"":4043.0999999046326},{""stimulus"":""https://ziweizhang0304.github.io/Stats_learning_trig/img/Stim/FN_015_g.png"",""time"":4090.5999999046326},{""stimulus"":""blank"",""time"":4401.599999904633}]","[{""key_press"":32,""rt"":2026.5999999046326,""stimulus"":""blank""}]","325.7000000476837","https://ziweizhang0304.github.io/Stats_learning_trig/img/Stim/FN_019_g.png","post_TD","6","1700.8999998569489","2026.5999999046326","fast","5","2","6168b61ad8c0d63b37a92109","","","","","",""
"","image-keyboard-response","25","333711","0.0-5.0-6.0-0.0","1101.2000000476837","","","https://ziweizhang0304.github.io/Stats_learning_trig/img/Stim/FN_012_g.png","13","","","","","","","","","","","","","","","","","",""
"","animation","26","338132","0.0-5.0-6.0-1.0","","","","","","[{""stimulus"":""https://ziweizhang0304.github.io/Stats_learning_trig/img/Stim/FN_015_g.png"",""time"":345},{""stimulus"":""blank"",""time"":656.2000000476837},{""stimulus"":""https://ziweizhang0304.github.io/Stats_learning_trig/img/Stim/FN_023_g.png"",""time"":681.0999999046326},{""stimulus"":""blank"",""time"":983.4000000953674},{""stimulus"":""https://ziweizhang0304.github.io/Stats_learning_trig/img/Stim/FN_005_g.png"",""time"":1021.2000000476837},{""stimulus"":""blank"",""time"":1327.9000000953674},{""stimulus"":""https://ziweizhang0304.github.io/Stats_learning_trig/img/Stim/FN_004_g.png"",""time"":1361.7000000476837},{""stimulus"":""blank"",""time"":1670.9000000953674},{""stimulus"":""https://ziweizhang0304.github.io/Stats_learning_trig/img/Stim/FN_001_g.png"",""time"":1701.7000000476837},{""stimulus"":""blank"",""time"":2014.0999999046326},{""stimulus"":""https://ziweizhang0304.github.io/Stats_learning_trig/img/Stim/FN_007_g.png"",""time"":2041},{""stimulus"":""blank"",""time"":2342.5},{""stimulus"":""https://ziweizhang0304.github.io/Stats_learning_trig/img/Stim/FN_012_g.png"",""time"":2389.9000000953674},{""stimulus"":""blank"",""time"":2702.2000000476837},{""stimulus"":""https://ziweizhang0304.github.io/Stats_learning_trig/img/Stim/FN_019_g.png"",""time"":2720.9000000953674},{""stimulus"":""blank"",""time"":3029.2999999523163},{""stimulus"":""https://ziweizhang0304.github.io/Stats_learning_trig/img/Stim/FN_009_g.png"",""time"":3061.7999999523163},{""stimulus"":""blank"",""time"":3371.5999999046326},{""stimulus"":""https://ziweizhang0304.github.io/Stats_learning_trig/img/Stim/FN_008_g.png"",""time"":3401.7000000476837},{""stimulus"":""blank"",""time"":3714.5},{""stimulus"":""https://ziweizhang0304.github.io/Stats_learning_trig/img/Stim/FN_003_g.png"",""time"":3740.9000000953674},{""stimulus"":""blank"",""time"":4042.7999999523163},{""stimulus"":""https://ziweizhang0304.github.io/Stats_learning_trig/img/Stim/FN_014_g.png"",""time"":4089.5999999046326},{""stimulus"":""blank"",""time"":4401.5}]","[{""key_press"":32,""rt"":2788,""stimulus"":""https://ziweizhang0304.github.io/Stats_learning_trig/img/Stim/FN_019_g.png""}]","398.09999990463257","https://ziweizhang0304.github.io/Stats_learning_trig/img/Stim/FN_012_g.png","post_TD","7","2389.9000000953674","2788","fast","7","1","6168b61ad8c0d63b37a92109","","","","","",""
"","image-keyboard-response","27","339298","0.0-5.0-7.0-0.0","1163.6999998092651","","","https://ziweizhang0304.github.io/Stats_learning_trig/img/Stim/FN_019_g.png","13","","","","","","","","","","","","","","","","","",""
"","animation","28","343719","0.0-5.0-7.0-1.0","","","","","","[{""stimulus"":""https://ziweizhang0304.github.io/Stats_learning_trig/img/Stim/FN_003_g.png"",""time"":348.90000009536743},{""stimulus"":""blank"",""time"":661.4000000953674},{""stimulus"":""https://ziweizhang0304.github.io/Stats_learning_trig/img/Stim/FN_023_g.png"",""time"":681},{""stimulus"":""blank"",""time"":989.2000000476837},{""stimulus"":""https://ziweizhang0304.github.io/Stats_learning_trig/img/Stim/FN_015_g.png"",""time"":1021.9000000953674},{""stimulus"":""blank"",""time"":1335.4000000953674},{""stimulus"":""https://ziweizhang0304.github.io/Stats_learning_trig/img/Stim/FN_008_g.png"",""time"":1360.5999999046326},{""stimulus"":""blank"",""time"":1662.4000000953674},{""stimulus"":""https://ziweizhang0304.github.io/Stats_learning_trig/img/Stim/FN_001_g.png"",""time"":1702.7000000476837},{""stimulus"":""blank"",""time"":2004.5},{""stimulus"":""https://ziweizhang0304.github.io/Stats_learning_trig/img/Stim/FN_012_g.png"",""time"":2040.9000000953674},{""stimulus"":""blank"",""time"":2346.5999999046326},{""stimulus"":""https://ziweizhang0304.github.io/Stats_learning_trig/img/Stim/FN_019_g.png"",""time"":2381.4000000953674},{""stimulus"":""blank"",""time"":2689.7999999523163},{""stimulus"":""https://ziweizhang0304.github.io/Stats_learning_trig/img/Stim/FN_009_g.png"",""time"":2721},{""stimulus"":""blank"",""time"":3033.5999999046326},{""stimulus"":""https://ziweizhang0304.github.io/Stats_learning_trig/img/Stim/FN_005_g.png"",""time"":3061.4000000953674},{""stimulus"":""blank"",""time"":3376.5999999046326},{""stimulus"":""https://ziweizhang0304.github.io/Stats_learning_trig/img/Stim/FN_014_g.png"",""time"":3401.5},{""stimulus"":""blank"",""time"":3701.7000000476837},{""stimulus"":""https://ziweizhang0304.github.io/Stats_learning_trig/img/Stim/FN_007_g.png"",""time"":3741.4000000953674},{""stimulus"":""blank"",""time"":4043.4000000953674},{""stimulus"":""https://ziweizhang0304.github.io/Stats_learning_trig/img/Stim/FN_004_g.png"",""time"":4081.2999999523163},{""stimulus"":""blank"",""time"":4386.900000095367}]","[{""key_press"":32,""rt"":2784.600000143051,""stimulus"":""https://ziweizhang0304.github.io/Stats_learning_trig/img/Stim/FN_009_g.png""}]","403.2000000476837","https://ziweizhang0304.github.io/Stats_learning_trig/img/Stim/FN_019_g.png","post_TD","8","2381.4000000953674","2784.600000143051","fast","7","2","6168b61ad8c0d63b37a92109","","","","","",""
"","image-keyboard-response","29","344513","0.0-5.0-8.0-0.0","791.2000000476837","","","https://ziweizhang0304.github.io/Stats_learning_trig/img/Stim/FN_024_g.png","13","","","","","","","","","","","","","","","","","",""
"","animation","30","348933","0.0-5.0-8.0-1.0","","","","","","[{""stimulus"":""https://ziweizhang0304.github.io/Stats_learning_trig/img/Stim/FN_008_g.png"",""time"":344.09999990463257},{""stimulus"":""blank"",""time"":657.7999999523163},{""stimulus"":""https://ziweizhang0304.github.io/Stats_learning_trig/img/Stim/FN_014_g.png"",""time"":681.5999999046326},{""stimulus"":""blank"",""time"":984.0999999046326},{""stimulus"":""https://ziweizhang0304.github.io/Stats_learning_trig/img/Stim/FN_015_g.png"",""time"":1021.0999999046326},{""stimulus"":""blank"",""time"":1328.2999999523163},{""stimulus"":""https://ziweizhang0304.github.io/Stats_learning_trig/img/Stim/FN_023_g.png"",""time"":1361.7999999523163},{""stimulus"":""blank"",""time"":1671.0999999046326},{""stimulus"":""https://ziweizhang0304.github.io/Stats_learning_trig/img/Stim/FN_001_g.png"",""time"":1701.0999999046326},{""stimulus"":""blank"",""time"":2014.2999999523163},{""stimulus"":""https://ziweizhang0304.github.io/Stats_learning_trig/img/Stim/FN_024_g.png"",""time"":2041.5999999046326},{""stimulus"":""blank"",""time"":2356.2000000476837},{""stimulus"":""https://ziweizhang0304.github.io/Stats_learning_trig/img/Stim/FN_020_g.png"",""time"":2381.2000000476837},{""stimulus"":""blank"",""time"":2683.2999999523163},{""stimulus"":""https://ziweizhang0304.github.io/Stats_learning_trig/img/Stim/FN_026_g.png"",""time"":2720.7999999523163},{""stimulus"":""blank"",""time"":3026.7000000476837},{""stimulus"":""https://ziweizhang0304.github.io/Stats_learning_trig/img/Stim/FN_003_g.png"",""time"":3074.0999999046326},{""stimulus"":""blank"",""time"":3385.4000000953674},{""stimulus"":""https://ziweizhang0304.github.io/Stats_learning_trig/img/Stim/FN_005_g.png"",""time"":3401.0999999046326},{""stimulus"":""blank"",""time"":3711.4000000953674},{""stimulus"":""https://ziweizhang0304.github.io/Stats_learning_trig/img/Stim/FN_007_g.png"",""time"":3741.4000000953674},{""stimulus"":""blank"",""time"":4055.5999999046326},{""stimulus"":""https://ziweizhang0304.github.io/Stats_learning_trig/img/Stim/FN_004_g.png"",""time"":4081.4000000953674},{""stimulus"":""blank"",""time"":4383}]","[{""key_press"":32,""rt"":2401.800000190735,""stimulus"":""https://ziweizhang0304.github.io/Stats_learning_trig/img/Stim/FN_020_g.png""}]","360.2000002861023","https://ziweizhang0304.github.io/Stats_learning_trig/img/Stim/FN_024_g.png","post_TD","9","2041.5999999046326","2401.800000190735","slow","6","1","6168b61ad8c0d63b37a92109","","","","","",""
"","image-keyboard-response","31","349632","0.0-5.0-9.0-0.0","697","","","https://ziweizhang0304.github.io/Stats_learning_trig/img/Stim/FN_024_g.png","13","","","","","","","","","","","","","","","","","",""
"","animation","32","354054","0.0-5.0-9.0-1.0","","","","","","[{""stimulus"":""https://ziweizhang0304.github.io/Stats_learning_trig/img/Stim/FN_023_g.png"",""time"":354.39999985694885},{""stimulus"":""blank"",""time"":666.2000000476837},{""stimulus"":""https://ziweizhang0304.github.io/Stats_learning_trig/img/Stim/FN_003_g.png"",""time"":681.7000000476837},{""stimulus"":""blank"",""time"":995.5999999046326},{""stimulus"":""https://ziweizhang0304.github.io/Stats_learning_trig/img/Stim/FN_008_g.png"",""time"":1021},{""stimulus"":""blank"",""time"":1322},{""stimulus"":""https://ziweizhang0304.github.io/Stats_learning_trig/img/Stim/FN_001_g.png"",""time"":1369.7000000476837},{""stimulus"":""blank"",""time"":1680.7000000476837},{""stimulus"":""https://ziweizhang0304.github.io/Stats_learning_trig/img/Stim/FN_015_g.png"",""time"":1701.0999999046326},{""stimulus"":""blank"",""time"":2008.0999999046326},{""stimulus"":""https://ziweizhang0304.github.io/Stats_learning_trig/img/Stim/FN_005_g.png"",""time"":2041.2000000476837},{""stimulus"":""blank"",""time"":2352.899999856949},{""stimulus"":""https://ziweizhang0304.github.io/Stats_learning_trig/img/Stim/FN_024_g.png"",""time"":2381.7000000476837},{""stimulus"":""blank"",""time"":2694.5999999046326},{""stimulus"":""https://ziweizhang0304.github.io/Stats_learning_trig/img/Stim/FN_020_g.png"",""time"":2721.399999856949},{""stimulus"":""blank"",""time"":3023.399999856949},{""stimulus"":""https://ziweizhang0304.github.io/Stats_learning_trig/img/Stim/FN_026_g.png"",""time"":3063.5},{""stimulus"":""blank"",""time"":3368},{""stimulus"":""https://ziweizhang0304.github.io/Stats_learning_trig/img/Stim/FN_014_g.png"",""time"":3400.7999999523163},{""stimulus"":""blank"",""time"":3711.7000000476837},{""stimulus"":""https://ziweizhang0304.github.io/Stats_learning_trig/img/Stim/FN_007_g.png"",""time"":3741.2000000476837},{""stimulus"":""blank"",""time"":4055.2000000476837},{""stimulus"":""https://ziweizhang0304.github.io/Stats_learning_trig/img/Stim/FN_004_g.png"",""time"":4081.399999856949},{""stimulus"":""blank"",""time"":4396.399999856949}]","[{""key_press"":32,""rt"":2739.2999999523163,""stimulus"":""https://ziweizhang0304.github.io/Stats_learning_trig/img/Stim/FN_020_g.png""}]","357.59999990463257","https://ziweizhang0304.github.io/Stats_learning_trig/img/Stim/FN_024_g.png","post_TD","10","2381.7000000476837","2739.2999999523163","slow","7","1","6168b61ad8c0d63b37a92109","","","","","",""
"","image-keyboard-response","33","354780","0.0-5.0-10.0-0.0","723.5999999046326","","","https://ziweizhang0304.github.io/Stats_learning_trig/img/Stim/FN_026_g.png","13","","","","","","","","","","","","","","","","","",""
"","animation","34","359201","0.0-5.0-10.0-1.0","","","","","","[{""stimulus"":""https://ziweizhang0304.github.io/Stats_learning_trig/img/Stim/FN_007_g.png"",""time"":354.5},{""stimulus"":""blank"",""time"":666.6000001430511},{""stimulus"":""https://ziweizhang0304.github.io/Stats_learning_trig/img/Stim/FN_023_g.png"",""time"":681.2999999523163},{""stimulus"":""blank"",""time"":992.5},{""stimulus"":""https://ziweizhang0304.github.io/Stats_learning_trig/img/Stim/FN_003_g.png"",""time"":1021.6000001430511},{""stimulus"":""blank"",""time"":1333.5},{""stimulus"":""https://ziweizhang0304.github.io/Stats_learning_trig/img/Stim/FN_004_g.png"",""time"":1361.7000000476837},{""stimulus"":""blank"",""time"":1677},{""stimulus"":""https://ziweizhang0304.github.io/Stats_learning_trig/img/Stim/FN_024_g.png"",""time"":1701.6000001430511},{""stimulus"":""blank"",""time"":2004.6000001430511},{""stimulus"":""https://ziweizhang0304.github.io/Stats_learning_trig/img/Stim/FN_020_g.png"",""time"":2052.600000143051},{""stimulus"":""blank"",""time"":2363.600000143051},{""stimulus"":""https://ziweizhang0304.github.io/Stats_learning_trig/img/Stim/FN_026_g.png"",""time"":2381.4000000953674},{""stimulus"":""blank"",""time"":2692.2999999523163},{""stimulus"":""https://ziweizhang0304.github.io/Stats_learning_trig/img/Stim/FN_008_g.png"",""time"":2721.2999999523163},{""stimulus"":""blank"",""time"":3034.100000143051},{""stimulus"":""https://ziweizhang0304.github.io/Stats_learning_trig/img/Stim/FN_005_g.png"",""time"":3060.9000000953674},{""stimulus"":""blank"",""time"":3364.600000143051},{""stimulus"":""https://ziweizhang0304.github.io/Stats_learning_trig/img/Stim/FN_014_g.png"",""time"":3402},{""stimulus"":""blank"",""time"":3706.9000000953674},{""stimulus"":""https://ziweizhang0304.github.io/Stats_learning_trig/img/Stim/FN_001_g.png"",""time"":3741.7999999523163},{""stimulus"":""blank"",""time"":4051.5},{""stimulus"":""https://ziweizhang0304.github.io/Stats_learning_trig/img/Stim/FN_015_g.png"",""time"":4080.9000000953674},{""stimulus"":""blank"",""time"":4394.200000047684}]","[{""key_press"":32,""rt"":2743.399999856949,""stimulus"":""https://ziweizhang0304.github.io/Stats_learning_trig/img/Stim/FN_008_g.png""}]","361.9999997615814","https://ziweizhang0304.github.io/Stats_learning_trig/img/Stim/FN_026_g.png","post_TD","11","2381.4000000953674","2743.399999856949","slow","7","3","6168b61ad8c0d63b37a92109","","","","","",""
"","image-keyboard-response","35","359857","0.0-5.0-11.0-0.0","654.8999998569489","","","https://ziweizhang0304.github.io/Stats_learning_trig/img/Stim/FN_020_g.png","13","","","","","","","","","","","","","","","","","",""
"","animation","36","364289","0.0-5.0-11.0-1.0","","","","","","[{""stimulus"":""https://ziweizhang0304.github.io/Stats_learning_trig/img/Stim/FN_008_g.png"",""time"":345.80000019073486},{""stimulus"":""blank"",""time"":657.7000000476837},{""stimulus"":""https://ziweizhang0304.github.io/Stats_learning_trig/img/Stim/FN_014_g.png"",""time"":681.3000001907349},{""stimulus"":""blank"",""time"":985.5},{""stimulus"":""https://ziweizhang0304.github.io/Stats_learning_trig/img/Stim/FN_015_g.png"",""time"":1021.2000000476837},{""stimulus"":""blank"",""time"":1327.9000000953674},{""stimulus"":""https://ziweizhang0304.github.io/Stats_learning_trig/img/Stim/FN_023_g.png"",""time"":1374.5},{""stimulus"":""blank"",""time"":1686.7000000476837},{""stimulus"":""https://ziweizhang0304.github.io/Stats_learning_trig/img/Stim/FN_001_g.png"",""time"":1701.3000001907349},{""stimulus"":""blank"",""time"":2013},{""stimulus"":""https://ziweizhang0304.github.io/Stats_learning_trig/img/Stim/FN_024_g.png"",""time"":2045.1000001430511},{""stimulus"":""blank"",""time"":2356.7000000476837},{""stimulus"":""https://ziweizhang0304.github.io/Stats_learning_trig/img/Stim/FN_020_g.png"",""time"":2381.5},{""stimulus"":""blank"",""time"":2683.300000190735},{""stimulus"":""https://ziweizhang0304.github.io/Stats_learning_trig/img/Stim/FN_026_g.png"",""time"":2720.800000190735},{""stimulus"":""blank"",""time"":3026.600000143051},{""stimulus"":""https://ziweizhang0304.github.io/Stats_learning_trig/img/Stim/FN_003_g.png"",""time"":3074},{""stimulus"":""blank"",""time"":3385.100000143051},{""stimulus"":""https://ziweizhang0304.github.io/Stats_learning_trig/img/Stim/FN_005_g.png"",""time"":3401.600000143051},{""stimulus"":""blank"",""time"":3712.300000190735},{""stimulus"":""https://ziweizhang0304.github.io/Stats_learning_trig/img/Stim/FN_007_g.png"",""time"":3744.300000190735},{""stimulus"":""blank"",""time"":4054.9000000953674},{""stimulus"":""https://ziweizhang0304.github.io/Stats_learning_trig/img/Stim/FN_004_g.png"",""time"":4081.9000000953674},{""stimulus"":""blank"",""time"":4384.700000047684}]","[{""key_press"":32,""rt"":2716,""stimulus"":""blank""}]","334.5","https://ziweizhang0304.github.io/Stats_learning_trig/img/Stim/FN_020_g.png","post_TD","12","2381.5","2716","slow","7","2","6168b61ad8c0d63b37a92109","","","","","",""
"","image-keyboard-response","37","364915","0.0-5.0-12.0-0.0","623.0999999046326","","","https://ziweizhang0304.github.io/Stats_learning_trig/img/Stim/FN_024_g.png","13","","","","","","","","","","","","","","","","","",""
"","animation","38","369350","0.0-5.0-12.0-1.0","","","","","","[{""stimulus"":""https://ziweizhang0304.github.io/Stats_learning_trig/img/Stim/FN_004_g.png"",""time"":354.2000000476837},{""stimulus"":""blank"",""time"":665},{""stimulus"":""https://ziweizhang0304.github.io/Stats_learning_trig/img/Stim/FN_023_g.png"",""time"":681.7000000476837},{""stimulus"":""blank"",""time"":993.5},{""stimulus"":""https://ziweizhang0304.github.io/Stats_learning_trig/img/Stim/FN_007_g.png"",""time"":1021.7000000476837},{""stimulus"":""blank"",""time"":1326.5},{""stimulus"":""https://ziweizhang0304.github.io/Stats_learning_trig/img/Stim/FN_024_g.png"",""time"":1361.5999999046326},{""stimulus"":""blank"",""time"":1676.5},{""stimulus"":""https://ziweizhang0304.github.io/Stats_learning_trig/img/Stim/FN_020_g.png"",""time"":1701.5999999046326},{""stimulus"":""blank"",""time"":2004},{""stimulus"":""https://ziweizhang0304.github.io/Stats_learning_trig/img/Stim/FN_026_g.png"",""time"":2043.5999999046326},{""stimulus"":""blank"",""time"":2346.7999999523163},{""stimulus"":""https://ziweizhang0304.github.io/Stats_learning_trig/img/Stim/FN_008_g.png"",""time"":2394.0999999046326},{""stimulus"":""blank"",""time"":2705.5999999046326},{""stimulus"":""https://ziweizhang0304.github.io/Stats_learning_trig/img/Stim/FN_003_g.png"",""time"":2721.2999999523163},{""stimulus"":""blank"",""time"":3032.7999999523163},{""stimulus"":""https://ziweizhang0304.github.io/Stats_learning_trig/img/Stim/FN_005_g.png"",""time"":3060.9000000953674},{""stimulus"":""blank"",""time"":3375.9000000953674},{""stimulus"":""https://ziweizhang0304.github.io/Stats_learning_trig/img/Stim/FN_014_g.png"",""time"":3401.5999999046326},{""stimulus"":""blank"",""time"":3702.2000000476837},{""stimulus"":""https://ziweizhang0304.github.io/Stats_learning_trig/img/Stim/FN_001_g.png"",""time"":3742.2999999523163},{""stimulus"":""blank"",""time"":4045},{""stimulus"":""https://ziweizhang0304.github.io/Stats_learning_trig/img/Stim/FN_015_g.png"",""time"":4093},{""stimulus"":""blank"",""time"":4404.099999904633}]","[{""key_press"":32,""rt"":1736.7999999523163,""stimulus"":""https://ziweizhang0304.github.io/Stats_learning_trig/img/Stim/FN_020_g.png""}]","375.2000000476837","https://ziweizhang0304.github.io/Stats_learning_trig/img/Stim/FN_024_g.png","post_TD","13","1361.5999999046326","1736.7999999523163","slow","4","1","6168b61ad8c0d63b37a92109","","","","","",""
"","image-keyboard-response","39","370073","0.0-5.0-13.0-0.0","719.5","","","https://ziweizhang0304.github.io/Stats_learning_trig/img/Stim/FN_026_g.png","13","","","","","","","","","","","","","","","","","",""
"","animation","40","374493","0.0-5.0-13.0-1.0","","","","","","[{""stimulus"":""https://ziweizhang0304.github.io/Stats_learning_trig/img/Stim/FN_004_g.png"",""time"":351.5},{""stimulus"":""blank"",""time"":662.2000000476837},{""stimulus"":""https://ziweizhang0304.github.io/Stats_learning_trig/img/Stim/FN_023_g.png"",""time"":681.2000000476837},{""stimulus"":""blank"",""time"":990},{""stimulus"":""https://ziweizhang0304.github.io/Stats_learning_trig/img/Stim/FN_007_g.png"",""time"":1020.9000000953674},{""stimulus"":""blank"",""time"":1332.9000000953674},{""stimulus"":""https://ziweizhang0304.github.io/Stats_learning_trig/img/Stim/FN_024_g.png"",""time"":1361.5},{""stimulus"":""blank"",""time"":1676.4000000953674},{""stimulus"":""https://ziweizhang0304.github.io/Stats_learning_trig/img/Stim/FN_020_g.png"",""time"":1700.9000000953674},{""stimulus"":""blank"",""time"":2004.0999999046326},{""stimulus"":""https://ziweizhang0304.github.io/Stats_learning_trig/img/Stim/FN_026_g.png"",""time"":2041.2000000476837},{""stimulus"":""blank"",""time"":2348.7999999523163},{""stimulus"":""https://ziweizhang0304.github.io/Stats_learning_trig/img/Stim/FN_008_g.png"",""time"":2382.4000000953674},{""stimulus"":""blank"",""time"":2691.7999999523163},{""stimulus"":""https://ziweizhang0304.github.io/Stats_learning_trig/img/Stim/FN_003_g.png"",""time"":2723.2000000476837},{""stimulus"":""blank"",""time"":3034},{""stimulus"":""https://ziweizhang0304.github.io/Stats_learning_trig/img/Stim/FN_005_g.png"",""time"":3061.7999999523163},{""stimulus"":""blank"",""time"":3376.9000000953674},{""stimulus"":""https://ziweizhang0304.github.io/Stats_learning_trig/img/Stim/FN_014_g.png"",""time"":3408.2000000476837},{""stimulus"":""blank"",""time"":3719.7999999523163},{""stimulus"":""https://ziweizhang0304.github.io/Stats_learning_trig/img/Stim/FN_001_g.png"",""time"":3741.5},{""stimulus"":""blank"",""time"":4049.2000000476837},{""stimulus"":""https://ziweizhang0304.github.io/Stats_learning_trig/img/Stim/FN_015_g.png"",""time"":4081.9000000953674},{""stimulus"":""blank"",""time"":4393.299999952316}]","[{""key_press"":32,""rt"":2424.2999999523163,""stimulus"":""https://ziweizhang0304.github.io/Stats_learning_trig/img/Stim/FN_008_g.png""}]","383.09999990463257","https://ziweizhang0304.github.io/Stats_learning_trig/img/Stim/FN_026_g.png","post_TD","14","2041.2000000476837","2424.2999999523163","slow","6","3","6168b61ad8c0d63b37a92109","","","","","",""
"","image-keyboard-response","41","374925","0.0-5.0-14.0-0.0","429.09999990463257","","","https://ziweizhang0304.github.io/Stats_learning_trig/img/Stim/FN_012_g.png","13","","","","","","","","","","","","","","","","","",""
"","animation","42","379358","0.0-5.0-14.0-1.0","","","","","","[{""stimulus"":""https://ziweizhang0304.github.io/Stats_learning_trig/img/Stim/FN_008_g.png"",""time"":357},{""stimulus"":""blank"",""time"":668.7999999523163},{""stimulus"":""https://ziweizhang0304.github.io/Stats_learning_trig/img/Stim/FN_015_g.png"",""time"":681.4000000953674},{""stimulus"":""blank"",""time"":982.2999999523163},{""stimulus"":""https://ziweizhang0304.github.io/Stats_learning_trig/img/Stim/FN_005_g.png"",""time"":1030.9000000953674},{""stimulus"":""blank"",""time"":1344},{""stimulus"":""https://ziweizhang0304.github.io/Stats_learning_trig/img/Stim/FN_004_g.png"",""time"":1362.2000000476837},{""stimulus"":""blank"",""time"":1672.5999999046326},{""stimulus"":""https://ziweizhang0304.github.io/Stats_learning_trig/img/Stim/FN_012_g.png"",""time"":1702.5999999046326},{""stimulus"":""blank"",""time"":2015.2999999523163},{""stimulus"":""https://ziweizhang0304.github.io/Stats_learning_trig/img/Stim/FN_019_g.png"",""time"":2041},{""stimulus"":""blank"",""time"":2344},{""stimulus"":""https://ziweizhang0304.github.io/Stats_learning_trig/img/Stim/FN_009_g.png"",""time"":2380.7999999523163},{""stimulus"":""blank"",""time"":2685.7000000476837},{""stimulus"":""https://ziweizhang0304.github.io/Stats_learning_trig/img/Stim/FN_003_g.png"",""time"":2733.2999999523163},{""stimulus"":""blank"",""time"":3047.2999999523163},{""stimulus"":""https://ziweizhang0304.github.io/Stats_learning_trig/img/Stim/FN_023_g.png"",""time"":3062},{""stimulus"":""blank"",""time"":3372.7999999523163},{""stimulus"":""https://ziweizhang0304.github.io/Stats_learning_trig/img/Stim/FN_014_g.png"",""time"":3401.5999999046326},{""stimulus"":""blank"",""time"":3716.7999999523163},{""stimulus"":""https://ziweizhang0304.github.io/Stats_learning_trig/img/Stim/FN_001_g.png"",""time"":3741.2999999523163},{""stimulus"":""blank"",""time"":4043.5},{""stimulus"":""https://ziweizhang0304.github.io/Stats_learning_trig/img/Stim/FN_007_g.png"",""time"":4081.5},{""stimulus"":""blank"",""time"":4386}]","[{""key_press"":32,""rt"":2072.5,""stimulus"":""https://ziweizhang0304.github.io/Stats_learning_trig/img/Stim/FN_019_g.png""}]","369.90000009536743","https://ziweizhang0304.github.io/Stats_learning_trig/img/Stim/FN_012_g.png","post_TD","15","1702.5999999046326","2072.5","fast","5","1","6168b61ad8c0d63b37a92109","","","","","",""
"","image-keyboard-response","43","379886","0.0-5.0-15.0-0.0","525.4000000953674","","","https://ziweizhang0304.github.io/Stats_learning_trig/img/Stim/FN_026_g.png","13","","","","","","","","","","","","","","","","","",""
"","animation","44","384308","0.0-5.0-15.0-1.0","","","","","","[{""stimulus"":""https://ziweizhang0304.github.io/Stats_learning_trig/img/Stim/FN_023_g.png"",""time"":345.10000014305115},{""stimulus"":""blank"",""time"":656},{""stimulus"":""https://ziweizhang0304.github.io/Stats_learning_trig/img/Stim/FN_003_g.png"",""time"":680.7999999523163},{""stimulus"":""blank"",""time"":983.1000001430511},{""stimulus"":""https://ziweizhang0304.github.io/Stats_learning_trig/img/Stim/FN_008_g.png"",""time"":1020.9000000953674},{""stimulus"":""blank"",""time"":1328.2999999523163},{""stimulus"":""https://ziweizhang0304.github.io/Stats_learning_trig/img/Stim/FN_001_g.png"",""time"":1366.2000000476837},{""stimulus"":""blank"",""time"":1672.9000000953674},{""stimulus"":""https://ziweizhang0304.github.io/Stats_learning_trig/img/Stim/FN_015_g.png"",""time"":1701.6000001430511},{""stimulus"":""blank"",""time"":2016.1000001430511},{""stimulus"":""https://ziweizhang0304.github.io/Stats_learning_trig/img/Stim/FN_005_g.png"",""time"":2041.2999999523163},{""stimulus"":""blank"",""time"":2344.600000143051},{""stimulus"":""https://ziweizhang0304.github.io/Stats_learning_trig/img/Stim/FN_024_g.png"",""time"":2382.600000143051},{""stimulus"":""blank"",""time"":2688.5},{""stimulus"":""https://ziweizhang0304.github.io/Stats_learning_trig/img/Stim/FN_020_g.png"",""time"":2721.100000143051},{""stimulus"":""blank"",""time"":3033.600000143051},{""stimulus"":""https://ziweizhang0304.github.io/Stats_learning_trig/img/Stim/FN_026_g.png"",""time"":3061.2999999523163},{""stimulus"":""blank"",""time"":3361.9000000953674},{""stimulus"":""https://ziweizhang0304.github.io/Stats_learning_trig/img/Stim/FN_014_g.png"",""time"":3409.5},{""stimulus"":""blank"",""time"":3722.2999999523163},{""stimulus"":""https://ziweizhang0304.github.io/Stats_learning_trig/img/Stim/FN_007_g.png"",""time"":3741.100000143051},{""stimulus"":""blank"",""time"":4051.5},{""stimulus"":""https://ziweizhang0304.github.io/Stats_learning_trig/img/Stim/FN_004_g.png"",""time"":4081.5},{""stimulus"":""blank"",""time"":4394.400000095367}]","[{""key_press"":32,""rt"":2726.199999809265,""stimulus"":""https://ziweizhang0304.github.io/Stats_learning_trig/img/Stim/FN_020_g.png""},{""key_press"":32,""rt"":3498.0999999046326,""stimulus"":""https://ziweizhang0304.github.io/Stats_learning_trig/img/Stim/FN_014_g.png""}]","436.7999999523163","https://ziweizhang0304.github.io/Stats_learning_trig/img/Stim/FN_026_g.png","post_TD","16","3061.2999999523163","3498.0999999046326","slow","9","3","6168b61ad8c0d63b37a92109","","","","","",""
"","image-keyboard-response","45","385870","0.0-5.0-16.0-0.0","1559","","","https://ziweizhang0304.github.io/Stats_learning_trig/img/Stim/FN_020_g.png","13","","","","","","","","","","","","","","","","","",""
"","animation","46","390294","0.0-5.0-16.0-1.0","","","","","","[{""stimulus"":""https://ziweizhang0304.github.io/Stats_learning_trig/img/Stim/FN_007_g.png"",""time"":341.80000019073486},{""stimulus"":""blank"",""time"":653.2000000476837},{""stimulus"":""https://ziweizhang0304.github.io/Stats_learning_trig/img/Stim/FN_023_g.png"",""time"":680.9000000953674},{""stimulus"":""blank"",""time"":993.8000001907349},{""stimulus"":""https://ziweizhang0304.github.io/Stats_learning_trig/img/Stim/FN_003_g.png"",""time"":1021.7000000476837},{""stimulus"":""blank"",""time"":1336.8000001907349},{""stimulus"":""https://ziweizhang0304.github.io/Stats_learning_trig/img/Stim/FN_004_g.png"",""time"":1361.5},{""stimulus"":""blank"",""time"":1664.4000000953674},{""stimulus"":""https://ziweizhang0304.github.io/Stats_learning_trig/img/Stim/FN_024_g.png"",""time"":1700.8000001907349},{""stimulus"":""blank"",""time"":2007.3000001907349},{""stimulus"":""https://ziweizhang0304.github.io/Stats_learning_trig/img/Stim/FN_020_g.png"",""time"":2041.5},{""stimulus"":""blank"",""time"":2351.4000000953674},{""stimulus"":""https://ziweizhang0304.github.io/Stats_learning_trig/img/Stim/FN_026_g.png"",""time"":2382.600000143051},{""stimulus"":""blank"",""time"":2693.2000000476837},{""stimulus"":""https://ziweizhang0304.github.io/Stats_learning_trig/img/Stim/FN_008_g.png"",""time"":2721.2000000476837},{""stimulus"":""blank"",""time"":3036.300000190735},{""stimulus"":""https://ziweizhang0304.github.io/Stats_learning_trig/img/Stim/FN_005_g.png"",""time"":3060.800000190735},{""stimulus"":""blank"",""time"":3362.7000000476837},{""stimulus"":""https://ziweizhang0304.github.io/Stats_learning_trig/img/Stim/FN_014_g.png"",""time"":3409.7000000476837},{""stimulus"":""blank"",""time"":3722.4000000953674},{""stimulus"":""https://ziweizhang0304.github.io/Stats_learning_trig/img/Stim/FN_001_g.png"",""time"":3741.100000143051},{""stimulus"":""blank"",""time"":4049.800000190735},{""stimulus"":""https://ziweizhang0304.github.io/Stats_learning_trig/img/Stim/FN_015_g.png"",""time"":4081.800000190735},{""stimulus"":""blank"",""time"":4392.700000047684}]","[{""key_press"":32,""rt"":2484.300000190735,""stimulus"":""https://ziweizhang0304.github.io/Stats_learning_trig/img/Stim/FN_026_g.png""}]","442.80000019073486","https://ziweizhang0304.github.io/Stats_learning_trig/img/Stim/FN_020_g.png","post_TD","17","2041.5","2484.300000190735","slow","6","2","6168b61ad8c0d63b37a92109","","","","","",""
"","image-keyboard-response","47","391182","0.0-5.0-17.0-0.0","886.5","","","https://ziweizhang0304.github.io/Stats_learning_trig/img/Stim/FN_024_g.png","13","","","","","","","","","","","","","","","","","",""
"","animation","48","395614","0.0-5.0-17.0-1.0","","","","","","[{""stimulus"":""https://ziweizhang0304.github.io/Stats_learning_trig/img/Stim/FN_007_g.png"",""time"":346.39999985694885},{""stimulus"":""blank"",""time"":657.5},{""stimulus"":""https://ziweizhang0304.github.io/Stats_learning_trig/img/Stim/FN_023_g.png"",""time"":681.3999998569489},{""stimulus"":""blank"",""time"":983.8999998569489},{""stimulus"":""https://ziweizhang0304.github.io/Stats_learning_trig/img/Stim/FN_003_g.png"",""time"":1021},{""stimulus"":""blank"",""time"":1327.7999999523163},{""stimulus"":""https://ziweizhang0304.github.io/Stats_learning_trig/img/Stim/FN_004_g.png"",""time"":1362.2000000476837},{""stimulus"":""blank"",""time"":1671.7000000476837},{""stimulus"":""https://ziweizhang0304.github.io/Stats_learning_trig/img/Stim/FN_024_g.png"",""time"":1701.5},{""stimulus"":""blank"",""time"":2016.7999999523163},{""stimulus"":""https://ziweizhang0304.github.io/Stats_learning_trig/img/Stim/FN_020_g.png"",""time"":2041.5999999046326},{""stimulus"":""blank"",""time"":2343.2999999523163},{""stimulus"":""https://ziweizhang0304.github.io/Stats_learning_trig/img/Stim/FN_026_g.png"",""time"":2381.5999999046326},{""stimulus"":""blank"",""time"":2685.0999999046326},{""stimulus"":""https://ziweizhang0304.github.io/Stats_learning_trig/img/Stim/FN_008_g.png"",""time"":2721.7999999523163},{""stimulus"":""blank"",""time"":3029.0999999046326},{""stimulus"":""https://ziweizhang0304.github.io/Stats_learning_trig/img/Stim/FN_005_g.png"",""time"":3061.5},{""stimulus"":""blank"",""time"":3371.5},{""stimulus"":""https://ziweizhang0304.github.io/Stats_learning_trig/img/Stim/FN_014_g.png"",""time"":3401.899999856949},{""stimulus"":""blank"",""time"":3712.7000000476837},{""stimulus"":""https://ziweizhang0304.github.io/Stats_learning_trig/img/Stim/FN_001_g.png"",""time"":3741.2999999523163},{""stimulus"":""blank"",""time"":4056.7000000476837},{""stimulus"":""https://ziweizhang0304.github.io/Stats_learning_trig/img/Stim/FN_015_g.png"",""time"":4081.399999856949},{""stimulus"":""blank"",""time"":4383.700000047684}]","[{""key_press"":32,""rt"":2182.7999999523163,""stimulus"":""https://ziweizhang0304.github.io/Stats_learning_trig/img/Stim/FN_020_g.png""}]","481.2999999523163","https://ziweizhang0304.github.io/Stats_learning_trig/img/Stim/FN_024_g.png","post_TD","18","1701.5","2182.7999999523163","slow","5","1","6168b61ad8c0d63b37a92109","","","","","",""
"","image-keyboard-response","49","396275","0.0-5.0-18.0-0.0","658.7000000476837","","","https://ziweizhang0304.github.io/Stats_learning_trig/img/Stim/FN_026_g.png","13","","","","","","","","","","","","","","","","","",""
"","animation","50","400697","0.0-5.0-18.0-1.0","","","","","","[{""stimulus"":""https://ziweizhang0304.github.io/Stats_learning_trig/img/Stim/FN_008_g.png"",""time"":353.5},{""stimulus"":""blank"",""time"":664.4000000953674},{""stimulus"":""https://ziweizhang0304.github.io/Stats_learning_trig/img/Stim/FN_014_g.png"",""time"":680.7999999523163},{""stimulus"":""blank"",""time"":991.2000000476837},{""stimulus"":""https://ziweizhang0304.github.io/Stats_learning_trig/img/Stim/FN_015_g.png"",""time"":1021.2999999523163},{""stimulus"":""blank"",""time"":1333.5},{""stimulus"":""https://ziweizhang0304.github.io/Stats_learning_trig/img/Stim/FN_023_g.png"",""time"":1364.9000000953674},{""stimulus"":""blank"",""time"":1676.5},{""stimulus"":""https://ziweizhang0304.github.io/Stats_learning_trig/img/Stim/FN_001_g.png"",""time"":1701.2999999523163},{""stimulus"":""blank"",""time"":2002.9000000953674},{""stimulus"":""https://ziweizhang0304.github.io/Stats_learning_trig/img/Stim/FN_024_g.png"",""time"":2040.7000000476837},{""stimulus"":""blank"",""time"":2345.600000143051},{""stimulus"":""https://ziweizhang0304.github.io/Stats_learning_trig/img/Stim/FN_020_g.png"",""time"":2380.7000000476837},{""stimulus"":""blank"",""time"":2688.7000000476837},{""stimulus"":""https://ziweizhang0304.github.io/Stats_learning_trig/img/Stim/FN_026_g.png"",""time"":2721.100000143051},{""stimulus"":""blank"",""time"":3028.2999999523163},{""stimulus"":""https://ziweizhang0304.github.io/Stats_learning_trig/img/Stim/FN_003_g.png"",""time"":3062.100000143051},{""stimulus"":""blank"",""time"":3373.9000000953674},{""stimulus"":""https://ziweizhang0304.github.io/Stats_learning_trig/img/Stim/FN_005_g.png"",""time"":3401.7999999523163},{""stimulus"":""blank"",""time"":3702},{""stimulus"":""https://ziweizhang0304.github.io/Stats_learning_trig/img/Stim/FN_007_g.png"",""time"":3741.100000143051},{""stimulus"":""blank"",""time"":4044.2999999523163},{""stimulus"":""https://ziweizhang0304.github.io/Stats_learning_trig/img/Stim/FN_004_g.png"",""time"":4081},{""stimulus"":""blank"",""time"":4387.5}]","[{""key_press"":32,""rt"":3141.2999999523163,""stimulus"":""https://ziweizhang0304.github.io/Stats_learning_trig/img/Stim/FN_003_g.png""}]","420.19999980926514","https://ziweizhang0304.github.io/Stats_learning_trig/img/Stim/FN_026_g.png","post_TD","19","2721.100000143051","3141.2999999523163","slow","8","3","6168b61ad8c0d63b37a92109","","","","","",""
"","image-keyboard-response","51","401306","0.0-5.0-19.0-0.0","608.2000000476837","","","https://ziweizhang0304.github.io/Stats_learning_trig/img/Stim/FN_020_g.png","13","","","","","","","","","","","","","","","","","",""
"","animation","52","405730","0.0-5.0-19.0-1.0","","","","","","[{""stimulus"":""https://ziweizhang0304.github.io/Stats_learning_trig/img/Stim/FN_023_g.png"",""time"":350.5},{""stimulus"":""blank"",""time"":662},{""stimulus"":""https://ziweizhang0304.github.io/Stats_learning_trig/img/Stim/FN_003_g.png"",""time"":682.2000000476837},{""stimulus"":""blank"",""time"":992.2000000476837},{""stimulus"":""https://ziweizhang0304.github.io/Stats_learning_trig/img/Stim/FN_008_g.png"",""time"":1021.8000001907349},{""stimulus"":""blank"",""time"":1334.7000000476837},{""stimulus"":""https://ziweizhang0304.github.io/Stats_learning_trig/img/Stim/FN_001_g.png"",""time"":1361.6000001430511},{""stimulus"":""blank"",""time"":1663.7000000476837},{""stimulus"":""https://ziweizhang0304.github.io/Stats_learning_trig/img/Stim/FN_015_g.png"",""time"":1701.5},{""stimulus"":""blank"",""time"":2005.8000001907349},{""stimulus"":""https://ziweizhang0304.github.io/Stats_learning_trig/img/Stim/FN_005_g.png"",""time"":2041.4000000953674},{""stimulus"":""blank"",""time"":2349.7000000476837},{""stimulus"":""https://ziweizhang0304.github.io/Stats_learning_trig/img/Stim/FN_024_g.png"",""time"":2381.7000000476837},{""stimulus"":""blank"",""time"":2694.600000143051},{""stimulus"":""https://ziweizhang0304.github.io/Stats_learning_trig/img/Stim/FN_020_g.png"",""time"":2726.9000000953674},{""stimulus"":""blank"",""time"":3038.2000000476837},{""stimulus"":""https://ziweizhang0304.github.io/Stats_learning_trig/img/Stim/FN_026_g.png"",""time"":3060.9000000953674},{""stimulus"":""blank"",""time"":3364.800000190735},{""stimulus"":""https://ziweizhang0304.github.io/Stats_learning_trig/img/Stim/FN_014_g.png"",""time"":3400.9000000953674},{""stimulus"":""blank"",""time"":3707.9000000953674},{""stimulus"":""https://ziweizhang0304.github.io/Stats_learning_trig/img/Stim/FN_007_g.png"",""time"":3755.5},{""stimulus"":""blank"",""time"":4069.600000143051},{""stimulus"":""https://ziweizhang0304.github.io/Stats_learning_trig/img/Stim/FN_004_g.png"",""time"":4081.300000190735},{""stimulus"":""blank"",""time"":4383.200000047684}]","[{""key_press"":32,""rt"":3125.2000000476837,""stimulus"":""https://ziweizhang0304.github.io/Stats_learning_trig/img/Stim/FN_026_g.png""}]","398.2999999523163","https://ziweizhang0304.github.io/Stats_learning_trig/img/Stim/FN_020_g.png","post_TD","20","2726.9000000953674","3125.2000000476837","slow","8","2","6168b61ad8c0d63b37a92109","","","","","",""
"","image-keyboard-response","53","406298","0.0-5.0-20.0-0.0","566","","","https://ziweizhang0304.github.io/Stats_learning_trig/img/Stim/FN_019_g.png","13","","","","","","","","","","","","","","","","","",""
"","animation","54","410720","0.0-5.0-20.0-1.0","","","","","","[{""stimulus"":""https://ziweizhang0304.github.io/Stats_learning_trig/img/Stim/FN_008_g.png"",""time"":343},{""stimulus"":""blank"",""time"":652.8000001907349},{""stimulus"":""https://ziweizhang0304.github.io/Stats_learning_trig/img/Stim/FN_015_g.png"",""time"":680.8000001907349},{""stimulus"":""blank"",""time"":995.4000000953674},{""stimulus"":""https://ziweizhang0304.github.io/Stats_learning_trig/img/Stim/FN_005_g.png"",""time"":1021.1000001430511},{""stimulus"":""blank"",""time"":1322.1000001430511},{""stimulus"":""https://ziweizhang0304.github.io/Stats_learning_trig/img/Stim/FN_004_g.png"",""time"":1361.8000001907349},{""stimulus"":""blank"",""time"":1664.8000001907349},{""stimulus"":""https://ziweizhang0304.github.io/Stats_learning_trig/img/Stim/FN_012_g.png"",""time"":1700.6000001430511},{""stimulus"":""blank"",""time"":2014.4000000953674},{""stimulus"":""https://ziweizhang0304.github.io/Stats_learning_trig/img/Stim/FN_019_g.png"",""time"":2041.4000000953674},{""stimulus"":""blank"",""time"":2347.5},{""stimulus"":""https://ziweizhang0304.github.io/Stats_learning_trig/img/Stim/FN_009_g.png"",""time"":2380.600000143051},{""stimulus"":""blank"",""time"":2695.600000143051},{""stimulus"":""https://ziweizhang0304.github.io/Stats_learning_trig/img/Stim/FN_003_g.png"",""time"":2721.7000000476837},{""stimulus"":""blank"",""time"":3027.4000000953674},{""stimulus"":""https://ziweizhang0304.github.io/Stats_learning_trig/img/Stim/FN_023_g.png"",""time"":3061.100000143051},{""stimulus"":""blank"",""time"":3369.300000190735},{""stimulus"":""https://ziweizhang0304.github.io/Stats_learning_trig/img/Stim/FN_014_g.png"",""time"":3401.2000000476837},{""stimulus"":""blank"",""time"":3711.2000000476837},{""stimulus"":""https://ziweizhang0304.github.io/Stats_learning_trig/img/Stim/FN_001_g.png"",""time"":3741},{""stimulus"":""blank"",""time"":4053.4000000953674},{""stimulus"":""https://ziweizhang0304.github.io/Stats_learning_trig/img/Stim/FN_007_g.png"",""time"":4081},{""stimulus"":""blank"",""time"":4396.200000047684}]","[{""key_press"":32,""rt"":2540.7000000476837,""stimulus"":""https://ziweizhang0304.github.io/Stats_learning_trig/img/Stim/FN_009_g.png""}]","499.2999999523163","https://ziweizhang0304.github.io/Stats_learning_trig/img/Stim/FN_019_g.png","post_TD","21","2041.4000000953674","2540.7000000476837","fast","6","2","6168b61ad8c0d63b37a92109","","","","","",""
"","image-keyboard-response","55","411383","0.0-5.0-21.0-0.0","661.0999999046326","","","https://ziweizhang0304.github.io/Stats_learning_trig/img/Stim/FN_020_g.png","13","","","","","","","","","","","","","","","","","",""
"","animation","56","415804","0.0-5.0-21.0-1.0","","","","","","[{""stimulus"":""https://ziweizhang0304.github.io/Stats_learning_trig/img/Stim/FN_004_g.png"",""time"":341.40000009536743},{""stimulus"":""blank"",""time"":651.4000000953674},{""stimulus"":""https://ziweizhang0304.github.io/Stats_learning_trig/img/Stim/FN_023_g.png"",""time"":681},{""stimulus"":""blank"",""time"":996.4000000953674},{""stimulus"":""https://ziweizhang0304.github.io/Stats_learning_trig/img/Stim/FN_007_g.png"",""time"":1020.9000000953674},{""stimulus"":""blank"",""time"":1323.5},{""stimulus"":""https://ziweizhang0304.github.io/Stats_learning_trig/img/Stim/FN_024_g.png"",""time"":1370.7999999523163},{""stimulus"":""blank"",""time"":1681.7000000476837},{""stimulus"":""https://ziweizhang0304.github.io/Stats_learning_trig/img/Stim/FN_020_g.png"",""time"":1700.7999999523163},{""stimulus"":""blank"",""time"":2010.7000000476837},{""stimulus"":""https://ziweizhang0304.github.io/Stats_learning_trig/img/Stim/FN_026_g.png"",""time"":2041.4000000953674},{""stimulus"":""blank"",""time"":2353.2999999523163},{""stimulus"":""https://ziweizhang0304.github.io/Stats_learning_trig/img/Stim/FN_008_g.png"",""time"":2381.100000143051},{""stimulus"":""blank"",""time"":2696.7000000476837},{""stimulus"":""https://ziweizhang0304.github.io/Stats_learning_trig/img/Stim/FN_003_g.png"",""time"":2721.4000000953674},{""stimulus"":""blank"",""time"":3022.9000000953674},{""stimulus"":""https://ziweizhang0304.github.io/Stats_learning_trig/img/Stim/FN_005_g.png"",""time"":3060.7000000476837},{""stimulus"":""blank"",""time"":3367.2999999523163},{""stimulus"":""https://ziweizhang0304.github.io/Stats_learning_trig/img/Stim/FN_014_g.png"",""time"":3400.7999999523163},{""stimulus"":""blank"",""time"":3708.5},{""stimulus"":""https://ziweizhang0304.github.io/Stats_learning_trig/img/Stim/FN_001_g.png"",""time"":3741.2000000476837},{""stimulus"":""blank"",""time"":4051.2999999523163},{""stimulus"":""https://ziweizhang0304.github.io/Stats_learning_trig/img/Stim/FN_015_g.png"",""time"":4080.9000000953674},{""stimulus"":""blank"",""time"":4393.200000047684}]","[{""key_press"":32,""rt"":2106.199999809265,""stimulus"":""https://ziweizhang0304.github.io/Stats_learning_trig/img/Stim/FN_026_g.png""}]","405.39999985694885","https://ziweizhang0304.github.io/Stats_learning_trig/img/Stim/FN_020_g.png","post_TD","22","1700.7999999523163","2106.199999809265","slow","5","2","6168b61ad8c0d63b37a92109","","","","","",""
"","image-keyboard-response","57","416396","0.0-5.0-22.0-0.0","588.8999998569489","","","https://ziweizhang0304.github.io/Stats_learning_trig/img/Stim/FN_019_g.png","13","","","","","","","","","","","","","","","","","",""
"","animation","58","420818","0.0-5.0-22.0-1.0","","","","","","[{""stimulus"":""https://ziweizhang0304.github.io/Stats_learning_trig/img/Stim/FN_015_g.png"",""time"":345.2000000476837},{""stimulus"":""blank"",""time"":654.5},{""stimulus"":""https://ziweizhang0304.github.io/Stats_learning_trig/img/Stim/FN_023_g.png"",""time"":681.2000000476837},{""stimulus"":""blank"",""time"":982.7999999523163},{""stimulus"":""https://ziweizhang0304.github.io/Stats_learning_trig/img/Stim/FN_005_g.png"",""time"":1020.8999998569489},{""stimulus"":""blank"",""time"":1325.7000000476837},{""stimulus"":""https://ziweizhang0304.github.io/Stats_learning_trig/img/Stim/FN_004_g.png"",""time"":1361.0999999046326},{""stimulus"":""blank"",""time"":1669},{""stimulus"":""https://ziweizhang0304.github.io/Stats_learning_trig/img/Stim/FN_001_g.png"",""time"":1701.2000000476837},{""stimulus"":""blank"",""time"":2013.5999999046326},{""stimulus"":""https://ziweizhang0304.github.io/Stats_learning_trig/img/Stim/FN_007_g.png"",""time"":2041.3999998569489},{""stimulus"":""blank"",""time"":2342},{""stimulus"":""https://ziweizhang0304.github.io/Stats_learning_trig/img/Stim/FN_012_g.png"",""time"":2381.5},{""stimulus"":""blank"",""time"":2687.2000000476837},{""stimulus"":""https://ziweizhang0304.github.io/Stats_learning_trig/img/Stim/FN_019_g.png"",""time"":2721.0999999046326},{""stimulus"":""blank"",""time"":3031.0999999046326},{""stimulus"":""https://ziweizhang0304.github.io/Stats_learning_trig/img/Stim/FN_009_g.png"",""time"":3061.7000000476837},{""stimulus"":""blank"",""time"":3375.7999999523163},{""stimulus"":""https://ziweizhang0304.github.io/Stats_learning_trig/img/Stim/FN_008_g.png"",""time"":3401.7000000476837},{""stimulus"":""blank"",""time"":3702.899999856949},{""stimulus"":""https://ziweizhang0304.github.io/Stats_learning_trig/img/Stim/FN_003_g.png"",""time"":3750.2000000476837},{""stimulus"":""blank"",""time"":4062.0999999046326},{""stimulus"":""https://ziweizhang0304.github.io/Stats_learning_trig/img/Stim/FN_014_g.png"",""time"":4081.2999999523163},{""stimulus"":""blank"",""time"":4387.700000047684}]","[{""key_press"":32,""rt"":3163.0999999046326,""stimulus"":""https://ziweizhang0304.github.io/Stats_learning_trig/img/Stim/FN_009_g.png""}]","442","https://ziweizhang0304.github.io/Stats_learning_trig/img/Stim/FN_019_g.png","post_TD","23","2721.0999999046326","3163.0999999046326","fast","8","2","6168b61ad8c0d63b37a92109","","","","","",""
"","image-keyboard-response","59","421383","0.0-5.0-23.0-0.0","562.5","","","https://ziweizhang0304.github.io/Stats_learning_trig/img/Stim/FN_009_g.png","13","","","","","","","","","","","","","","","","","",""
"","animation","60","425804","0.0-5.0-23.0-1.0","","","","","","[{""stimulus"":""https://ziweizhang0304.github.io/Stats_learning_trig/img/Stim/FN_015_g.png"",""time"":353.89999985694885},{""stimulus"":""blank"",""time"":665.7999999523163},{""stimulus"":""https://ziweizhang0304.github.io/Stats_learning_trig/img/Stim/FN_023_g.png"",""time"":681.5999999046326},{""stimulus"":""blank"",""time"":994.0999999046326},{""stimulus"":""https://ziweizhang0304.github.io/Stats_learning_trig/img/Stim/FN_005_g.png"",""time"":1021.2000000476837},{""stimulus"":""blank"",""time"":1336.2000000476837},{""stimulus"":""https://ziweizhang0304.github.io/Stats_learning_trig/img/Stim/FN_004_g.png"",""time"":1367.8999998569489},{""stimulus"":""blank"",""time"":1676.5},{""stimulus"":""https://ziweizhang0304.github.io/Stats_learning_trig/img/Stim/FN_001_g.png"",""time"":1701.2000000476837},{""stimulus"":""blank"",""time"":2005.2000000476837},{""stimulus"":""https://ziweizhang0304.github.io/Stats_learning_trig/img/Stim/FN_007_g.png"",""time"":2042.2000000476837},{""stimulus"":""blank"",""time"":2350.5999999046326},{""stimulus"":""https://ziweizhang0304.github.io/Stats_learning_trig/img/Stim/FN_012_g.png"",""time"":2381.5},{""stimulus"":""blank"",""time"":2694.399999856949},{""stimulus"":""https://ziweizhang0304.github.io/Stats_learning_trig/img/Stim/FN_019_g.png"",""time"":2721.2999999523163},{""stimulus"":""blank"",""time"":3021.7999999523163},{""stimulus"":""https://ziweizhang0304.github.io/Stats_learning_trig/img/Stim/FN_009_g.png"",""time"":3060.7000000476837},{""stimulus"":""blank"",""time"":3364.899999856949},{""stimulus"":""https://ziweizhang0304.github.io/Stats_learning_trig/img/Stim/FN_008_g.png"",""time"":3405},{""stimulus"":""blank"",""time"":3709.7999999523163},{""stimulus"":""https://ziweizhang0304.github.io/Stats_learning_trig/img/Stim/FN_003_g.png"",""time"":3741.399999856949},{""stimulus"":""blank"",""time"":4051.7999999523163},{""stimulus"":""https://ziweizhang0304.github.io/Stats_learning_trig/img/Stim/FN_014_g.png"",""time"":4084},{""stimulus"":""blank"",""time"":4397.899999856949}]","[{""key_press"":32,""rt"":3421.399999856949,""stimulus"":""https://ziweizhang0304.github.io/Stats_learning_trig/img/Stim/FN_008_g.png""}]","360.69999980926514","https://ziweizhang0304.github.io/Stats_learning_trig/img/Stim/FN_009_g.png","post_TD","24","3060.7000000476837","3421.399999856949","fast","9","3","6168b61ad8c0d63b37a92109","b4050","","","","",""
"","survey-text","61","497662","0.0-6.0","71842.39999985695","","","","","","","","","","","","","","","","","","{""Q0"":""I thought of a word to associate the picture with, such as \""door\"", \""paw\"", or \""star\"", in case that helped me to identify the picture again. ""}","","","",""
"","survey-text","62","561374","0.0-7.0","63708.799999952316","","","","","","","","","","","","","","","","","","{""[object Object]"":""I did not notice any patterns. My best guess would be that the shapes were presented in a particular sequence. ""}","","","",""
"","instructions","63","570256","0.0-8.0","8881.600000143051","","[{""page_index"":0,""viewing_time"":8881.299999952316}]","","","","","","","","","","","","","","","","","","","",""
"","free-sort","64","602178","0.0-9.0","31920.900000095367","","","","","","","","","post_drag","","","","fast","","","","","","[{""src"":""https://ziweizhang0304.github.io/Stats_learning_trig/img/Stim/FN_019_g.png"",""x"":475,""y"":0},{""src"":""https://ziweizhang0304.github.io/Stats_learning_trig/img/Stim/FN_012_g.png"",""x"":-225,""y"":50},{""src"":""https://ziweizhang0304.github.io/Stats_learning_trig/img/Stim/FN_009_g.png"",""x"":475,""y"":50}]","[{""src"":""https://ziweizhang0304.github.io/Stats_learning_trig/img/Stim/FN_009_g.png"",""x"":54,""y"":22},{""src"":""https://ziweizhang0304.github.io/Stats_learning_trig/img/Stim/FN_009_g.png"",""x"":27,""y"":22},{""src"":""https://ziweizhang0304.github.io/Stats_learning_trig/img/Stim/FN_019_g.png"",""x"":108,""y"":21},{""src"":""https://ziweizhang0304.github.io/Stats_learning_trig/img/Stim/FN_012_g.png"",""x"":204,""y"":31},{""src"":""https://ziweizhang0304.github.io/Stats_learning_trig/img/Stim/FN_019_g.png"",""x"":121,""y"":21},{""src"":""https://ziweizhang0304.github.io/Stats_learning_trig/img/Stim/FN_012_g.png"",""x"":221,""y"":27},{""src"":""https://ziweizhang0304.github.io/Stats_learning_trig/img/Stim/FN_009_g.png"",""x"":177,""y"":-25},{""src"":""https://ziweizhang0304.github.io/Stats_learning_trig/img/Stim/FN_019_g.png"",""x"":36,""y"":20},{""src"":""https://ziweizhang0304.github.io/Stats_learning_trig/img/Stim/FN_009_g.png"",""x"":130,""y"":13},{""src"":""https://ziweizhang0304.github.io/Stats_learning_trig/img/Stim/FN_009_g.png"",""x"":127,""y"":24}]","[{""src"":""https://ziweizhang0304.github.io/Stats_learning_trig/img/Stim/FN_019_g.png"",""x"":36,""y"":20},{""src"":""https://ziweizhang0304.github.io/Stats_learning_trig/img/Stim/FN_012_g.png"",""x"":221,""y"":27},{""src"":""https://ziweizhang0304.github.io/Stats_learning_trig/img/Stim/FN_009_g.png"",""x"":127,""y"":24}]",""
"","free-sort","65","638631","0.0-10.0","36451.59999990463","","","","","","","","","post_drag","","","","slow","","","","","","[{""src"":""https://ziweizhang0304.github.io/Stats_learning_trig/img/Stim/FN_026_g.png"",""x"":475,""y"":0},{""src"":""https://ziweizhang0304.github.io/Stats_learning_trig/img/Stim/FN_024_g.png"",""x"":-225,""y"":50},{""src"":""https://ziweizhang0304.github.io/Stats_learning_trig/img/Stim/FN_020_g.png"",""x"":475,""y"":50}]","[{""src"":""https://ziweizhang0304.github.io/Stats_learning_trig/img/Stim/FN_020_g.png"",""x"":132,""y"":33},{""src"":""https://ziweizhang0304.github.io/Stats_learning_trig/img/Stim/FN_024_g.png"",""x"":37,""y"":30},{""src"":""https://ziweizhang0304.github.io/Stats_learning_trig/img/Stim/FN_026_g.png"",""x"":214,""y"":35},{""src"":""https://ziweizhang0304.github.io/Stats_learning_trig/img/Stim/FN_026_g.png"",""x"":214,""y"":33},{""src"":""https://ziweizhang0304.github.io/Stats_learning_trig/img/Stim/FN_020_g.png"",""x"":124,""y"":25},{""src"":""https://ziweizhang0304.github.io/Stats_learning_trig/img/Stim/FN_026_g.png"",""x"":214,""y"":20},{""src"":""https://ziweizhang0304.github.io/Stats_learning_trig/img/Stim/FN_024_g.png"",""x"":36,""y"":20},{""src"":""https://ziweizhang0304.github.io/Stats_learning_trig/img/Stim/FN_024_g.png"",""x"":149,""y"":27},{""src"":""https://ziweizhang0304.github.io/Stats_learning_trig/img/Stim/FN_020_g.png"",""x"":53,""y"":21},{""src"":""https://ziweizhang0304.github.io/Stats_learning_trig/img/Stim/FN_020_g.png"",""x"":51,""y"":22},{""src"":""https://ziweizhang0304.github.io/Stats_learning_trig/img/Stim/FN_024_g.png"",""x"":137,""y"":23}]","[{""src"":""https://ziweizhang0304.github.io/Stats_learning_trig/img/Stim/FN_026_g.png"",""x"":214,""y"":20},{""src"":""https://ziweizhang0304.github.io/Stats_learning_trig/img/Stim/FN_024_g.png"",""x"":137,""y"":23},{""src"":""https://ziweizhang0304.github.io/Stats_learning_trig/img/Stim/FN_020_g.png"",""x"":51,""y"":22}]",""
"","survey-multi-choice","66","646370","0.0-11.0","7736.400000095367","","","","","","","","","","","","","","","","6168b61ad8c0d63b37a92109","","{""awareness"":""No"",""attention_check"":""Press SPACEBAR to a target""}","","","","[0,1]"
