"success","trial_type","trial_index","time_elapsed","internal_node_id","rt","url","view_history","stimulus","key_press","animation_sequence","response","TD_rt","TD_target","test_part","TD_trial_number","onset","offset","attention_state","TD_target_position","TD_within_triplet_counter","participant","yoke_participant","responses","init_locations","moves","final_locations","question_order"
"true","fullscreen","0","7977","0.0-0.0","","","","","","","","","","","","","","","","","","","","","","",""
"","external-html","1","17584","0.0-1.0","9462.300000000745","https://ziweizhang0304.github.io/Stats_learning_trig/content/consent.html","","","","","","","","","","","","","","","","","","","","",""
"","instructions","2","43937","0.0-2.0","26349.200000001118","","[{""page_index"":0,""viewing_time"":14061.200000001118},{""page_index"":1,""viewing_time"":5090.89999999851},{""page_index"":2,""viewing_time"":5766.300000000745},{""page_index"":3,""viewing_time"":1429.5999999996275}]","","","","","","","","","","","","","","","","","","","",""
"","image-keyboard-response","3","48991","0.0-3.0-0.0-0.0","5051.699999999255","","","https://ziweizhang0304.github.io/Stats_learning_trig/img/Stim/FN_012_g.png","13","","","","","","","","","","","","","","","","","",""
"","animation","4","53414","0.0-3.0-0.0-1.0","","","","","","[{""stimulus"":""https://ziweizhang0304.github.io/Stats_learning_trig/img/Stim/FN_001_g.png"",""time"":355.19999999925494},{""stimulus"":""blank"",""time"":655.7999999988824},{""stimulus"":""https://ziweizhang0304.github.io/Stats_learning_trig/img/Stim/FN_009_g.png"",""time"":682.5},{""stimulus"":""blank"",""time"":987.0999999996275},{""stimulus"":""https://ziweizhang0304.github.io/Stats_learning_trig/img/Stim/FN_026_g.png"",""time"":1024.0999999996275},{""stimulus"":""blank"",""time"":1329.5},{""stimulus"":""https://ziweizhang0304.github.io/Stats_learning_trig/img/Stim/FN_005_g.png"",""time"":1363.9000000003725},{""stimulus"":""blank"",""time"":1667.5999999996275},{""stimulus"":""https://ziweizhang0304.github.io/Stats_learning_trig/img/Stim/FN_019_g.png"",""time"":1704.199999999255},{""stimulus"":""blank"",""time"":2007.199999999255},{""stimulus"":""https://ziweizhang0304.github.io/Stats_learning_trig/img/Stim/FN_007_g.png"",""time"":2041.9000000003725},{""stimulus"":""blank"",""time"":2343.5},{""stimulus"":""https://ziweizhang0304.github.io/Stats_learning_trig/img/Stim/FN_014_g.png"",""time"":2386.4000000003725},{""stimulus"":""blank"",""time"":2686.5999999996275},{""stimulus"":""https://ziweizhang0304.github.io/Stats_learning_trig/img/Stim/FN_021_g.png"",""time"":2726.2999999988824},{""stimulus"":""blank"",""time"":3031.7999999988824},{""stimulus"":""https://ziweizhang0304.github.io/Stats_learning_trig/img/Stim/FN_023_g.png"",""time"":3062.199999999255},{""stimulus"":""blank"",""time"":3363.4000000003725},{""stimulus"":""https://ziweizhang0304.github.io/Stats_learning_trig/img/Stim/FN_003_g.png"",""time"":3405.5999999996275},{""stimulus"":""blank"",""time"":3708.7999999988824},{""stimulus"":""https://ziweizhang0304.github.io/Stats_learning_trig/img/Stim/FN_012_g.png"",""time"":3742},{""stimulus"":""blank"",""time"":4043.5},{""stimulus"":""https://ziweizhang0304.github.io/Stats_learning_trig/img/Stim/FN_018_g.png"",""time"":4086.4000000003725},{""stimulus"":""blank"",""time"":4387}]","[{""key_press"":32,""rt"":4195.300000000745,""stimulus"":""https://ziweizhang0304.github.io/Stats_learning_trig/img/Stim/FN_018_g.png""}]","453.30000000074506","https://ziweizhang0304.github.io/Stats_learning_trig/img/Stim/FN_012_g.png","post_prac","","","","","","","","","","","","",""
"","html-keyboard-response","5","57118","0.0-3.0-0.0-2.0","3697","","","<p>Your reaction time for this trial was 453.3 ms.</p><p>Remember that you should only press the SPACEBAR when you see the shape presented at the beginning of the trial. </b> </p><p>Press enter to move on.</p>","13","","","","","","","","","","","","","","","","","",""
"","image-keyboard-response","6","60526","0.0-3.0-1.0-0.0","3407","","","https://ziweizhang0304.github.io/Stats_learning_trig/img/Stim/FN_018_g.png","13","","","","","","","","","","","","","","","","","",""
"","animation","7","64949","0.0-3.0-1.0-1.0","","","","","","[{""stimulus"":""https://ziweizhang0304.github.io/Stats_learning_trig/img/Stim/FN_001_g.png"",""time"":341.80000000074506},{""stimulus"":""blank"",""time"":642.3000000007451},{""stimulus"":""https://ziweizhang0304.github.io/Stats_learning_trig/img/Stim/FN_014_g.png"",""time"":685.9000000003725},{""stimulus"":""blank"",""time"":991.2000000011176},{""stimulus"":""https://ziweizhang0304.github.io/Stats_learning_trig/img/Stim/FN_009_g.png"",""time"":1022.2000000011176},{""stimulus"":""blank"",""time"":1322.5},{""stimulus"":""https://ziweizhang0304.github.io/Stats_learning_trig/img/Stim/FN_023_g.png"",""time"":1363.7000000011176},{""stimulus"":""blank"",""time"":1666.7000000011176},{""stimulus"":""https://ziweizhang0304.github.io/Stats_learning_trig/img/Stim/FN_007_g.png"",""time"":1703.1000000014901},{""stimulus"":""blank"",""time"":2003.6000000014901},{""stimulus"":""https://ziweizhang0304.github.io/Stats_learning_trig/img/Stim/FN_021_g.png"",""time"":2044},{""stimulus"":""blank"",""time"":2347.4000000003725},{""stimulus"":""https://ziweizhang0304.github.io/Stats_learning_trig/img/Stim/FN_005_g.png"",""time"":2385.9000000003725},{""stimulus"":""blank"",""time"":2691.2000000011176},{""stimulus"":""https://ziweizhang0304.github.io/Stats_learning_trig/img/Stim/FN_018_g.png"",""time"":2722.2000000011176},{""stimulus"":""blank"",""time"":3024.10000000149},{""stimulus"":""https://ziweizhang0304.github.io/Stats_learning_trig/img/Stim/FN_012_g.png"",""time"":3063.7000000011176},{""stimulus"":""blank"",""time"":3366.7000000011176},{""stimulus"":""https://ziweizhang0304.github.io/Stats_learning_trig/img/Stim/FN_019_g.png"",""time"":3403.10000000149},{""stimulus"":""blank"",""time"":3703.5},{""stimulus"":""https://ziweizhang0304.github.io/Stats_learning_trig/img/Stim/FN_026_g.png"",""time"":3745.800000000745},{""stimulus"":""blank"",""time"":4051.2000000011176},{""stimulus"":""https://ziweizhang0304.github.io/Stats_learning_trig/img/Stim/FN_003_g.png"",""time"":4085.9000000003725},{""stimulus"":""blank"",""time"":4391.200000001118}]","[{""key_press"":32,""rt"":3132,""stimulus"":""https://ziweizhang0304.github.io/Stats_learning_trig/img/Stim/FN_012_g.png""}]","409.7999999988824","https://ziweizhang0304.github.io/Stats_learning_trig/img/Stim/FN_018_g.png","post_prac","","","","","","","","","","","","",""
"","html-keyboard-response","8","67983","0.0-3.0-1.0-2.0","3031","","","<p>Your reaction time for this trial was 409.8 ms.</p><p>Remember that you should only press the SPACEBAR when you see the shape presented at the beginning of the trial. </b> </p><p>Press enter to move on.</p>","13","","","","","","","","","","","","","","","","","",""
"","image-keyboard-response","9","70484","0.0-3.0-2.0-0.0","2499.7999999988824","","","https://ziweizhang0304.github.io/Stats_learning_trig/img/Stim/FN_015_g.png","13","","","","","","","","","","","","","","","","","",""
"","animation","10","74911","0.0-3.0-2.0-1.0","","","","","","[{""stimulus"":""https://ziweizhang0304.github.io/Stats_learning_trig/img/Stim/FN_014_g.png"",""time"":344.6000000014901},{""stimulus"":""blank"",""time"":645.1000000014901},{""stimulus"":""https://ziweizhang0304.github.io/Stats_learning_trig/img/Stim/FN_026_g.png"",""time"":685.2000000011176},{""stimulus"":""blank"",""time"":988.6000000014901},{""stimulus"":""https://ziweizhang0304.github.io/Stats_learning_trig/img/Stim/FN_003_g.png"",""time"":1025.2000000011176},{""stimulus"":""blank"",""time"":1330.300000000745},{""stimulus"":""https://ziweizhang0304.github.io/Stats_learning_trig/img/Stim/FN_019_g.png"",""time"":1362.1000000014901},{""stimulus"":""blank"",""time"":1663.6000000014901},{""stimulus"":""https://ziweizhang0304.github.io/Stats_learning_trig/img/Stim/FN_001_g.png"",""time"":1703.5},{""stimulus"":""blank"",""time"":2006.300000000745},{""stimulus"":""https://ziweizhang0304.github.io/Stats_learning_trig/img/Stim/FN_009_g.png"",""time"":2044.7000000011176},{""stimulus"":""blank"",""time"":2345},{""stimulus"":""https://ziweizhang0304.github.io/Stats_learning_trig/img/Stim/FN_011_g.png"",""time"":2384.4000000003725},{""stimulus"":""blank"",""time"":2689.800000000745},{""stimulus"":""https://ziweizhang0304.github.io/Stats_learning_trig/img/Stim/FN_022_g.png"",""time"":2725.9000000003725},{""stimulus"":""blank"",""time"":3031.300000000745},{""stimulus"":""https://ziweizhang0304.github.io/Stats_learning_trig/img/Stim/FN_015_g.png"",""time"":3062.300000000745},{""stimulus"":""blank"",""time"":3363.800000000745},{""stimulus"":""https://ziweizhang0304.github.io/Stats_learning_trig/img/Stim/FN_007_g.png"",""time"":3402},{""stimulus"":""blank"",""time"":3704.2000000011176},{""stimulus"":""https://ziweizhang0304.github.io/Stats_learning_trig/img/Stim/FN_021_g.png"",""time"":3744.60000000149},{""stimulus"":""blank"",""time"":4044.9000000003725},{""stimulus"":""https://ziweizhang0304.github.io/Stats_learning_trig/img/Stim/FN_023_g.png"",""time"":4085.10000000149},{""stimulus"":""blank"",""time"":4390}]","[{""key_press"":32,""rt"":3421,""stimulus"":""https://ziweizhang0304.github.io/Stats_learning_trig/img/Stim/FN_007_g.png""}]","358.69999999925494","https://ziweizhang0304.github.io/Stats_learning_trig/img/Stim/FN_015_g.png","post_prac","","","","","","","","","","","","",""
"","html-keyboard-response","11","77435","0.0-3.0-2.0-2.0","2520.300000000745","","","<p>Your reaction time for this trial was 358.7 ms.</p><p>Remember that you should only press the SPACEBAR when you see the shape presented at the beginning of the trial. </b> </p><p>Press enter to move on.</p>","13","","","","","","","","","","","","","","","","","",""
"","instructions","12","87045","0.0-4.0","9609.5","","[{""page_index"":0,""viewing_time"":9609.199999999255}]","","","","","","","","","","","","","","","","","","","",""
"","image-keyboard-response","13","90940","0.0-5.0-0.0-0.0","3893.4000000003725","","","https://ziweizhang0304.github.io/Stats_learning_trig/img/Stim/FN_012_g.png","13","","","","","","","","","","","","","","","","","",""
"","animation","14","95367","0.0-5.0-0.0-1.0","","","","","","[{""stimulus"":""https://ziweizhang0304.github.io/Stats_learning_trig/img/Stim/FN_007_g.png"",""time"":341.40000000037253},{""stimulus"":""blank"",""time"":642.4000000003725},{""stimulus"":""https://ziweizhang0304.github.io/Stats_learning_trig/img/Stim/FN_009_g.png"",""time"":686},{""stimulus"":""blank"",""time"":988.8000000007451},{""stimulus"":""https://ziweizhang0304.github.io/Stats_learning_trig/img/Stim/FN_014_g.png"",""time"":1025},{""stimulus"":""blank"",""time"":1330.300000000745},{""stimulus"":""https://ziweizhang0304.github.io/Stats_learning_trig/img/Stim/FN_005_g.png"",""time"":1363.0999999996275},{""stimulus"":""blank"",""time"":1668.5},{""stimulus"":""https://ziweizhang0304.github.io/Stats_learning_trig/img/Stim/FN_018_g.png"",""time"":1703.5999999996275},{""stimulus"":""blank"",""time"":2004.4000000003725},{""stimulus"":""https://ziweizhang0304.github.io/Stats_learning_trig/img/Stim/FN_012_g.png"",""time"":2041.2000000011176},{""stimulus"":""blank"",""time"":2342.0999999996275},{""stimulus"":""https://ziweizhang0304.github.io/Stats_learning_trig/img/Stim/FN_019_g.png"",""time"":2383.0999999996275},{""stimulus"":""blank"",""time"":2688.5},{""stimulus"":""https://ziweizhang0304.github.io/Stats_learning_trig/img/Stim/FN_021_g.png"",""time"":2725.800000000745},{""stimulus"":""blank"",""time"":3031.2000000011176},{""stimulus"":""https://ziweizhang0304.github.io/Stats_learning_trig/img/Stim/FN_026_g.png"",""time"":3064.2000000011176},{""stimulus"":""blank"",""time"":3369.5999999996275},{""stimulus"":""https://ziweizhang0304.github.io/Stats_learning_trig/img/Stim/FN_001_g.png"",""time"":3403.5999999996275},{""stimulus"":""blank"",""time"":3704.2000000011176},{""stimulus"":""https://ziweizhang0304.github.io/Stats_learning_trig/img/Stim/FN_003_g.png"",""time"":3741.2000000011176},{""stimulus"":""blank"",""time"":4043.300000000745},{""stimulus"":""https://ziweizhang0304.github.io/Stats_learning_trig/img/Stim/FN_023_g.png"",""time"":4083.800000000745},{""stimulus"":""blank"",""time"":4388.800000000745}]","[{""key_press"":32,""rt"":2462.5,""stimulus"":""https://ziweizhang0304.github.io/Stats_learning_trig/img/Stim/FN_019_g.png""}]","421.2999999988824","https://ziweizhang0304.github.io/Stats_learning_trig/img/Stim/FN_012_g.png","post_TD","1","2041.2000000011176","2462.5","slow","6","3","5d215a1bbf7f840019701939","","","","","",""
"","image-keyboard-response","15","96475","0.0-5.0-1.0-0.0","1104.5999999996275","","","https://ziweizhang0304.github.io/Stats_learning_trig/img/Stim/FN_015_g.png","13","","","","","","","","","","","","","","","","","",""
"","animation","16","100898","0.0-5.0-1.0-1.0","","","","","","[{""stimulus"":""https://ziweizhang0304.github.io/Stats_learning_trig/img/Stim/FN_007_g.png"",""time"":346.1000000014901},{""stimulus"":""blank"",""time"":651.4000000003725},{""stimulus"":""https://ziweizhang0304.github.io/Stats_learning_trig/img/Stim/FN_001_g.png"",""time"":684.4000000003725},{""stimulus"":""blank"",""time"":989},{""stimulus"":""https://ziweizhang0304.github.io/Stats_learning_trig/img/Stim/FN_009_g.png"",""time"":1025.800000000745},{""stimulus"":""blank"",""time"":1331.1000000014901},{""stimulus"":""https://ziweizhang0304.github.io/Stats_learning_trig/img/Stim/FN_014_g.png"",""time"":1360.9000000003725},{""stimulus"":""blank"",""time"":1662.7000000011176},{""stimulus"":""https://ziweizhang0304.github.io/Stats_learning_trig/img/Stim/FN_026_g.png"",""time"":1704.9000000003725},{""stimulus"":""blank"",""time"":2005.2000000011176},{""stimulus"":""https://ziweizhang0304.github.io/Stats_learning_trig/img/Stim/FN_011_g.png"",""time"":2045.9000000003725},{""stimulus"":""blank"",""time"":2351.300000000745},{""stimulus"":""https://ziweizhang0304.github.io/Stats_learning_trig/img/Stim/FN_022_g.png"",""time"":2381},{""stimulus"":""blank"",""time"":2684.5},{""stimulus"":""https://ziweizhang0304.github.io/Stats_learning_trig/img/Stim/FN_015_g.png"",""time"":2725.800000000745},{""stimulus"":""blank"",""time"":3031.2000000011176},{""stimulus"":""https://ziweizhang0304.github.io/Stats_learning_trig/img/Stim/FN_019_g.png"",""time"":3062.800000000745},{""stimulus"":""blank"",""time"":3366.10000000149},{""stimulus"":""https://ziweizhang0304.github.io/Stats_learning_trig/img/Stim/FN_021_g.png"",""time"":3404.800000000745},{""stimulus"":""blank"",""time"":3705},{""stimulus"":""https://ziweizhang0304.github.io/Stats_learning_trig/img/Stim/FN_003_g.png"",""time"":3745.60000000149},{""stimulus"":""blank"",""time"":4046.5},{""stimulus"":""https://ziweizhang0304.github.io/Stats_learning_trig/img/Stim/FN_023_g.png"",""time"":4081.2000000011176},{""stimulus"":""blank"",""time"":4384.60000000149}]","[{""key_press"":32,""rt"":3087.89999999851,""stimulus"":""https://ziweizhang0304.github.io/Stats_learning_trig/img/Stim/FN_019_g.png""}]","362.0999999977648","https://ziweizhang0304.github.io/Stats_learning_trig/img/Stim/FN_015_g.png","post_TD","2","2725.800000000745","3087.89999999851","fast","8","3","5d215a1bbf7f840019701939","","","","","",""
"","image-keyboard-response","17","103892","0.0-5.0-2.0-0.0","2991.0999999996275","","","https://ziweizhang0304.github.io/Stats_learning_trig/img/Stim/FN_005_g.png","13","","","","","","","","","","","","","","","","","",""
"","animation","18","108318","0.0-5.0-2.0-1.0","","","","","","[{""stimulus"":""https://ziweizhang0304.github.io/Stats_learning_trig/img/Stim/FN_003_g.png"",""time"":341.69999999925494},{""stimulus"":""blank"",""time"":643.0999999996275},{""stimulus"":""https://ziweizhang0304.github.io/Stats_learning_trig/img/Stim/FN_009_g.png"",""time"":685.1999999992549},{""stimulus"":""blank"",""time"":986},{""stimulus"":""https://ziweizhang0304.github.io/Stats_learning_trig/img/Stim/FN_023_g.png"",""time"":1025},{""stimulus"":""blank"",""time"":1330.4000000003725},{""stimulus"":""https://ziweizhang0304.github.io/Stats_learning_trig/img/Stim/FN_021_g.png"",""time"":1363.7999999988824},{""stimulus"":""blank"",""time"":1667.2999999988824},{""stimulus"":""https://ziweizhang0304.github.io/Stats_learning_trig/img/Stim/FN_001_g.png"",""time"":1705.0999999996275},{""stimulus"":""blank"",""time"":2008.4000000003725},{""stimulus"":""https://ziweizhang0304.github.io/Stats_learning_trig/img/Stim/FN_005_g.png"",""time"":2042.7999999988824},{""stimulus"":""blank"",""time"":2344.5999999996275},{""stimulus"":""https://ziweizhang0304.github.io/Stats_learning_trig/img/Stim/FN_018_g.png"",""time"":2385},{""stimulus"":""blank"",""time"":2686.7999999988824},{""stimulus"":""https://ziweizhang0304.github.io/Stats_learning_trig/img/Stim/FN_012_g.png"",""time"":2725.7999999988824},{""stimulus"":""blank"",""time"":3031.2999999988824},{""stimulus"":""https://ziweizhang0304.github.io/Stats_learning_trig/img/Stim/FN_019_g.png"",""time"":3062.0999999996275},{""stimulus"":""blank"",""time"":3365.2999999988824},{""stimulus"":""https://ziweizhang0304.github.io/Stats_learning_trig/img/Stim/FN_007_g.png"",""time"":3403.5},{""stimulus"":""blank"",""time"":3707.9000000003725},{""stimulus"":""https://ziweizhang0304.github.io/Stats_learning_trig/img/Stim/FN_014_g.png"",""time"":3741.9000000003725},{""stimulus"":""blank"",""time"":4043.2999999988824},{""stimulus"":""https://ziweizhang0304.github.io/Stats_learning_trig/img/Stim/FN_026_g.png"",""time"":4081.199999999255},{""stimulus"":""blank"",""time"":4382.9000000003725}]","[{""key_press"":32,""rt"":2413.2000000011176,""stimulus"":""https://ziweizhang0304.github.io/Stats_learning_trig/img/Stim/FN_018_g.png""}]","370.4000000022352","https://ziweizhang0304.github.io/Stats_learning_trig/img/Stim/FN_005_g.png","post_TD","3","2042.7999999988824","2413.2000000011176","slow","6","1","5d215a1bbf7f840019701939","","","","","",""
"","image-keyboard-response","19","109899","0.0-5.0-3.0-0.0","1578","","","https://ziweizhang0304.github.io/Stats_learning_trig/img/Stim/FN_018_g.png","13","","","","","","","","","","","","","","","","","",""
"","animation","20","114325","0.0-5.0-3.0-1.0","","","","","","[{""stimulus"":""https://ziweizhang0304.github.io/Stats_learning_trig/img/Stim/FN_001_g.png"",""time"":343.5},{""stimulus"":""blank"",""time"":644.4000000003725},{""stimulus"":""https://ziweizhang0304.github.io/Stats_learning_trig/img/Stim/FN_014_g.png"",""time"":680.7000000011176},{""stimulus"":""blank"",""time"":980.9000000003725},{""stimulus"":""https://ziweizhang0304.github.io/Stats_learning_trig/img/Stim/FN_009_g.png"",""time"":1024.6000000014901},{""stimulus"":""blank"",""time"":1329.9000000003725},{""stimulus"":""https://ziweizhang0304.github.io/Stats_learning_trig/img/Stim/FN_023_g.png"",""time"":1365.6000000014901},{""stimulus"":""blank"",""time"":1670.9000000003725},{""stimulus"":""https://ziweizhang0304.github.io/Stats_learning_trig/img/Stim/FN_007_g.png"",""time"":1703.2000000011176},{""stimulus"":""blank"",""time"":2008.5},{""stimulus"":""https://ziweizhang0304.github.io/Stats_learning_trig/img/Stim/FN_021_g.png"",""time"":2044.4000000003725},{""stimulus"":""blank"",""time"":2344.9000000003725},{""stimulus"":""https://ziweizhang0304.github.io/Stats_learning_trig/img/Stim/FN_005_g.png"",""time"":2380.7000000011176},{""stimulus"":""blank"",""time"":2680.9000000003725},{""stimulus"":""https://ziweizhang0304.github.io/Stats_learning_trig/img/Stim/FN_018_g.png"",""time"":2724.7000000011176},{""stimulus"":""blank"",""time"":3026.300000000745},{""stimulus"":""https://ziweizhang0304.github.io/Stats_learning_trig/img/Stim/FN_012_g.png"",""time"":3061.60000000149},{""stimulus"":""blank"",""time"":3366.300000000745},{""stimulus"":""https://ziweizhang0304.github.io/Stats_learning_trig/img/Stim/FN_019_g.png"",""time"":3406},{""stimulus"":""blank"",""time"":3711.300000000745},{""stimulus"":""https://ziweizhang0304.github.io/Stats_learning_trig/img/Stim/FN_026_g.png"",""time"":3744.4000000003725},{""stimulus"":""blank"",""time"":4045.2000000011176},{""stimulus"":""https://ziweizhang0304.github.io/Stats_learning_trig/img/Stim/FN_003_g.png"",""time"":4080.800000000745},{""stimulus"":""blank"",""time"":4381}]","[{""key_press"":32,""rt"":3018.800000000745,""stimulus"":""https://ziweizhang0304.github.io/Stats_learning_trig/img/Stim/FN_018_g.png""}]","294.09999999962747","https://ziweizhang0304.github.io/Stats_learning_trig/img/Stim/FN_018_g.png","post_TD","4","2724.7000000011176","3018.800000000745","slow","8","2","5d215a1bbf7f840019701939","","","","","",""
"","image-keyboard-response","21","115789","0.0-5.0-4.0-0.0","1460.7000000011176","","","https://ziweizhang0304.github.io/Stats_learning_trig/img/Stim/FN_018_g.png","13","","","","","","","","","","","","","","","","","",""
"","animation","22","120213","0.0-5.0-4.0-1.0","","","","","","[{""stimulus"":""https://ziweizhang0304.github.io/Stats_learning_trig/img/Stim/FN_007_g.png"",""time"":341.69999999925494},{""stimulus"":""blank"",""time"":642.0999999996275},{""stimulus"":""https://ziweizhang0304.github.io/Stats_learning_trig/img/Stim/FN_009_g.png"",""time"":684.4000000003725},{""stimulus"":""blank"",""time"":989.6999999992549},{""stimulus"":""https://ziweizhang0304.github.io/Stats_learning_trig/img/Stim/FN_014_g.png"",""time"":1026},{""stimulus"":""blank"",""time"":1331.2999999988824},{""stimulus"":""https://ziweizhang0304.github.io/Stats_learning_trig/img/Stim/FN_005_g.png"",""time"":1363.0999999996275},{""stimulus"":""blank"",""time"":1665.5999999996275},{""stimulus"":""https://ziweizhang0304.github.io/Stats_learning_trig/img/Stim/FN_018_g.png"",""time"":1704.5},{""stimulus"":""blank"",""time"":2008.199999999255},{""stimulus"":""https://ziweizhang0304.github.io/Stats_learning_trig/img/Stim/FN_012_g.png"",""time"":2041.7999999988824},{""stimulus"":""blank"",""time"":2342.7999999988824},{""stimulus"":""https://ziweizhang0304.github.io/Stats_learning_trig/img/Stim/FN_019_g.png"",""time"":2386.0999999996275},{""stimulus"":""blank"",""time"":2686.7999999988824},{""stimulus"":""https://ziweizhang0304.github.io/Stats_learning_trig/img/Stim/FN_021_g.png"",""time"":2725.699999999255},{""stimulus"":""blank"",""time"":3026.5},{""stimulus"":""https://ziweizhang0304.github.io/Stats_learning_trig/img/Stim/FN_026_g.png"",""time"":3062.5999999996275},{""stimulus"":""blank"",""time"":3365.5999999996275},{""stimulus"":""https://ziweizhang0304.github.io/Stats_learning_trig/img/Stim/FN_001_g.png"",""time"":3404.5},{""stimulus"":""blank"",""time"":3708.199999999255},{""stimulus"":""https://ziweizhang0304.github.io/Stats_learning_trig/img/Stim/FN_003_g.png"",""time"":3740.9000000003725},{""stimulus"":""blank"",""time"":4041.0999999996275},{""stimulus"":""https://ziweizhang0304.github.io/Stats_learning_trig/img/Stim/FN_023_g.png"",""time"":4084.9000000003725},{""stimulus"":""blank"",""time"":4390.199999999255}]","[{""key_press"":32,""rt"":2069.4000000003725,""stimulus"":""https://ziweizhang0304.github.io/Stats_learning_trig/img/Stim/FN_012_g.png""}]","364.90000000037253","https://ziweizhang0304.github.io/Stats_learning_trig/img/Stim/FN_018_g.png","post_TD","5","1704.5","2069.4000000003725","slow","5","2","5d215a1bbf7f840019701939","","","","","",""
"","image-keyboard-response","23","121310","0.0-5.0-5.0-0.0","1094.5999999996275","","","https://ziweizhang0304.github.io/Stats_learning_trig/img/Stim/FN_011_g.png","13","","","","","","","","","","","","","","","","","",""
"","animation","24","125732","0.0-5.0-5.0-1.0","","","","","","[{""stimulus"":""https://ziweizhang0304.github.io/Stats_learning_trig/img/Stim/FN_007_g.png"",""time"":342.7000000011176},{""stimulus"":""blank"",""time"":645.4000000003725},{""stimulus"":""https://ziweizhang0304.github.io/Stats_learning_trig/img/Stim/FN_001_g.png"",""time"":680.7000000011176},{""stimulus"":""blank"",""time"":983.9000000003725},{""stimulus"":""https://ziweizhang0304.github.io/Stats_learning_trig/img/Stim/FN_009_g.png"",""time"":1021.0999999996275},{""stimulus"":""blank"",""time"":1321.800000000745},{""stimulus"":""https://ziweizhang0304.github.io/Stats_learning_trig/img/Stim/FN_014_g.png"",""time"":1365.800000000745},{""stimulus"":""blank"",""time"":1666.300000000745},{""stimulus"":""https://ziweizhang0304.github.io/Stats_learning_trig/img/Stim/FN_026_g.png"",""time"":1706},{""stimulus"":""blank"",""time"":2011.300000000745},{""stimulus"":""https://ziweizhang0304.github.io/Stats_learning_trig/img/Stim/FN_011_g.png"",""time"":2043.300000000745},{""stimulus"":""blank"",""time"":2346.300000000745},{""stimulus"":""https://ziweizhang0304.github.io/Stats_learning_trig/img/Stim/FN_022_g.png"",""time"":2381},{""stimulus"":""blank"",""time"":2683.300000000745},{""stimulus"":""https://ziweizhang0304.github.io/Stats_learning_trig/img/Stim/FN_015_g.png"",""time"":2721},{""stimulus"":""blank"",""time"":3021.7000000011176},{""stimulus"":""https://ziweizhang0304.github.io/Stats_learning_trig/img/Stim/FN_019_g.png"",""time"":3065.9000000003725},{""stimulus"":""blank"",""time"":3369.800000000745},{""stimulus"":""https://ziweizhang0304.github.io/Stats_learning_trig/img/Stim/FN_021_g.png"",""time"":3402.5999999996275},{""stimulus"":""blank"",""time"":3707.9000000003725},{""stimulus"":""https://ziweizhang0304.github.io/Stats_learning_trig/img/Stim/FN_003_g.png"",""time"":3742.4000000003725},{""stimulus"":""blank"",""time"":4045},{""stimulus"":""https://ziweizhang0304.github.io/Stats_learning_trig/img/Stim/FN_023_g.png"",""time"":4084.7000000011176},{""stimulus"":""blank"",""time"":4388.9000000003725}]","[{""key_press"":32,""rt"":2415,""stimulus"":""https://ziweizhang0304.github.io/Stats_learning_trig/img/Stim/FN_022_g.png""}]","371.69999999925494","https://ziweizhang0304.github.io/Stats_learning_trig/img/Stim/FN_011_g.png","post_TD","6","2043.300000000745","2415","fast","6","1","5d215a1bbf7f840019701939","","","","","",""
"","image-keyboard-response","25","126994","0.0-5.0-6.0-0.0","1258.5","","","https://ziweizhang0304.github.io/Stats_learning_trig/img/Stim/FN_015_g.png","13","","","","","","","","","","","","","","","","","",""
"","animation","26","131420","0.0-5.0-6.0-1.0","","","","","","[{""stimulus"":""https://ziweizhang0304.github.io/Stats_learning_trig/img/Stim/FN_001_g.png"",""time"":342},{""stimulus"":""blank"",""time"":643.8000000007451},{""stimulus"":""https://ziweizhang0304.github.io/Stats_learning_trig/img/Stim/FN_003_g.png"",""time"":684.9000000003725},{""stimulus"":""blank"",""time"":985.9000000003725},{""stimulus"":""https://ziweizhang0304.github.io/Stats_learning_trig/img/Stim/FN_019_g.png"",""time"":1025.300000000745},{""stimulus"":""blank"",""time"":1326.800000000745},{""stimulus"":""https://ziweizhang0304.github.io/Stats_learning_trig/img/Stim/FN_014_g.png"",""time"":1362.9000000003725},{""stimulus"":""blank"",""time"":1666.6000000014901},{""stimulus"":""https://ziweizhang0304.github.io/Stats_learning_trig/img/Stim/FN_011_g.png"",""time"":1705.6000000014901},{""stimulus"":""blank"",""time"":2010.800000000745},{""stimulus"":""https://ziweizhang0304.github.io/Stats_learning_trig/img/Stim/FN_022_g.png"",""time"":2043},{""stimulus"":""blank"",""time"":2343.300000000745},{""stimulus"":""https://ziweizhang0304.github.io/Stats_learning_trig/img/Stim/FN_015_g.png"",""time"":2381.2000000011176},{""stimulus"":""blank"",""time"":2686.300000000745},{""stimulus"":""https://ziweizhang0304.github.io/Stats_learning_trig/img/Stim/FN_007_g.png"",""time"":2723.2000000011176},{""stimulus"":""blank"",""time"":3027.10000000149},{""stimulus"":""https://ziweizhang0304.github.io/Stats_learning_trig/img/Stim/FN_021_g.png"",""time"":3063.10000000149},{""stimulus"":""blank"",""time"":3366.7000000011176},{""stimulus"":""https://ziweizhang0304.github.io/Stats_learning_trig/img/Stim/FN_026_g.png"",""time"":3405.5},{""stimulus"":""blank"",""time"":3710.7000000011176},{""stimulus"":""https://ziweizhang0304.github.io/Stats_learning_trig/img/Stim/FN_009_g.png"",""time"":3743.10000000149},{""stimulus"":""blank"",""time"":4044.300000000745},{""stimulus"":""https://ziweizhang0304.github.io/Stats_learning_trig/img/Stim/FN_023_g.png"",""time"":4084.9000000003725},{""stimulus"":""blank"",""time"":4386.300000000745}]","[{""key_press"":32,""rt"":2725.7999999988824,""stimulus"":""https://ziweizhang0304.github.io/Stats_learning_trig/img/Stim/FN_007_g.png""}]","344.5999999977648","https://ziweizhang0304.github.io/Stats_learning_trig/img/Stim/FN_015_g.png","post_TD","7","2381.2000000011176","2725.7999999988824","fast","7","3","5d215a1bbf7f840019701939","","","","","",""
"","image-keyboard-response","27","132447","0.0-5.0-7.0-0.0","1023.6999999992549","","","https://ziweizhang0304.github.io/Stats_learning_trig/img/Stim/FN_005_g.png","13","","","","","","","","","","","","","","","","","",""
"","animation","28","136868","0.0-5.0-7.0-1.0","","","","","","[{""stimulus"":""https://ziweizhang0304.github.io/Stats_learning_trig/img/Stim/FN_007_g.png"",""time"":343.09999999962747},{""stimulus"":""blank"",""time"":645.4000000003725},{""stimulus"":""https://ziweizhang0304.github.io/Stats_learning_trig/img/Stim/FN_009_g.png"",""time"":681.5999999996275},{""stimulus"":""blank"",""time"":983.0999999996275},{""stimulus"":""https://ziweizhang0304.github.io/Stats_learning_trig/img/Stim/FN_014_g.png"",""time"":1026.0999999996275},{""stimulus"":""blank"",""time"":1331.5},{""stimulus"":""https://ziweizhang0304.github.io/Stats_learning_trig/img/Stim/FN_005_g.png"",""time"":1365},{""stimulus"":""blank"",""time"":1670.2999999988824},{""stimulus"":""https://ziweizhang0304.github.io/Stats_learning_trig/img/Stim/FN_018_g.png"",""time"":1701.5999999996275},{""stimulus"":""blank"",""time"":2003.2999999988824},{""stimulus"":""https://ziweizhang0304.github.io/Stats_learning_trig/img/Stim/FN_012_g.png"",""time"":2043.9000000003725},{""stimulus"":""blank"",""time"":2346.7999999988824},{""stimulus"":""https://ziweizhang0304.github.io/Stats_learning_trig/img/Stim/FN_019_g.png"",""time"":2381.5999999996275},{""stimulus"":""blank"",""time"":2683},{""stimulus"":""https://ziweizhang0304.github.io/Stats_learning_trig/img/Stim/FN_021_g.png"",""time"":2726.0999999996275},{""stimulus"":""blank"",""time"":3030.0999999996275},{""stimulus"":""https://ziweizhang0304.github.io/Stats_learning_trig/img/Stim/FN_026_g.png"",""time"":3061.7999999988824},{""stimulus"":""blank"",""time"":3367.199999999255},{""stimulus"":""https://ziweizhang0304.github.io/Stats_learning_trig/img/Stim/FN_001_g.png"",""time"":3402.5},{""stimulus"":""blank"",""time"":3704.2999999988824},{""stimulus"":""https://ziweizhang0304.github.io/Stats_learning_trig/img/Stim/FN_003_g.png"",""time"":3744.0999999996275},{""stimulus"":""blank"",""time"":4047.199999999255},{""stimulus"":""https://ziweizhang0304.github.io/Stats_learning_trig/img/Stim/FN_023_g.png"",""time"":4081.0999999996275},{""stimulus"":""blank"",""time"":4383.0999999996275}]","[{""key_press"":32,""rt"":1779.9000000003725,""stimulus"":""https://ziweizhang0304.github.io/Stats_learning_trig/img/Stim/FN_018_g.png""}]","414.90000000037253","https://ziweizhang0304.github.io/Stats_learning_trig/img/Stim/FN_005_g.png","post_TD","8","1365","1779.9000000003725","slow","4","1","5d215a1bbf7f840019701939","","","","","",""
"","image-keyboard-response","29","137643","0.0-5.0-8.0-0.0","772.3000000007451","","","https://ziweizhang0304.github.io/Stats_learning_trig/img/Stim/FN_011_g.png","13","","","","","","","","","","","","","","","","","",""
"","animation","30","142064","0.0-5.0-8.0-1.0","","","","","","[{""stimulus"":""https://ziweizhang0304.github.io/Stats_learning_trig/img/Stim/FN_001_g.png"",""time"":342.7999999988824},{""stimulus"":""blank"",""time"":644.5},{""stimulus"":""https://ziweizhang0304.github.io/Stats_learning_trig/img/Stim/FN_003_g.png"",""time"":682},{""stimulus"":""blank"",""time"":987},{""stimulus"":""https://ziweizhang0304.github.io/Stats_learning_trig/img/Stim/FN_019_g.png"",""time"":1025.9000000003725},{""stimulus"":""blank"",""time"":1329.199999999255},{""stimulus"":""https://ziweizhang0304.github.io/Stats_learning_trig/img/Stim/FN_014_g.png"",""time"":1364},{""stimulus"":""blank"",""time"":1669.2999999988824},{""stimulus"":""https://ziweizhang0304.github.io/Stats_learning_trig/img/Stim/FN_011_g.png"",""time"":1701.2999999988824},{""stimulus"":""blank"",""time"":2001.5999999996275},{""stimulus"":""https://ziweizhang0304.github.io/Stats_learning_trig/img/Stim/FN_022_g.png"",""time"":2042.199999999255},{""stimulus"":""blank"",""time"":2344.5},{""stimulus"":""https://ziweizhang0304.github.io/Stats_learning_trig/img/Stim/FN_015_g.png"",""time"":2382.2999999988824},{""stimulus"":""blank"",""time"":2683.9000000003725},{""stimulus"":""https://ziweizhang0304.github.io/Stats_learning_trig/img/Stim/FN_007_g.png"",""time"":2725.9000000003725},{""stimulus"":""blank"",""time"":3028.199999999255},{""stimulus"":""https://ziweizhang0304.github.io/Stats_learning_trig/img/Stim/FN_021_g.png"",""time"":3064},{""stimulus"":""blank"",""time"":3369.4000000003725},{""stimulus"":""https://ziweizhang0304.github.io/Stats_learning_trig/img/Stim/FN_026_g.png"",""time"":3401.5},{""stimulus"":""blank"",""time"":3702},{""stimulus"":""https://ziweizhang0304.github.io/Stats_learning_trig/img/Stim/FN_009_g.png"",""time"":3743},{""stimulus"":""blank"",""time"":4044.7999999988824},{""stimulus"":""https://ziweizhang0304.github.io/Stats_learning_trig/img/Stim/FN_023_g.png"",""time"":4082.199999999255},{""stimulus"":""blank"",""time"":4383.199999999255}]","[{""key_press"":32,""rt"":2093.7000000011176,""stimulus"":""https://ziweizhang0304.github.io/Stats_learning_trig/img/Stim/FN_022_g.png""}]","392.4000000022352","https://ziweizhang0304.github.io/Stats_learning_trig/img/Stim/FN_011_g.png","post_TD","9","1701.2999999988824","2093.7000000011176","fast","5","1","5d215a1bbf7f840019701939","","","","","",""
"","image-keyboard-response","31","143094","0.0-5.0-9.0-0.0","1027.2999999988824","","","https://ziweizhang0304.github.io/Stats_learning_trig/img/Stim/FN_018_g.png","13","","","","","","","","","","","","","","","","","",""
"","animation","32","147521","0.0-5.0-9.0-1.0","","","","","","[{""stimulus"":""https://ziweizhang0304.github.io/Stats_learning_trig/img/Stim/FN_003_g.png"",""time"":342.19999999925494},{""stimulus"":""blank"",""time"":644.1999999992549},{""stimulus"":""https://ziweizhang0304.github.io/Stats_learning_trig/img/Stim/FN_009_g.png"",""time"":685},{""stimulus"":""blank"",""time"":985.5999999996275},{""stimulus"":""https://ziweizhang0304.github.io/Stats_learning_trig/img/Stim/FN_023_g.png"",""time"":1025.8999999985099},{""stimulus"":""blank"",""time"":1331.2999999988824},{""stimulus"":""https://ziweizhang0304.github.io/Stats_learning_trig/img/Stim/FN_021_g.png"",""time"":1363.699999999255},{""stimulus"":""blank"",""time"":1668.2999999988824},{""stimulus"":""https://ziweizhang0304.github.io/Stats_learning_trig/img/Stim/FN_001_g.png"",""time"":1704},{""stimulus"":""blank"",""time"":2009},{""stimulus"":""https://ziweizhang0304.github.io/Stats_learning_trig/img/Stim/FN_005_g.png"",""time"":2042.699999999255},{""stimulus"":""blank"",""time"":2344.89999999851},{""stimulus"":""https://ziweizhang0304.github.io/Stats_learning_trig/img/Stim/FN_018_g.png"",""time"":2385},{""stimulus"":""blank"",""time"":2685.5999999996275},{""stimulus"":""https://ziweizhang0304.github.io/Stats_learning_trig/img/Stim/FN_012_g.png"",""time"":2725.7999999988824},{""stimulus"":""blank"",""time"":3031.199999999255},{""stimulus"":""https://ziweizhang0304.github.io/Stats_learning_trig/img/Stim/FN_019_g.png"",""time"":3063.5999999996275},{""stimulus"":""blank"",""time"":3367.5999999996275},{""stimulus"":""https://ziweizhang0304.github.io/Stats_learning_trig/img/Stim/FN_007_g.png"",""time"":3403.89999999851},{""stimulus"":""blank"",""time"":3709.0999999996275},{""stimulus"":""https://ziweizhang0304.github.io/Stats_learning_trig/img/Stim/FN_014_g.png"",""time"":3742.199999999255},{""stimulus"":""blank"",""time"":4044.199999999255},{""stimulus"":""https://ziweizhang0304.github.io/Stats_learning_trig/img/Stim/FN_026_g.png"",""time"":4084.89999999851},{""stimulus"":""blank"",""time"":4385.5999999996275}]","[{""key_press"":32,""rt"":2783.9000000003725,""stimulus"":""https://ziweizhang0304.github.io/Stats_learning_trig/img/Stim/FN_012_g.png""}]","398.90000000037253","https://ziweizhang0304.github.io/Stats_learning_trig/img/Stim/FN_018_g.png","post_TD","10","2385","2783.9000000003725","slow","7","2","5d215a1bbf7f840019701939","","","","","",""
"","image-keyboard-response","33","148307","0.0-5.0-10.0-0.0","783.3000000007451","","","https://ziweizhang0304.github.io/Stats_learning_trig/img/Stim/FN_015_g.png","13","","","","","","","","","","","","","","","","","",""
"","animation","34","152728","0.0-5.0-10.0-1.0","","","","","","[{""stimulus"":""https://ziweizhang0304.github.io/Stats_learning_trig/img/Stim/FN_014_g.png"",""time"":341.69999999925494},{""stimulus"":""blank"",""time"":643.1999999992549},{""stimulus"":""https://ziweizhang0304.github.io/Stats_learning_trig/img/Stim/FN_026_g.png"",""time"":683},{""stimulus"":""blank"",""time"":985.6999999992549},{""stimulus"":""https://ziweizhang0304.github.io/Stats_learning_trig/img/Stim/FN_003_g.png"",""time"":1021.1999999992549},{""stimulus"":""blank"",""time"":1321.699999999255},{""stimulus"":""https://ziweizhang0304.github.io/Stats_learning_trig/img/Stim/FN_019_g.png"",""time"":1365.9000000003725},{""stimulus"":""blank"",""time"":1671.300000000745},{""stimulus"":""https://ziweizhang0304.github.io/Stats_learning_trig/img/Stim/FN_001_g.png"",""time"":1703},{""stimulus"":""blank"",""time"":2008.300000000745},{""stimulus"":""https://ziweizhang0304.github.io/Stats_learning_trig/img/Stim/FN_009_g.png"",""time"":2042.300000000745},{""stimulus"":""blank"",""time"":2344.5},{""stimulus"":""https://ziweizhang0304.github.io/Stats_learning_trig/img/Stim/FN_011_g.png"",""time"":2383.699999999255},{""stimulus"":""blank"",""time"":2686.699999999255},{""stimulus"":""https://ziweizhang0304.github.io/Stats_learning_trig/img/Stim/FN_022_g.png"",""time"":2722.699999999255},{""stimulus"":""blank"",""time"":3023.5},{""stimulus"":""https://ziweizhang0304.github.io/Stats_learning_trig/img/Stim/FN_015_g.png"",""time"":3066},{""stimulus"":""blank"",""time"":3371.300000000745},{""stimulus"":""https://ziweizhang0304.github.io/Stats_learning_trig/img/Stim/FN_007_g.png"",""time"":3401.9000000003725},{""stimulus"":""blank"",""time"":3707.199999999255},{""stimulus"":""https://ziweizhang0304.github.io/Stats_learning_trig/img/Stim/FN_021_g.png"",""time"":3742.4000000003725},{""stimulus"":""blank"",""time"":4044.0999999996275},{""stimulus"":""https://ziweizhang0304.github.io/Stats_learning_trig/img/Stim/FN_023_g.png"",""time"":4083.0999999996275},{""stimulus"":""blank"",""time"":4386}]","[{""key_press"":32,""rt"":3409.7000000011176,""stimulus"":""https://ziweizhang0304.github.io/Stats_learning_trig/img/Stim/FN_007_g.png""}]","343.7000000011176","https://ziweizhang0304.github.io/Stats_learning_trig/img/Stim/FN_015_g.png","post_TD","11","3066","3409.7000000011176","fast","9","3","5d215a1bbf7f840019701939","","","","","",""
"","image-keyboard-response","35","153706","0.0-5.0-11.0-0.0","975.5","","","https://ziweizhang0304.github.io/Stats_learning_trig/img/Stim/FN_012_g.png","13","","","","","","","","","","","","","","","","","",""
"","animation","36","158128","0.0-5.0-11.0-1.0","","","","","","[{""stimulus"":""https://ziweizhang0304.github.io/Stats_learning_trig/img/Stim/FN_001_g.png"",""time"":341.7999999988824},{""stimulus"":""blank"",""time"":643.2999999988824},{""stimulus"":""https://ziweizhang0304.github.io/Stats_learning_trig/img/Stim/FN_014_g.png"",""time"":683.8999999985099},{""stimulus"":""blank"",""time"":986.7999999988824},{""stimulus"":""https://ziweizhang0304.github.io/Stats_learning_trig/img/Stim/FN_009_g.png"",""time"":1020.7999999988824},{""stimulus"":""blank"",""time"":1323.699999999255},{""stimulus"":""https://ziweizhang0304.github.io/Stats_learning_trig/img/Stim/FN_023_g.png"",""time"":1365.8999999985099},{""stimulus"":""blank"",""time"":1671.2999999988824},{""stimulus"":""https://ziweizhang0304.github.io/Stats_learning_trig/img/Stim/FN_007_g.png"",""time"":1702.3999999985099},{""stimulus"":""blank"",""time"":2007.699999999255},{""stimulus"":""https://ziweizhang0304.github.io/Stats_learning_trig/img/Stim/FN_021_g.png"",""time"":2042.199999999255},{""stimulus"":""blank"",""time"":2343},{""stimulus"":""https://ziweizhang0304.github.io/Stats_learning_trig/img/Stim/FN_005_g.png"",""time"":2383.5},{""stimulus"":""blank"",""time"":2687.39999999851},{""stimulus"":""https://ziweizhang0304.github.io/Stats_learning_trig/img/Stim/FN_018_g.png"",""time"":2721},{""stimulus"":""blank"",""time"":3023.7999999988824},{""stimulus"":""https://ziweizhang0304.github.io/Stats_learning_trig/img/Stim/FN_012_g.png"",""time"":3065.89999999851},{""stimulus"":""blank"",""time"":3371.2999999988824},{""stimulus"":""https://ziweizhang0304.github.io/Stats_learning_trig/img/Stim/FN_019_g.png"",""time"":3403.89999999851},{""stimulus"":""blank"",""time"":3709.199999999255},{""stimulus"":""https://ziweizhang0304.github.io/Stats_learning_trig/img/Stim/FN_026_g.png"",""time"":3741.7999999988824},{""stimulus"":""blank"",""time"":4043.199999999255},{""stimulus"":""https://ziweizhang0304.github.io/Stats_learning_trig/img/Stim/FN_003_g.png"",""time"":4082.89999999851},{""stimulus"":""blank"",""time"":4385.5999999996275}]","[{""key_press"":32,""rt"":3477.4000000003725,""stimulus"":""https://ziweizhang0304.github.io/Stats_learning_trig/img/Stim/FN_019_g.png""}]","411.50000000186265","https://ziweizhang0304.github.io/Stats_learning_trig/img/Stim/FN_012_g.png","post_TD","12","3065.89999999851","3477.4000000003725","slow","9","3","5d215a1bbf7f840019701939","","","","","",""
"","image-keyboard-response","37","158816","0.0-5.0-12.0-0.0","685.0999999996275","","","https://ziweizhang0304.github.io/Stats_learning_trig/img/Stim/FN_022_g.png","13","","","","","","","","","","","","","","","","","",""
"","animation","38","163240","0.0-5.0-12.0-1.0","","","","","","[{""stimulus"":""https://ziweizhang0304.github.io/Stats_learning_trig/img/Stim/FN_019_g.png"",""time"":343.69999999925494},{""stimulus"":""blank"",""time"":648},{""stimulus"":""https://ziweizhang0304.github.io/Stats_learning_trig/img/Stim/FN_023_g.png"",""time"":685.8000000007451},{""stimulus"":""blank"",""time"":991.1999999992549},{""stimulus"":""https://ziweizhang0304.github.io/Stats_learning_trig/img/Stim/FN_009_g.png"",""time"":1023.3000000007451},{""stimulus"":""blank"",""time"":1326},{""stimulus"":""https://ziweizhang0304.github.io/Stats_learning_trig/img/Stim/FN_011_g.png"",""time"":1360.9000000003725},{""stimulus"":""blank"",""time"":1664},{""stimulus"":""https://ziweizhang0304.github.io/Stats_learning_trig/img/Stim/FN_022_g.png"",""time"":1705.9000000003725},{""stimulus"":""blank"",""time"":2011.300000000745},{""stimulus"":""https://ziweizhang0304.github.io/Stats_learning_trig/img/Stim/FN_015_g.png"",""time"":2043.199999999255},{""stimulus"":""blank"",""time"":2347.199999999255},{""stimulus"":""https://ziweizhang0304.github.io/Stats_learning_trig/img/Stim/FN_007_g.png"",""time"":2385.699999999255},{""stimulus"":""blank"",""time"":2691},{""stimulus"":""https://ziweizhang0304.github.io/Stats_learning_trig/img/Stim/FN_014_g.png"",""time"":2723.199999999255},{""stimulus"":""blank"",""time"":3026.300000000745},{""stimulus"":""https://ziweizhang0304.github.io/Stats_learning_trig/img/Stim/FN_021_g.png"",""time"":3061.0999999996275},{""stimulus"":""blank"",""time"":3361.5},{""stimulus"":""https://ziweizhang0304.github.io/Stats_learning_trig/img/Stim/FN_026_g.png"",""time"":3405.9000000003725},{""stimulus"":""blank"",""time"":3711.199999999255},{""stimulus"":""https://ziweizhang0304.github.io/Stats_learning_trig/img/Stim/FN_001_g.png"",""time"":3742.9000000003725},{""stimulus"":""blank"",""time"":4047.0999999996275},{""stimulus"":""https://ziweizhang0304.github.io/Stats_learning_trig/img/Stim/FN_003_g.png"",""time"":4085.800000000745},{""stimulus"":""blank"",""time"":4388.300000000745}]","[{""key_press"":32,""rt"":2045.9000000003725,""stimulus"":""https://ziweizhang0304.github.io/Stats_learning_trig/img/Stim/FN_015_g.png""}]","340","https://ziweizhang0304.github.io/Stats_learning_trig/img/Stim/FN_022_g.png","post_TD","13","1705.9000000003725","2045.9000000003725","fast","5","2","5d215a1bbf7f840019701939","","","","","",""
"","image-keyboard-response","39","163920","0.0-5.0-13.0-0.0","676.8000000007451","","","https://ziweizhang0304.github.io/Stats_learning_trig/img/Stim/FN_015_g.png","13","","","","","","","","","","","","","","","","","",""
"","animation","40","168344","0.0-5.0-13.0-1.0","","","","","","[{""stimulus"":""https://ziweizhang0304.github.io/Stats_learning_trig/img/Stim/FN_019_g.png"",""time"":344.80000000074506},{""stimulus"":""blank"",""time"":650.0999999996275},{""stimulus"":""https://ziweizhang0304.github.io/Stats_learning_trig/img/Stim/FN_023_g.png"",""time"":683.5},{""stimulus"":""blank"",""time"":986.9000000003725},{""stimulus"":""https://ziweizhang0304.github.io/Stats_learning_trig/img/Stim/FN_009_g.png"",""time"":1023.3000000007451},{""stimulus"":""blank"",""time"":1323.800000000745},{""stimulus"":""https://ziweizhang0304.github.io/Stats_learning_trig/img/Stim/FN_011_g.png"",""time"":1361.9000000003725},{""stimulus"":""blank"",""time"":1662.5999999996275},{""stimulus"":""https://ziweizhang0304.github.io/Stats_learning_trig/img/Stim/FN_022_g.png"",""time"":1701},{""stimulus"":""blank"",""time"":2006.4000000003725},{""stimulus"":""https://ziweizhang0304.github.io/Stats_learning_trig/img/Stim/FN_015_g.png"",""time"":2041.300000000745},{""stimulus"":""blank"",""time"":2345.9000000003725},{""stimulus"":""https://ziweizhang0304.github.io/Stats_learning_trig/img/Stim/FN_007_g.png"",""time"":2385.800000000745},{""stimulus"":""blank"",""time"":2691.199999999255},{""stimulus"":""https://ziweizhang0304.github.io/Stats_learning_trig/img/Stim/FN_014_g.png"",""time"":2723.800000000745},{""stimulus"":""blank"",""time"":3024.300000000745},{""stimulus"":""https://ziweizhang0304.github.io/Stats_learning_trig/img/Stim/FN_021_g.png"",""time"":3061.9000000003725},{""stimulus"":""blank"",""time"":3362.5999999996275},{""stimulus"":""https://ziweizhang0304.github.io/Stats_learning_trig/img/Stim/FN_026_g.png"",""time"":3405.800000000745},{""stimulus"":""blank"",""time"":3708.5999999996275},{""stimulus"":""https://ziweizhang0304.github.io/Stats_learning_trig/img/Stim/FN_001_g.png"",""time"":3744.800000000745},{""stimulus"":""blank"",""time"":4050.199999999255},{""stimulus"":""https://ziweizhang0304.github.io/Stats_learning_trig/img/Stim/FN_003_g.png"",""time"":4085.9000000003725},{""stimulus"":""blank"",""time"":4391.199999999255}]","[{""key_press"":32,""rt"":2417.0999999996275,""stimulus"":""https://ziweizhang0304.github.io/Stats_learning_trig/img/Stim/FN_007_g.png""}]","375.7999999988824","https://ziweizhang0304.github.io/Stats_learning_trig/img/Stim/FN_015_g.png","post_TD","14","2041.300000000745","2417.0999999996275","fast","6","3","5d215a1bbf7f840019701939","","","","","",""
"","image-keyboard-response","41","169072","0.0-5.0-14.0-0.0","725","","","https://ziweizhang0304.github.io/Stats_learning_trig/img/Stim/FN_018_g.png","13","","","","","","","","","","","","","","","","","",""
"","animation","42","173494","0.0-5.0-14.0-1.0","","","","","","[{""stimulus"":""https://ziweizhang0304.github.io/Stats_learning_trig/img/Stim/FN_023_g.png"",""time"":346},{""stimulus"":""blank"",""time"":648.5},{""stimulus"":""https://ziweizhang0304.github.io/Stats_learning_trig/img/Stim/FN_014_g.png"",""time"":683},{""stimulus"":""blank"",""time"":986.0999999996275},{""stimulus"":""https://ziweizhang0304.github.io/Stats_learning_trig/img/Stim/FN_003_g.png"",""time"":1021.5999999996275},{""stimulus"":""blank"",""time"":1326.2999999988824},{""stimulus"":""https://ziweizhang0304.github.io/Stats_learning_trig/img/Stim/FN_021_g.png"",""time"":1361.8999999985099},{""stimulus"":""blank"",""time"":1664},{""stimulus"":""https://ziweizhang0304.github.io/Stats_learning_trig/img/Stim/FN_005_g.png"",""time"":1706},{""stimulus"":""blank"",""time"":2007},{""stimulus"":""https://ziweizhang0304.github.io/Stats_learning_trig/img/Stim/FN_018_g.png"",""time"":2045.199999999255},{""stimulus"":""blank"",""time"":2350.5},{""stimulus"":""https://ziweizhang0304.github.io/Stats_learning_trig/img/Stim/FN_012_g.png"",""time"":2383},{""stimulus"":""blank"",""time"":2685.89999999851},{""stimulus"":""https://ziweizhang0304.github.io/Stats_learning_trig/img/Stim/FN_019_g.png"",""time"":2721.89999999851},{""stimulus"":""blank"",""time"":3025.5999999996275},{""stimulus"":""https://ziweizhang0304.github.io/Stats_learning_trig/img/Stim/FN_007_g.png"",""time"":3061.5},{""stimulus"":""blank"",""time"":3362.5999999996275},{""stimulus"":""https://ziweizhang0304.github.io/Stats_learning_trig/img/Stim/FN_026_g.png"",""time"":3405.89999999851},{""stimulus"":""blank"",""time"":3706.699999999255},{""stimulus"":""https://ziweizhang0304.github.io/Stats_learning_trig/img/Stim/FN_001_g.png"",""time"":3745.0999999996275},{""stimulus"":""blank"",""time"":4050.5},{""stimulus"":""https://ziweizhang0304.github.io/Stats_learning_trig/img/Stim/FN_009_g.png"",""time"":4082.89999999851},{""stimulus"":""blank"",""time"":4386.0999999996275}]","[{""key_press"":32,""rt"":2439.9000000003725,""stimulus"":""https://ziweizhang0304.github.io/Stats_learning_trig/img/Stim/FN_012_g.png""}]","394.7000000011176","https://ziweizhang0304.github.io/Stats_learning_trig/img/Stim/FN_018_g.png","post_TD","15","2045.199999999255","2439.9000000003725","slow","6","2","5d215a1bbf7f840019701939","","","","","",""
"","image-keyboard-response","43","174102","0.0-5.0-15.0-0.0","605","","","https://ziweizhang0304.github.io/Stats_learning_trig/img/Stim/FN_022_g.png","13","","","","","","","","","","","","","","","","","",""
"","animation","44","178524","0.0-5.0-15.0-1.0","","","","","","[{""stimulus"":""https://ziweizhang0304.github.io/Stats_learning_trig/img/Stim/FN_007_g.png"",""time"":342.5},{""stimulus"":""blank"",""time"":642.9000000003725},{""stimulus"":""https://ziweizhang0304.github.io/Stats_learning_trig/img/Stim/FN_001_g.png"",""time"":682.3000000007451},{""stimulus"":""blank"",""time"":983.5},{""stimulus"":""https://ziweizhang0304.github.io/Stats_learning_trig/img/Stim/FN_009_g.png"",""time"":1026},{""stimulus"":""blank"",""time"":1328.4000000003725},{""stimulus"":""https://ziweizhang0304.github.io/Stats_learning_trig/img/Stim/FN_014_g.png"",""time"":1365.5999999996275},{""stimulus"":""blank"",""time"":1670.800000000745},{""stimulus"":""https://ziweizhang0304.github.io/Stats_learning_trig/img/Stim/FN_026_g.png"",""time"":1706},{""stimulus"":""blank"",""time"":2011.300000000745},{""stimulus"":""https://ziweizhang0304.github.io/Stats_learning_trig/img/Stim/FN_011_g.png"",""time"":2041.800000000745},{""stimulus"":""blank"",""time"":2342},{""stimulus"":""https://ziweizhang0304.github.io/Stats_learning_trig/img/Stim/FN_022_g.png"",""time"":2382.300000000745},{""stimulus"":""blank"",""time"":2683.5},{""stimulus"":""https://ziweizhang0304.github.io/Stats_learning_trig/img/Stim/FN_015_g.png"",""time"":2725.9000000003725},{""stimulus"":""blank"",""time"":3026.199999999255},{""stimulus"":""https://ziweizhang0304.github.io/Stats_learning_trig/img/Stim/FN_019_g.png"",""time"":3061.0999999996275},{""stimulus"":""blank"",""time"":3366.4000000003725},{""stimulus"":""https://ziweizhang0304.github.io/Stats_learning_trig/img/Stim/FN_021_g.png"",""time"":3405.800000000745},{""stimulus"":""blank"",""time"":3711.300000000745},{""stimulus"":""https://ziweizhang0304.github.io/Stats_learning_trig/img/Stim/FN_003_g.png"",""time"":3741.9000000003725},{""stimulus"":""blank"",""time"":4042.0999999996275},{""stimulus"":""https://ziweizhang0304.github.io/Stats_learning_trig/img/Stim/FN_023_g.png"",""time"":4081.800000000745},{""stimulus"":""blank"",""time"":4383.0999999996275}]","[{""key_press"":32,""rt"":2758.300000000745,""stimulus"":""https://ziweizhang0304.github.io/Stats_learning_trig/img/Stim/FN_015_g.png""}]","376","https://ziweizhang0304.github.io/Stats_learning_trig/img/Stim/FN_022_g.png","post_TD","16","2382.300000000745","2758.300000000745","fast","7","2","5d215a1bbf7f840019701939","","","","","",""
"","image-keyboard-response","45","179108","0.0-5.0-16.0-0.0","581.5","","","https://ziweizhang0304.github.io/Stats_learning_trig/img/Stim/FN_011_g.png","13","","","","","","","","","","","","","","","","","",""
"","animation","46","183530","0.0-5.0-16.0-1.0","","","","","","[{""stimulus"":""https://ziweizhang0304.github.io/Stats_learning_trig/img/Stim/FN_014_g.png"",""time"":342.2999999988824},{""stimulus"":""blank"",""time"":644.2999999988824},{""stimulus"":""https://ziweizhang0304.github.io/Stats_learning_trig/img/Stim/FN_026_g.png"",""time"":683.2999999988824},{""stimulus"":""blank"",""time"":986.5},{""stimulus"":""https://ziweizhang0304.github.io/Stats_learning_trig/img/Stim/FN_003_g.png"",""time"":1021.1999999992549},{""stimulus"":""blank"",""time"":1322.199999999255},{""stimulus"":""https://ziweizhang0304.github.io/Stats_learning_trig/img/Stim/FN_019_g.png"",""time"":1365.8999999985099},{""stimulus"":""blank"",""time"":1669.5},{""stimulus"":""https://ziweizhang0304.github.io/Stats_learning_trig/img/Stim/FN_001_g.png"",""time"":1702.3999999985099},{""stimulus"":""blank"",""time"":2002.8999999985099},{""stimulus"":""https://ziweizhang0304.github.io/Stats_learning_trig/img/Stim/FN_009_g.png"",""time"":2042},{""stimulus"":""blank"",""time"":2344},{""stimulus"":""https://ziweizhang0304.github.io/Stats_learning_trig/img/Stim/FN_011_g.png"",""time"":2383.5999999996275},{""stimulus"":""blank"",""time"":2684.7999999988824},{""stimulus"":""https://ziweizhang0304.github.io/Stats_learning_trig/img/Stim/FN_022_g.png"",""time"":2720.699999999255},{""stimulus"":""blank"",""time"":3020.89999999851},{""stimulus"":""https://ziweizhang0304.github.io/Stats_learning_trig/img/Stim/FN_015_g.png"",""time"":3065.89999999851},{""stimulus"":""blank"",""time"":3371.199999999255},{""stimulus"":""https://ziweizhang0304.github.io/Stats_learning_trig/img/Stim/FN_007_g.png"",""time"":3402.5},{""stimulus"":""blank"",""time"":3707.7999999988824},{""stimulus"":""https://ziweizhang0304.github.io/Stats_learning_trig/img/Stim/FN_021_g.png"",""time"":3742},{""stimulus"":""blank"",""time"":4043.89999999851},{""stimulus"":""https://ziweizhang0304.github.io/Stats_learning_trig/img/Stim/FN_023_g.png"",""time"":4083.5999999996275},{""stimulus"":""blank"",""time"":4387}]","[{""key_press"":32,""rt"":2779.5999999996275,""stimulus"":""https://ziweizhang0304.github.io/Stats_learning_trig/img/Stim/FN_022_g.png""}]","396","https://ziweizhang0304.github.io/Stats_learning_trig/img/Stim/FN_011_g.png","post_TD","17","2383.5999999996275","2779.5999999996275","fast","7","1","5d215a1bbf7f840019701939","","","","","",""
"","image-keyboard-response","47","184331","0.0-5.0-17.0-0.0","798.3000000007451","","","https://ziweizhang0304.github.io/Stats_learning_trig/img/Stim/FN_012_g.png","13","","","","","","","","","","","","","","","","","",""
"","animation","48","188754","0.0-5.0-17.0-1.0","","","","","","[{""stimulus"":""https://ziweizhang0304.github.io/Stats_learning_trig/img/Stim/FN_003_g.png"",""time"":346.09999999962747},{""stimulus"":""blank"",""time"":649.8000000007451},{""stimulus"":""https://ziweizhang0304.github.io/Stats_learning_trig/img/Stim/FN_009_g.png"",""time"":682.5},{""stimulus"":""blank"",""time"":983.5},{""stimulus"":""https://ziweizhang0304.github.io/Stats_learning_trig/img/Stim/FN_023_g.png"",""time"":1022.5},{""stimulus"":""blank"",""time"":1322.800000000745},{""stimulus"":""https://ziweizhang0304.github.io/Stats_learning_trig/img/Stim/FN_021_g.png"",""time"":1364.300000000745},{""stimulus"":""blank"",""time"":1668.199999999255},{""stimulus"":""https://ziweizhang0304.github.io/Stats_learning_trig/img/Stim/FN_001_g.png"",""time"":1701.699999999255},{""stimulus"":""blank"",""time"":2002.5},{""stimulus"":""https://ziweizhang0304.github.io/Stats_learning_trig/img/Stim/FN_005_g.png"",""time"":2045.9000000003725},{""stimulus"":""blank"",""time"":2350},{""stimulus"":""https://ziweizhang0304.github.io/Stats_learning_trig/img/Stim/FN_018_g.png"",""time"":2380.800000000745},{""stimulus"":""blank"",""time"":2686.199999999255},{""stimulus"":""https://ziweizhang0304.github.io/Stats_learning_trig/img/Stim/FN_012_g.png"",""time"":2723.199999999255},{""stimulus"":""blank"",""time"":3024.300000000745},{""stimulus"":""https://ziweizhang0304.github.io/Stats_learning_trig/img/Stim/FN_019_g.png"",""time"":3064.300000000745},{""stimulus"":""blank"",""time"":3364.699999999255},{""stimulus"":""https://ziweizhang0304.github.io/Stats_learning_trig/img/Stim/FN_007_g.png"",""time"":3401.699999999255},{""stimulus"":""blank"",""time"":3702.5},{""stimulus"":""https://ziweizhang0304.github.io/Stats_learning_trig/img/Stim/FN_014_g.png"",""time"":3745.800000000745},{""stimulus"":""blank"",""time"":4048.800000000745},{""stimulus"":""https://ziweizhang0304.github.io/Stats_learning_trig/img/Stim/FN_026_g.png"",""time"":4081.0999999996275},{""stimulus"":""blank"",""time"":4383.199999999255}]","[{""key_press"":32,""rt"":3114,""stimulus"":""https://ziweizhang0304.github.io/Stats_learning_trig/img/Stim/FN_019_g.png""}]","390.80000000074506","https://ziweizhang0304.github.io/Stats_learning_trig/img/Stim/FN_012_g.png","post_TD","18","2723.199999999255","3114","slow","8","3","5d215a1bbf7f840019701939","","","","","",""
"","image-keyboard-response","49","189541","0.0-5.0-18.0-0.0","783.9000000003725","","","https://ziweizhang0304.github.io/Stats_learning_trig/img/Stim/FN_022_g.png","13","","","","","","","","","","","","","","","","","",""
"","animation","50","193964","0.0-5.0-18.0-1.0","","","","","","[{""stimulus"":""https://ziweizhang0304.github.io/Stats_learning_trig/img/Stim/FN_001_g.png"",""time"":342.40000000037253},{""stimulus"":""blank"",""time"":643.8000000007451},{""stimulus"":""https://ziweizhang0304.github.io/Stats_learning_trig/img/Stim/FN_003_g.png"",""time"":685.8000000007451},{""stimulus"":""blank"",""time"":989.3000000007451},{""stimulus"":""https://ziweizhang0304.github.io/Stats_learning_trig/img/Stim/FN_019_g.png"",""time"":1022},{""stimulus"":""blank"",""time"":1327.2000000011176},{""stimulus"":""https://ziweizhang0304.github.io/Stats_learning_trig/img/Stim/FN_014_g.png"",""time"":1365.7000000011176},{""stimulus"":""blank"",""time"":1671.1000000014901},{""stimulus"":""https://ziweizhang0304.github.io/Stats_learning_trig/img/Stim/FN_011_g.png"",""time"":1703.5},{""stimulus"":""blank"",""time"":2004.1000000014901},{""stimulus"":""https://ziweizhang0304.github.io/Stats_learning_trig/img/Stim/FN_022_g.png"",""time"":2041},{""stimulus"":""blank"",""time"":2342},{""stimulus"":""https://ziweizhang0304.github.io/Stats_learning_trig/img/Stim/FN_015_g.png"",""time"":2380.800000000745},{""stimulus"":""blank"",""time"":2686.10000000149},{""stimulus"":""https://ziweizhang0304.github.io/Stats_learning_trig/img/Stim/FN_007_g.png"",""time"":2721.800000000745},{""stimulus"":""blank"",""time"":3026.9000000003725},{""stimulus"":""https://ziweizhang0304.github.io/Stats_learning_trig/img/Stim/FN_021_g.png"",""time"":3061.300000000745},{""stimulus"":""blank"",""time"":3364.7000000011176},{""stimulus"":""https://ziweizhang0304.github.io/Stats_learning_trig/img/Stim/FN_026_g.png"",""time"":3403},{""stimulus"":""blank"",""time"":3703.5},{""stimulus"":""https://ziweizhang0304.github.io/Stats_learning_trig/img/Stim/FN_009_g.png"",""time"":3741.5},{""stimulus"":""blank"",""time"":4043},{""stimulus"":""https://ziweizhang0304.github.io/Stats_learning_trig/img/Stim/FN_023_g.png"",""time"":4085.9000000003725},{""stimulus"":""blank"",""time"":4389.300000000745}]","[{""key_press"":32,""rt"":2425.7999999988824,""stimulus"":""https://ziweizhang0304.github.io/Stats_learning_trig/img/Stim/FN_015_g.png""}]","384.7999999988824","https://ziweizhang0304.github.io/Stats_learning_trig/img/Stim/FN_022_g.png","post_TD","19","2041","2425.7999999988824","fast","6","2","5d215a1bbf7f840019701939","","","","","",""
"","image-keyboard-response","51","194666","0.0-5.0-19.0-0.0","699.4000000003725","","","https://ziweizhang0304.github.io/Stats_learning_trig/img/Stim/FN_005_g.png","13","","","","","","","","","","","","","","","","","",""
"","animation","52","199090","0.0-5.0-19.0-1.0","","","","","","[{""stimulus"":""https://ziweizhang0304.github.io/Stats_learning_trig/img/Stim/FN_023_g.png"",""time"":346.09999999962747},{""stimulus"":""blank"",""time"":647.2999999988824},{""stimulus"":""https://ziweizhang0304.github.io/Stats_learning_trig/img/Stim/FN_014_g.png"",""time"":681.4000000003725},{""stimulus"":""blank"",""time"":981.6999999992549},{""stimulus"":""https://ziweizhang0304.github.io/Stats_learning_trig/img/Stim/FN_003_g.png"",""time"":1021.6999999992549},{""stimulus"":""blank"",""time"":1324.7999999988824},{""stimulus"":""https://ziweizhang0304.github.io/Stats_learning_trig/img/Stim/FN_021_g.png"",""time"":1364.9000000003725},{""stimulus"":""blank"",""time"":1665.2999999988824},{""stimulus"":""https://ziweizhang0304.github.io/Stats_learning_trig/img/Stim/FN_005_g.png"",""time"":1705.9000000003725},{""stimulus"":""blank"",""time"":2006.2999999988824},{""stimulus"":""https://ziweizhang0304.github.io/Stats_learning_trig/img/Stim/FN_018_g.png"",""time"":2040.7999999988824},{""stimulus"":""blank"",""time"":2343.5},{""stimulus"":""https://ziweizhang0304.github.io/Stats_learning_trig/img/Stim/FN_012_g.png"",""time"":2381.199999999255},{""stimulus"":""blank"",""time"":2682.199999999255},{""stimulus"":""https://ziweizhang0304.github.io/Stats_learning_trig/img/Stim/FN_019_g.png"",""time"":2723},{""stimulus"":""blank"",""time"":3025.4000000003725},{""stimulus"":""https://ziweizhang0304.github.io/Stats_learning_trig/img/Stim/FN_007_g.png"",""time"":3061.199999999255},{""stimulus"":""blank"",""time"":3364.5},{""stimulus"":""https://ziweizhang0304.github.io/Stats_learning_trig/img/Stim/FN_026_g.png"",""time"":3405.7999999988824},{""stimulus"":""blank"",""time"":3711.199999999255},{""stimulus"":""https://ziweizhang0304.github.io/Stats_learning_trig/img/Stim/FN_001_g.png"",""time"":3743.4000000003725},{""stimulus"":""blank"",""time"":4048.699999999255},{""stimulus"":""https://ziweizhang0304.github.io/Stats_learning_trig/img/Stim/FN_009_g.png"",""time"":4081.199999999255},{""stimulus"":""blank"",""time"":4382.199999999255}]","[{""key_press"":32,""rt"":2137.5999999996275,""stimulus"":""https://ziweizhang0304.github.io/Stats_learning_trig/img/Stim/FN_018_g.png""}]","431.69999999925494","https://ziweizhang0304.github.io/Stats_learning_trig/img/Stim/FN_005_g.png","post_TD","20","1705.9000000003725","2137.5999999996275","slow","5","1","5d215a1bbf7f840019701939","","","","","",""
"","image-keyboard-response","53","199739","0.0-5.0-20.0-0.0","647","","","https://ziweizhang0304.github.io/Stats_learning_trig/img/Stim/FN_005_g.png","13","","","","","","","","","","","","","","","","","",""
"","animation","54","204163","0.0-5.0-20.0-1.0","","","","","","[{""stimulus"":""https://ziweizhang0304.github.io/Stats_learning_trig/img/Stim/FN_001_g.png"",""time"":342.09999999962747},{""stimulus"":""blank"",""time"":642.5999999996275},{""stimulus"":""https://ziweizhang0304.github.io/Stats_learning_trig/img/Stim/FN_014_g.png"",""time"":685.7999999988824},{""stimulus"":""blank"",""time"":991.0999999996275},{""stimulus"":""https://ziweizhang0304.github.io/Stats_learning_trig/img/Stim/FN_009_g.png"",""time"":1023.1999999992549},{""stimulus"":""blank"",""time"":1327.699999999255},{""stimulus"":""https://ziweizhang0304.github.io/Stats_learning_trig/img/Stim/FN_023_g.png"",""time"":1361.5999999996275},{""stimulus"":""blank"",""time"":1664},{""stimulus"":""https://ziweizhang0304.github.io/Stats_learning_trig/img/Stim/FN_007_g.png"",""time"":1703.5},{""stimulus"":""blank"",""time"":2004.9000000003725},{""stimulus"":""https://ziweizhang0304.github.io/Stats_learning_trig/img/Stim/FN_021_g.png"",""time"":2041.2999999988824},{""stimulus"":""blank"",""time"":2341.5},{""stimulus"":""https://ziweizhang0304.github.io/Stats_learning_trig/img/Stim/FN_005_g.png"",""time"":2385.699999999255},{""stimulus"":""blank"",""time"":2691.0999999996275},{""stimulus"":""https://ziweizhang0304.github.io/Stats_learning_trig/img/Stim/FN_018_g.png"",""time"":2723.2999999988824},{""stimulus"":""blank"",""time"":3025.5999999996275},{""stimulus"":""https://ziweizhang0304.github.io/Stats_learning_trig/img/Stim/FN_012_g.png"",""time"":3063.4000000003725},{""stimulus"":""blank"",""time"":3364.199999999255},{""stimulus"":""https://ziweizhang0304.github.io/Stats_learning_trig/img/Stim/FN_019_g.png"",""time"":3403.4000000003725},{""stimulus"":""blank"",""time"":3706.199999999255},{""stimulus"":""https://ziweizhang0304.github.io/Stats_learning_trig/img/Stim/FN_026_g.png"",""time"":3740.7999999988824},{""stimulus"":""blank"",""time"":4041.5},{""stimulus"":""https://ziweizhang0304.github.io/Stats_learning_trig/img/Stim/FN_003_g.png"",""time"":4085.699999999255},{""stimulus"":""blank"",""time"":4391.0999999996275}]","[{""key_press"":32,""rt"":2788.300000000745,""stimulus"":""https://ziweizhang0304.github.io/Stats_learning_trig/img/Stim/FN_018_g.png""}]","402.6000000014901","https://ziweizhang0304.github.io/Stats_learning_trig/img/Stim/FN_005_g.png","post_TD","21","2385.699999999255","2788.300000000745","slow","7","1","5d215a1bbf7f840019701939","","","","","",""
"","image-keyboard-response","55","204841","0.0-5.0-21.0-0.0","675","","","https://ziweizhang0304.github.io/Stats_learning_trig/img/Stim/FN_012_g.png","13","","","","","","","","","","","","","","","","","",""
"","animation","56","209264","0.0-5.0-21.0-1.0","","","","","","[{""stimulus"":""https://ziweizhang0304.github.io/Stats_learning_trig/img/Stim/FN_023_g.png"",""time"":340.80000000074506},{""stimulus"":""blank"",""time"":641.2000000011176},{""stimulus"":""https://ziweizhang0304.github.io/Stats_learning_trig/img/Stim/FN_014_g.png"",""time"":685.7000000011176},{""stimulus"":""blank"",""time"":990.3000000007451},{""stimulus"":""https://ziweizhang0304.github.io/Stats_learning_trig/img/Stim/FN_003_g.png"",""time"":1022.4000000003725},{""stimulus"":""blank"",""time"":1327.5},{""stimulus"":""https://ziweizhang0304.github.io/Stats_learning_trig/img/Stim/FN_021_g.png"",""time"":1365.1000000014901},{""stimulus"":""blank"",""time"":1670.4000000003725},{""stimulus"":""https://ziweizhang0304.github.io/Stats_learning_trig/img/Stim/FN_005_g.png"",""time"":1703.4000000003725},{""stimulus"":""blank"",""time"":2003.6000000014901},{""stimulus"":""https://ziweizhang0304.github.io/Stats_learning_trig/img/Stim/FN_018_g.png"",""time"":2041.300000000745},{""stimulus"":""blank"",""time"":2342},{""stimulus"":""https://ziweizhang0304.github.io/Stats_learning_trig/img/Stim/FN_012_g.png"",""time"":2385.9000000003725},{""stimulus"":""blank"",""time"":2690.300000000745},{""stimulus"":""https://ziweizhang0304.github.io/Stats_learning_trig/img/Stim/FN_019_g.png"",""time"":2723.9000000003725},{""stimulus"":""blank"",""time"":3027.10000000149},{""stimulus"":""https://ziweizhang0304.github.io/Stats_learning_trig/img/Stim/FN_007_g.png"",""time"":3064.5},{""stimulus"":""blank"",""time"":3369.800000000745},{""stimulus"":""https://ziweizhang0304.github.io/Stats_learning_trig/img/Stim/FN_026_g.png"",""time"":3403.4000000003725},{""stimulus"":""blank"",""time"":3703.7000000011176},{""stimulus"":""https://ziweizhang0304.github.io/Stats_learning_trig/img/Stim/FN_001_g.png"",""time"":3740.7000000011176},{""stimulus"":""blank"",""time"":4041.2000000011176},{""stimulus"":""https://ziweizhang0304.github.io/Stats_learning_trig/img/Stim/FN_009_g.png"",""time"":4085.800000000745},{""stimulus"":""blank"",""time"":4388.800000000745}]","[{""key_press"":32,""rt"":2795.89999999851,""stimulus"":""https://ziweizhang0304.github.io/Stats_learning_trig/img/Stim/FN_019_g.png""}]","409.99999999813735","https://ziweizhang0304.github.io/Stats_learning_trig/img/Stim/FN_012_g.png","post_TD","22","2385.9000000003725","2795.89999999851","slow","7","3","5d215a1bbf7f840019701939","","","","","",""
"","image-keyboard-response","57","209992","0.0-5.0-22.0-0.0","725.5999999996275","","","https://ziweizhang0304.github.io/Stats_learning_trig/img/Stim/FN_022_g.png","13","","","","","","","","","","","","","","","","","",""
"","animation","58","214414","0.0-5.0-22.0-1.0","","","","","","[{""stimulus"":""https://ziweizhang0304.github.io/Stats_learning_trig/img/Stim/FN_014_g.png"",""time"":341.2999999988824},{""stimulus"":""blank"",""time"":641.5999999996275},{""stimulus"":""https://ziweizhang0304.github.io/Stats_learning_trig/img/Stim/FN_026_g.png"",""time"":682.1999999992549},{""stimulus"":""blank"",""time"":987.5},{""stimulus"":""https://ziweizhang0304.github.io/Stats_learning_trig/img/Stim/FN_003_g.png"",""time"":1023.2999999988824},{""stimulus"":""blank"",""time"":1328.5999999996275},{""stimulus"":""https://ziweizhang0304.github.io/Stats_learning_trig/img/Stim/FN_019_g.png"",""time"":1362.7999999988824},{""stimulus"":""blank"",""time"":1665.5999999996275},{""stimulus"":""https://ziweizhang0304.github.io/Stats_learning_trig/img/Stim/FN_001_g.png"",""time"":1704.199999999255},{""stimulus"":""blank"",""time"":2007.4000000003725},{""stimulus"":""https://ziweizhang0304.github.io/Stats_learning_trig/img/Stim/FN_009_g.png"",""time"":2040.7999999988824},{""stimulus"":""blank"",""time"":2341.5999999996275},{""stimulus"":""https://ziweizhang0304.github.io/Stats_learning_trig/img/Stim/FN_011_g.png"",""time"":2385.7999999988824},{""stimulus"":""blank"",""time"":2689.0999999996275},{""stimulus"":""https://ziweizhang0304.github.io/Stats_learning_trig/img/Stim/FN_022_g.png"",""time"":2722.7999999988824},{""stimulus"":""blank"",""time"":3028.0999999996275},{""stimulus"":""https://ziweizhang0304.github.io/Stats_learning_trig/img/Stim/FN_015_g.png"",""time"":3061.2999999988824},{""stimulus"":""blank"",""time"":3361.4000000003725},{""stimulus"":""https://ziweizhang0304.github.io/Stats_learning_trig/img/Stim/FN_007_g.png"",""time"":3404.199999999255},{""stimulus"":""blank"",""time"":3708.2999999988824},{""stimulus"":""https://ziweizhang0304.github.io/Stats_learning_trig/img/Stim/FN_021_g.png"",""time"":3741.699999999255},{""stimulus"":""blank"",""time"":4043.2999999988824},{""stimulus"":""https://ziweizhang0304.github.io/Stats_learning_trig/img/Stim/FN_023_g.png"",""time"":4085.7999999988824},{""stimulus"":""blank"",""time"":4389.0999999996275}]","[{""key_press"":32,""rt"":3110.5,""stimulus"":""https://ziweizhang0304.github.io/Stats_learning_trig/img/Stim/FN_015_g.png""}]","387.7000000011176","https://ziweizhang0304.github.io/Stats_learning_trig/img/Stim/FN_022_g.png","post_TD","23","2722.7999999988824","3110.5","fast","8","2","5d215a1bbf7f840019701939","","","","","",""
"","image-keyboard-response","59","215150","0.0-5.0-23.0-0.0","733.4000000003725","","","https://ziweizhang0304.github.io/Stats_learning_trig/img/Stim/FN_011_g.png","13","","","","","","","","","","","","","","","","","",""
"","animation","60","219576","0.0-5.0-23.0-1.0","","","","","","[{""stimulus"":""https://ziweizhang0304.github.io/Stats_learning_trig/img/Stim/FN_019_g.png"",""time"":343.40000000037253},{""stimulus"":""blank"",""time"":646.9000000003725},{""stimulus"":""https://ziweizhang0304.github.io/Stats_learning_trig/img/Stim/FN_023_g.png"",""time"":681.2999999988824},{""stimulus"":""blank"",""time"":981.6999999992549},{""stimulus"":""https://ziweizhang0304.github.io/Stats_learning_trig/img/Stim/FN_009_g.png"",""time"":1024.199999999255},{""stimulus"":""blank"",""time"":1329.4000000003725},{""stimulus"":""https://ziweizhang0304.github.io/Stats_learning_trig/img/Stim/FN_011_g.png"",""time"":1364},{""stimulus"":""blank"",""time"":1667.4000000003725},{""stimulus"":""https://ziweizhang0304.github.io/Stats_learning_trig/img/Stim/FN_022_g.png"",""time"":1702.2999999988824},{""stimulus"":""blank"",""time"":2002.699999999255},{""stimulus"":""https://ziweizhang0304.github.io/Stats_learning_trig/img/Stim/FN_015_g.png"",""time"":2043.7999999988824},{""stimulus"":""blank"",""time"":2347.4000000003725},{""stimulus"":""https://ziweizhang0304.github.io/Stats_learning_trig/img/Stim/FN_007_g.png"",""time"":2381.2999999988824},{""stimulus"":""blank"",""time"":2681.699999999255},{""stimulus"":""https://ziweizhang0304.github.io/Stats_learning_trig/img/Stim/FN_014_g.png"",""time"":2725.9000000003725},{""stimulus"":""blank"",""time"":3029.2999999988824},{""stimulus"":""https://ziweizhang0304.github.io/Stats_learning_trig/img/Stim/FN_021_g.png"",""time"":3063.9000000003725},{""stimulus"":""blank"",""time"":3369.2999999988824},{""stimulus"":""https://ziweizhang0304.github.io/Stats_learning_trig/img/Stim/FN_026_g.png"",""time"":3402.4000000003725},{""stimulus"":""blank"",""time"":3704.5999999996275},{""stimulus"":""https://ziweizhang0304.github.io/Stats_learning_trig/img/Stim/FN_001_g.png"",""time"":3743.699999999255},{""stimulus"":""blank"",""time"":4047.2999999988824},{""stimulus"":""https://ziweizhang0304.github.io/Stats_learning_trig/img/Stim/FN_003_g.png"",""time"":4081.2999999988824},{""stimulus"":""blank"",""time"":4381.699999999255}]","[{""key_press"":32,""rt"":1900.5999999996275,""stimulus"":""https://ziweizhang0304.github.io/Stats_learning_trig/img/Stim/FN_022_g.png""}]","536.5999999996275","https://ziweizhang0304.github.io/Stats_learning_trig/img/Stim/FN_011_g.png","post_TD","24","1364","1900.5999999996275","fast","4","1","5d215a1bbf7f840019701939","2a81e","","","","",""
"","survey-text","61","240248","0.0-6.0","20654.199999999255","","","","","","","","","","","","","","","","","","{""Q0"":""I just waited to see the shape that was in mind.""}","","","",""
"","survey-text","62","244264","0.0-7.0","4008.5","","","","","","","","","","","","","","","","","","{""[object Object]"":""no""}","","","",""
"","instructions","63","250705","0.0-8.0","6441","","[{""page_index"":0,""viewing_time"":6440.5999999996275}]","","","","","","","","","","","","","","","","","","","",""
"","free-sort","64","273598","0.0-9.0","22890.099999999627","","","","","","","","","post_drag","","","","fast","","","","","","[{""src"":""https://ziweizhang0304.github.io/Stats_learning_trig/img/Stim/FN_011_g.png"",""x"":475,""y"":0},{""src"":""https://ziweizhang0304.github.io/Stats_learning_trig/img/Stim/FN_022_g.png"",""x"":-225,""y"":50},{""src"":""https://ziweizhang0304.github.io/Stats_learning_trig/img/Stim/FN_015_g.png"",""x"":475,""y"":50}]","[{""src"":""https://ziweizhang0304.github.io/Stats_learning_trig/img/Stim/FN_011_g.png"",""x"":121,""y"":9},{""src"":""https://ziweizhang0304.github.io/Stats_learning_trig/img/Stim/FN_015_g.png"",""x"":122,""y"":53},{""src"":""https://ziweizhang0304.github.io/Stats_learning_trig/img/Stim/FN_011_g.png"",""x"":21,""y"":8},{""src"":""https://ziweizhang0304.github.io/Stats_learning_trig/img/Stim/FN_015_g.png"",""x"":106,""y"":12},{""src"":""https://ziweizhang0304.github.io/Stats_learning_trig/img/Stim/FN_022_g.png"",""x"":205,""y"":16}]","[{""src"":""https://ziweizhang0304.github.io/Stats_learning_trig/img/Stim/FN_011_g.png"",""x"":21,""y"":8},{""src"":""https://ziweizhang0304.github.io/Stats_learning_trig/img/Stim/FN_022_g.png"",""x"":205,""y"":16},{""src"":""https://ziweizhang0304.github.io/Stats_learning_trig/img/Stim/FN_015_g.png"",""x"":106,""y"":12}]",""
"","free-sort","65","281407","0.0-10.0","7807.799999998882","","","","","","","","","post_drag","","","","slow","","","","","","[{""src"":""https://ziweizhang0304.github.io/Stats_learning_trig/img/Stim/FN_018_g.png"",""x"":475,""y"":0},{""src"":""https://ziweizhang0304.github.io/Stats_learning_trig/img/Stim/FN_012_g.png"",""x"":-225,""y"":50},{""src"":""https://ziweizhang0304.github.io/Stats_learning_trig/img/Stim/FN_005_g.png"",""x"":475,""y"":50}]","[{""src"":""https://ziweizhang0304.github.io/Stats_learning_trig/img/Stim/FN_005_g.png"",""x"":124,""y"":27},{""src"":""https://ziweizhang0304.github.io/Stats_learning_trig/img/Stim/FN_018_g.png"",""x"":214,""y"":35},{""src"":""https://ziweizhang0304.github.io/Stats_learning_trig/img/Stim/FN_012_g.png"",""x"":21,""y"":37}]","[{""src"":""https://ziweizhang0304.github.io/Stats_learning_trig/img/Stim/FN_018_g.png"",""x"":214,""y"":35},{""src"":""https://ziweizhang0304.github.io/Stats_learning_trig/img/Stim/FN_012_g.png"",""x"":21,""y"":37},{""src"":""https://ziweizhang0304.github.io/Stats_learning_trig/img/Stim/FN_005_g.png"",""x"":124,""y"":27}]",""
"","survey-multi-choice","66","290208","0.0-11.0","8792.099999999627","","","","","","","","","","","","","","","","5d215a1bbf7f840019701939","","{""awareness"":""No"",""attention_check"":""Press SPACEBAR to a target""}","","","","[0,1]"
