"success","trial_type","trial_index","time_elapsed","internal_node_id","rt","url","view_history","stimulus","key_press","animation_sequence","response","TD_rt","TD_target","test_part","TD_trial_number","onset","offset","attention_state","TD_target_position","TD_within_triplet_counter","participant","yoke_participant","responses","init_locations","moves","final_locations","question_order"
"true","fullscreen","0","4979","0.0-0.0","","","","","","","","","","","","","","","","","","","","","","",""
"","external-html","1","41859","0.0-1.0","36429.40000000037","https://ziweizhang0304.github.io/Stats_learning_trig/content/consent.html","","","","","","","","","","","","","","","","","","","","",""
"","instructions","2","66235","0.0-2.0","24372.10000000056","","[{""page_index"":0,""viewing_time"":1913.5},{""page_index"":1,""viewing_time"":7722.4000000003725},{""page_index"":2,""viewing_time"":12470.799999999814},{""page_index"":3,""viewing_time"":2264.2000000001863}]","","","","","","","","","","","","","","","","","","","",""
"","image-keyboard-response","3","70193","0.0-3.0-0.0-0.0","3955.899999999441","","","https://ziweizhang0304.github.io/Stats_learning_trig/img/Stim/FN_001_g.png","13","","","","","","","","","","","","","","","","","",""
"","animation","4","74624","0.0-3.0-0.0-1.0","","","","","","[{""stimulus"":""https://ziweizhang0304.github.io/Stats_learning_trig/img/Stim/FN_025_g.png"",""time"":364.6000000005588},{""stimulus"":""blank"",""time"":673.9000000003725},{""stimulus"":""https://ziweizhang0304.github.io/Stats_learning_trig/img/Stim/FN_002_g.png"",""time"":690.1000000005588},{""stimulus"":""blank"",""time"":1003.8000000007451},{""stimulus"":""https://ziweizhang0304.github.io/Stats_learning_trig/img/Stim/FN_006_g.png"",""time"":1028},{""stimulus"":""blank"",""time"":1342.800000000745},{""stimulus"":""https://ziweizhang0304.github.io/Stats_learning_trig/img/Stim/FN_019_g.png"",""time"":1367.1000000005588},{""stimulus"":""blank"",""time"":1679.9000000003725},{""stimulus"":""https://ziweizhang0304.github.io/Stats_learning_trig/img/Stim/FN_017_g.png"",""time"":1703.2000000001863},{""stimulus"":""blank"",""time"":2010.300000000745},{""stimulus"":""https://ziweizhang0304.github.io/Stats_learning_trig/img/Stim/FN_026_g.png"",""time"":2044},{""stimulus"":""blank"",""time"":2345},{""stimulus"":""https://ziweizhang0304.github.io/Stats_learning_trig/img/Stim/FN_004_g.png"",""time"":2385.600000000559},{""stimulus"":""blank"",""time"":2700.7000000001863},{""stimulus"":""https://ziweizhang0304.github.io/Stats_learning_trig/img/Stim/FN_021_g.png"",""time"":2735},{""stimulus"":""blank"",""time"":3048.2000000001863},{""stimulus"":""https://ziweizhang0304.github.io/Stats_learning_trig/img/Stim/FN_005_g.png"",""time"":3061.7000000001863},{""stimulus"":""blank"",""time"":3377.100000000559},{""stimulus"":""https://ziweizhang0304.github.io/Stats_learning_trig/img/Stim/FN_007_g.png"",""time"":3411.4000000003725},{""stimulus"":""blank"",""time"":3729.800000000745},{""stimulus"":""https://ziweizhang0304.github.io/Stats_learning_trig/img/Stim/FN_022_g.png"",""time"":3753.100000000559},{""stimulus"":""blank"",""time"":4058},{""stimulus"":""https://ziweizhang0304.github.io/Stats_learning_trig/img/Stim/FN_001_g.png"",""time"":4093.4000000003725},{""stimulus"":""blank"",""time"":4396.600000000559}]","[{""key_press"":32,""rt"":3177.5999999996275,""stimulus"":""https://ziweizhang0304.github.io/Stats_learning_trig/img/Stim/FN_005_g.png""}]","NaN","https://ziweizhang0304.github.io/Stats_learning_trig/img/Stim/FN_001_g.png","post_prac","","","","","","","","","","","","",""
"","html-keyboard-response","5","79658","0.0-3.0-0.0-2.0","5028","","","<p>Your reaction time for this trial was NaN ms.</p><p>Remember that you should only press the SPACEBAR when you see the shape presented at the beginning of the trial. </b> </p><p>Press enter to move on.</p>","13","","","","","","","","","","","","","","","","","",""
"","image-keyboard-response","6","82042","0.0-3.0-1.0-0.0","2382.4000000003725","","","https://ziweizhang0304.github.io/Stats_learning_trig/img/Stim/FN_014_g.png","13","","","","","","","","","","","","","","","","","",""
"","animation","7","86467","0.0-3.0-1.0-1.0","","","","","","[{""stimulus"":""https://ziweizhang0304.github.io/Stats_learning_trig/img/Stim/FN_002_g.png"",""time"":354.1000000005588},{""stimulus"":""blank"",""time"":675.8000000007451},{""stimulus"":""https://ziweizhang0304.github.io/Stats_learning_trig/img/Stim/FN_007_g.png"",""time"":684.1000000005588},{""stimulus"":""blank"",""time"":990.7000000001863},{""stimulus"":""https://ziweizhang0304.github.io/Stats_learning_trig/img/Stim/FN_022_g.png"",""time"":1025.5},{""stimulus"":""blank"",""time"":1341.2000000001863},{""stimulus"":""https://ziweizhang0304.github.io/Stats_learning_trig/img/Stim/FN_026_g.png"",""time"":1364.5},{""stimulus"":""blank"",""time"":1688.2000000001863},{""stimulus"":""https://ziweizhang0304.github.io/Stats_learning_trig/img/Stim/FN_004_g.png"",""time"":1702.2000000001863},{""stimulus"":""blank"",""time"":2016.2000000001863},{""stimulus"":""https://ziweizhang0304.github.io/Stats_learning_trig/img/Stim/FN_015_g.png"",""time"":2049.7000000001863},{""stimulus"":""blank"",""time"":2364.800000000745},{""stimulus"":""https://ziweizhang0304.github.io/Stats_learning_trig/img/Stim/FN_020_g.png"",""time"":2381.5},{""stimulus"":""blank"",""time"":2687.5},{""stimulus"":""https://ziweizhang0304.github.io/Stats_learning_trig/img/Stim/FN_014_g.png"",""time"":2722},{""stimulus"":""blank"",""time"":3026.5},{""stimulus"":""https://ziweizhang0304.github.io/Stats_learning_trig/img/Stim/FN_005_g.png"",""time"":3061.100000000559},{""stimulus"":""blank"",""time"":3361.2000000001863},{""stimulus"":""https://ziweizhang0304.github.io/Stats_learning_trig/img/Stim/FN_021_g.png"",""time"":3402.100000000559},{""stimulus"":""blank"",""time"":3704.7000000001863},{""stimulus"":""https://ziweizhang0304.github.io/Stats_learning_trig/img/Stim/FN_017_g.png"",""time"":3745.2000000001863},{""stimulus"":""blank"",""time"":4048},{""stimulus"":""https://ziweizhang0304.github.io/Stats_learning_trig/img/Stim/FN_006_g.png"",""time"":4082},{""stimulus"":""blank"",""time"":4392.4000000003725}]","[{""key_press"":32,""rt"":3109.5,""stimulus"":""https://ziweizhang0304.github.io/Stats_learning_trig/img/Stim/FN_005_g.png""}]","387.5","https://ziweizhang0304.github.io/Stats_learning_trig/img/Stim/FN_014_g.png","post_prac","","","","","","","","","","","","",""
"","html-keyboard-response","8","91952","0.0-3.0-1.0-2.0","5480.100000000559","","","<p>Your reaction time for this trial was 387.5 ms.</p><p>Remember that you should only press the SPACEBAR when you see the shape presented at the beginning of the trial. </b> </p><p>Press enter to move on.</p>","13","","","","","","","","","","","","","","","","","",""
"","image-keyboard-response","9","95184","0.0-3.0-2.0-0.0","3231.2999999998137","","","https://ziweizhang0304.github.io/Stats_learning_trig/img/Stim/FN_001_g.png","13","","","","","","","","","","","","","","","","","",""
"","animation","10","99607","0.0-3.0-2.0-1.0","","","","","","[{""stimulus"":""https://ziweizhang0304.github.io/Stats_learning_trig/img/Stim/FN_005_g.png"",""time"":355.40000000037253},{""stimulus"":""blank"",""time"":658.7000000001863},{""stimulus"":""https://ziweizhang0304.github.io/Stats_learning_trig/img/Stim/FN_017_g.png"",""time"":684},{""stimulus"":""blank"",""time"":989},{""stimulus"":""https://ziweizhang0304.github.io/Stats_learning_trig/img/Stim/FN_007_g.png"",""time"":1022.4000000003725},{""stimulus"":""blank"",""time"":1332.2000000001863},{""stimulus"":""https://ziweizhang0304.github.io/Stats_learning_trig/img/Stim/FN_021_g.png"",""time"":1365.7999999998137},{""stimulus"":""blank"",""time"":1673.7000000001863},{""stimulus"":""https://ziweizhang0304.github.io/Stats_learning_trig/img/Stim/FN_025_g.png"",""time"":1707.0999999996275},{""stimulus"":""blank"",""time"":2017.0999999996275},{""stimulus"":""https://ziweizhang0304.github.io/Stats_learning_trig/img/Stim/FN_001_g.png"",""time"":2048.7999999998137},{""stimulus"":""blank"",""time"":2350.4000000003725},{""stimulus"":""https://ziweizhang0304.github.io/Stats_learning_trig/img/Stim/FN_019_g.png"",""time"":2384.7999999998137},{""stimulus"":""blank"",""time"":2699.7000000001863},{""stimulus"":""https://ziweizhang0304.github.io/Stats_learning_trig/img/Stim/FN_002_g.png"",""time"":2723.2000000001863},{""stimulus"":""blank"",""time"":3035.2000000001863},{""stimulus"":""https://ziweizhang0304.github.io/Stats_learning_trig/img/Stim/FN_026_g.png"",""time"":3069.7999999998137},{""stimulus"":""blank"",""time"":3371.5},{""stimulus"":""https://ziweizhang0304.github.io/Stats_learning_trig/img/Stim/FN_022_g.png"",""time"":3405.0999999996275},{""stimulus"":""blank"",""time"":3724.0999999996275},{""stimulus"":""https://ziweizhang0304.github.io/Stats_learning_trig/img/Stim/FN_006_g.png"",""time"":3748.2000000001863},{""stimulus"":""blank"",""time"":4051.9000000003725},{""stimulus"":""https://ziweizhang0304.github.io/Stats_learning_trig/img/Stim/FN_004_g.png"",""time"":4085.2999999998137},{""stimulus"":""blank"",""time"":4400}]","[{""key_press"":32,""rt"":2516.800000000745,""stimulus"":""https://ziweizhang0304.github.io/Stats_learning_trig/img/Stim/FN_019_g.png""}]","468.0000000009313","https://ziweizhang0304.github.io/Stats_learning_trig/img/Stim/FN_001_g.png","post_prac","","","","","","","","","","","","",""
"","html-keyboard-response","11","102030","0.0-3.0-2.0-2.0","2419.100000000559","","","<p>Your reaction time for this trial was 468 ms.</p><p>Remember that you should only press the SPACEBAR when you see the shape presented at the beginning of the trial. </b> </p><p>Press enter to move on.</p>","13","","","","","","","","","","","","","","","","","",""
"","instructions","12","103582","0.0-4.0","1551.7000000001863","","[{""page_index"":0,""viewing_time"":1551.4000000003725}]","","","","","","","","","","","","","","","","","","","",""
"","image-keyboard-response","13","105703","0.0-5.0-0.0-0.0","2119.5","","","https://ziweizhang0304.github.io/Stats_learning_trig/img/Stim/FN_019_g.png","13","","","","","","","","","","","","","","","","","",""
"","animation","14","110128","0.0-5.0-0.0-1.0","","","","","","[{""stimulus"":""https://ziweizhang0304.github.io/Stats_learning_trig/img/Stim/FN_005_g.png"",""time"":352},{""stimulus"":""blank"",""time"":656.2000000001863},{""stimulus"":""https://ziweizhang0304.github.io/Stats_learning_trig/img/Stim/FN_026_g.png"",""time"":682.5},{""stimulus"":""blank"",""time"":993.4000000003725},{""stimulus"":""https://ziweizhang0304.github.io/Stats_learning_trig/img/Stim/FN_017_g.png"",""time"":1027.2999999998137},{""stimulus"":""blank"",""time"":1333},{""stimulus"":""https://ziweizhang0304.github.io/Stats_learning_trig/img/Stim/FN_002_g.png"",""time"":1367.4000000003725},{""stimulus"":""blank"",""time"":1679.2999999998137},{""stimulus"":""https://ziweizhang0304.github.io/Stats_learning_trig/img/Stim/FN_021_g.png"",""time"":1703.2000000001863},{""stimulus"":""blank"",""time"":2019.7000000001863},{""stimulus"":""https://ziweizhang0304.github.io/Stats_learning_trig/img/Stim/FN_022_g.png"",""time"":2043.4000000003725},{""stimulus"":""blank"",""time"":2356.7000000001863},{""stimulus"":""https://ziweizhang0304.github.io/Stats_learning_trig/img/Stim/FN_025_g.png"",""time"":2391.0999999996275},{""stimulus"":""blank"",""time"":2706.2999999998137},{""stimulus"":""https://ziweizhang0304.github.io/Stats_learning_trig/img/Stim/FN_001_g.png"",""time"":2729.5},{""stimulus"":""blank"",""time"":3046},{""stimulus"":""https://ziweizhang0304.github.io/Stats_learning_trig/img/Stim/FN_019_g.png"",""time"":3069.0999999996275},{""stimulus"":""blank"",""time"":3377.2000000001863},{""stimulus"":""https://ziweizhang0304.github.io/Stats_learning_trig/img/Stim/FN_007_g.png"",""time"":3411.4000000003725},{""stimulus"":""blank"",""time"":3713.5},{""stimulus"":""https://ziweizhang0304.github.io/Stats_learning_trig/img/Stim/FN_006_g.png"",""time"":3747.5},{""stimulus"":""blank"",""time"":4054.4000000003725},{""stimulus"":""https://ziweizhang0304.github.io/Stats_learning_trig/img/Stim/FN_004_g.png"",""time"":4088.7000000001863},{""stimulus"":""blank"",""time"":4402.299999999814}]","[{""key_press"":32,""rt"":3418,""stimulus"":""https://ziweizhang0304.github.io/Stats_learning_trig/img/Stim/FN_007_g.png""}]","348.90000000037253","https://ziweizhang0304.github.io/Stats_learning_trig/img/Stim/FN_019_g.png","post_TD","1","3069.0999999996275","3418","fast","9","3","62885c14d00376d11632a442","","","","","",""
"","image-keyboard-response","15","113135","0.0-5.0-1.0-0.0","3002.600000000559","","","https://ziweizhang0304.github.io/Stats_learning_trig/img/Stim/FN_014_g.png","13","","","","","","","","","","","","","","","","","",""
"","animation","16","117556","0.0-5.0-1.0-1.0","","","","","","[{""stimulus"":""https://ziweizhang0304.github.io/Stats_learning_trig/img/Stim/FN_006_g.png"",""time"":354.69999999925494},{""stimulus"":""blank"",""time"":662},{""stimulus"":""https://ziweizhang0304.github.io/Stats_learning_trig/img/Stim/FN_021_g.png"",""time"":696.5},{""stimulus"":""blank"",""time"":1001},{""stimulus"":""https://ziweizhang0304.github.io/Stats_learning_trig/img/Stim/FN_026_g.png"",""time"":1034.3999999994412},{""stimulus"":""blank"",""time"":1335.3999999994412},{""stimulus"":""https://ziweizhang0304.github.io/Stats_learning_trig/img/Stim/FN_015_g.png"",""time"":1369.699999999255},{""stimulus"":""blank"",""time"":1674.7999999998137},{""stimulus"":""https://ziweizhang0304.github.io/Stats_learning_trig/img/Stim/FN_020_g.png"",""time"":1708},{""stimulus"":""blank"",""time"":2026.3999999994412},{""stimulus"":""https://ziweizhang0304.github.io/Stats_learning_trig/img/Stim/FN_014_g.png"",""time"":2049.399999999441},{""stimulus"":""blank"",""time"":2364.899999999441},{""stimulus"":""https://ziweizhang0304.github.io/Stats_learning_trig/img/Stim/FN_005_g.png"",""time"":2383.0999999996275},{""stimulus"":""blank"",""time"":2688.699999999255},{""stimulus"":""https://ziweizhang0304.github.io/Stats_learning_trig/img/Stim/FN_002_g.png"",""time"":2722.0999999996275},{""stimulus"":""blank"",""time"":3030.2999999998137},{""stimulus"":""https://ziweizhang0304.github.io/Stats_learning_trig/img/Stim/FN_017_g.png"",""time"":3063.7999999998137},{""stimulus"":""blank"",""time"":3366.5},{""stimulus"":""https://ziweizhang0304.github.io/Stats_learning_trig/img/Stim/FN_022_g.png"",""time"":3407.199999999255},{""stimulus"":""blank"",""time"":3712.2999999998137},{""stimulus"":""https://ziweizhang0304.github.io/Stats_learning_trig/img/Stim/FN_007_g.png"",""time"":3745.7999999998137},{""stimulus"":""blank"",""time"":4062.0999999996275},{""stimulus"":""https://ziweizhang0304.github.io/Stats_learning_trig/img/Stim/FN_004_g.png"",""time"":4083.7999999998137},{""stimulus"":""blank"",""time"":4398.0999999996275}]","[{""key_press"":32,""rt"":2400.2000000001863,""stimulus"":""https://ziweizhang0304.github.io/Stats_learning_trig/img/Stim/FN_005_g.png""}]","350.80000000074506","https://ziweizhang0304.github.io/Stats_learning_trig/img/Stim/FN_014_g.png","post_TD","2","2049.399999999441","2400.2000000001863","slow","6","3","62885c14d00376d11632a442","","","","","",""
"","image-keyboard-response","17","120366","0.0-5.0-2.0-0.0","2807.5","","","https://ziweizhang0304.github.io/Stats_learning_trig/img/Stim/FN_014_g.png","13","","","","","","","","","","","","","","","","","",""
"","animation","18","124792","0.0-5.0-2.0-1.0","","","","","","[{""stimulus"":""https://ziweizhang0304.github.io/Stats_learning_trig/img/Stim/FN_002_g.png"",""time"":350.20000000018626},{""stimulus"":""blank"",""time"":662},{""stimulus"":""https://ziweizhang0304.github.io/Stats_learning_trig/img/Stim/FN_007_g.png"",""time"":685.2999999998137},{""stimulus"":""blank"",""time"":994.4000000003725},{""stimulus"":""https://ziweizhang0304.github.io/Stats_learning_trig/img/Stim/FN_022_g.png"",""time"":1028.5999999996275},{""stimulus"":""blank"",""time"":1347.7999999998137},{""stimulus"":""https://ziweizhang0304.github.io/Stats_learning_trig/img/Stim/FN_026_g.png"",""time"":1361.2000000001863},{""stimulus"":""blank"",""time"":1682.0999999996275},{""stimulus"":""https://ziweizhang0304.github.io/Stats_learning_trig/img/Stim/FN_004_g.png"",""time"":1706.0999999996275},{""stimulus"":""blank"",""time"":2010.7000000001863},{""stimulus"":""https://ziweizhang0304.github.io/Stats_learning_trig/img/Stim/FN_015_g.png"",""time"":2044.2999999998137},{""stimulus"":""blank"",""time"":2357.2999999998137},{""stimulus"":""https://ziweizhang0304.github.io/Stats_learning_trig/img/Stim/FN_020_g.png"",""time"":2382.0999999996275},{""stimulus"":""blank"",""time"":2690.4000000003725},{""stimulus"":""https://ziweizhang0304.github.io/Stats_learning_trig/img/Stim/FN_014_g.png"",""time"":2724},{""stimulus"":""blank"",""time"":3034.7999999998137},{""stimulus"":""https://ziweizhang0304.github.io/Stats_learning_trig/img/Stim/FN_005_g.png"",""time"":3068.2000000001863},{""stimulus"":""blank"",""time"":3379.7999999998137},{""stimulus"":""https://ziweizhang0304.github.io/Stats_learning_trig/img/Stim/FN_021_g.png"",""time"":3403},{""stimulus"":""blank"",""time"":3707},{""stimulus"":""https://ziweizhang0304.github.io/Stats_learning_trig/img/Stim/FN_017_g.png"",""time"":3741.0999999996275},{""stimulus"":""blank"",""time"":4068.9000000003725},{""stimulus"":""https://ziweizhang0304.github.io/Stats_learning_trig/img/Stim/FN_006_g.png"",""time"":4083.0999999996275},{""stimulus"":""blank"",""time"":4392.5999999996275}]","[{""key_press"":32,""rt"":3100.100000000559,""stimulus"":""https://ziweizhang0304.github.io/Stats_learning_trig/img/Stim/FN_005_g.png""}]","376.1000000005588","https://ziweizhang0304.github.io/Stats_learning_trig/img/Stim/FN_014_g.png","post_TD","3","2724","3100.100000000559","slow","8","3","62885c14d00376d11632a442","","","","","",""
"","image-keyboard-response","19","128508","0.0-5.0-3.0-0.0","3712.7999999998137","","","https://ziweizhang0304.github.io/Stats_learning_trig/img/Stim/FN_020_g.png","13","","","","","","","","","","","","","","","","","",""
"","animation","20","132940","0.0-5.0-3.0-1.0","","","","","","[{""stimulus"":""https://ziweizhang0304.github.io/Stats_learning_trig/img/Stim/FN_006_g.png"",""time"":347.70000000018626},{""stimulus"":""blank"",""time"":663.1000000005588},{""stimulus"":""https://ziweizhang0304.github.io/Stats_learning_trig/img/Stim/FN_021_g.png"",""time"":686.3000000007451},{""stimulus"":""blank"",""time"":996.6000000005588},{""stimulus"":""https://ziweizhang0304.github.io/Stats_learning_trig/img/Stim/FN_026_g.png"",""time"":1030.7000000001863},{""stimulus"":""blank"",""time"":1334.2000000001863},{""stimulus"":""https://ziweizhang0304.github.io/Stats_learning_trig/img/Stim/FN_015_g.png"",""time"":1367.6000000005588},{""stimulus"":""blank"",""time"":1685.6000000005588},{""stimulus"":""https://ziweizhang0304.github.io/Stats_learning_trig/img/Stim/FN_020_g.png"",""time"":1708.2000000001863},{""stimulus"":""blank"",""time"":2009.6000000005588},{""stimulus"":""https://ziweizhang0304.github.io/Stats_learning_trig/img/Stim/FN_014_g.png"",""time"":2044},{""stimulus"":""blank"",""time"":2349.2000000001863},{""stimulus"":""https://ziweizhang0304.github.io/Stats_learning_trig/img/Stim/FN_005_g.png"",""time"":2382.7000000001863},{""stimulus"":""blank"",""time"":2689.5},{""stimulus"":""https://ziweizhang0304.github.io/Stats_learning_trig/img/Stim/FN_002_g.png"",""time"":2723},{""stimulus"":""blank"",""time"":3040.5},{""stimulus"":""https://ziweizhang0304.github.io/Stats_learning_trig/img/Stim/FN_017_g.png"",""time"":3063.7000000001863},{""stimulus"":""blank"",""time"":3369.600000000559},{""stimulus"":""https://ziweizhang0304.github.io/Stats_learning_trig/img/Stim/FN_022_g.png"",""time"":3404.300000000745},{""stimulus"":""blank"",""time"":3714.4000000003725},{""stimulus"":""https://ziweizhang0304.github.io/Stats_learning_trig/img/Stim/FN_007_g.png"",""time"":3748.9000000003725},{""stimulus"":""blank"",""time"":4058.9000000003725},{""stimulus"":""https://ziweizhang0304.github.io/Stats_learning_trig/img/Stim/FN_004_g.png"",""time"":4083},{""stimulus"":""blank"",""time"":4396.4000000003725}]","[{""key_press"":32,""rt"":2057.2000000001863,""stimulus"":""https://ziweizhang0304.github.io/Stats_learning_trig/img/Stim/FN_014_g.png""}]","349","https://ziweizhang0304.github.io/Stats_learning_trig/img/Stim/FN_020_g.png","post_TD","4","1708.2000000001863","2057.2000000001863","slow","5","2","62885c14d00376d11632a442","","","","","",""
"","image-keyboard-response","21","138498","0.0-5.0-4.0-0.0","5554.5999999996275","","","https://ziweizhang0304.github.io/Stats_learning_trig/img/Stim/FN_025_g.png","13","","","","","","","","","","","","","","","","","",""
"","animation","22","142929","0.0-5.0-4.0-1.0","","","","","","[{""stimulus"":""https://ziweizhang0304.github.io/Stats_learning_trig/img/Stim/FN_005_g.png"",""time"":355},{""stimulus"":""blank"",""time"":657},{""stimulus"":""https://ziweizhang0304.github.io/Stats_learning_trig/img/Stim/FN_026_g.png"",""time"":690.1999999992549},{""stimulus"":""blank"",""time"":995.5999999996275},{""stimulus"":""https://ziweizhang0304.github.io/Stats_learning_trig/img/Stim/FN_017_g.png"",""time"":1028.699999999255},{""stimulus"":""blank"",""time"":1330.0999999996275},{""stimulus"":""https://ziweizhang0304.github.io/Stats_learning_trig/img/Stim/FN_002_g.png"",""time"":1363.5},{""stimulus"":""blank"",""time"":1674.5},{""stimulus"":""https://ziweizhang0304.github.io/Stats_learning_trig/img/Stim/FN_021_g.png"",""time"":1708.5999999996275},{""stimulus"":""blank"",""time"":2027},{""stimulus"":""https://ziweizhang0304.github.io/Stats_learning_trig/img/Stim/FN_022_g.png"",""time"":2042.199999999255},{""stimulus"":""blank"",""time"":2348.699999999255},{""stimulus"":""https://ziweizhang0304.github.io/Stats_learning_trig/img/Stim/FN_025_g.png"",""time"":2381.899999999441},{""stimulus"":""blank"",""time"":2683.2999999998137},{""stimulus"":""https://ziweizhang0304.github.io/Stats_learning_trig/img/Stim/FN_001_g.png"",""time"":2724},{""stimulus"":""blank"",""time"":3032.699999999255},{""stimulus"":""https://ziweizhang0304.github.io/Stats_learning_trig/img/Stim/FN_019_g.png"",""time"":3066.899999999441},{""stimulus"":""blank"",""time"":3379.899999999441},{""stimulus"":""https://ziweizhang0304.github.io/Stats_learning_trig/img/Stim/FN_007_g.png"",""time"":3403},{""stimulus"":""blank"",""time"":3708.699999999255},{""stimulus"":""https://ziweizhang0304.github.io/Stats_learning_trig/img/Stim/FN_006_g.png"",""time"":3742},{""stimulus"":""blank"",""time"":4053.2999999998137},{""stimulus"":""https://ziweizhang0304.github.io/Stats_learning_trig/img/Stim/FN_004_g.png"",""time"":4092},{""stimulus"":""blank"",""time"":4396.399999999441}]","[{""key_press"":32,""rt"":430.09999999962747,""stimulus"":""https://ziweizhang0304.github.io/Stats_learning_trig/img/Stim/FN_005_g.png""},{""key_press"":32,""rt"":2482,""stimulus"":""https://ziweizhang0304.github.io/Stats_learning_trig/img/Stim/FN_025_g.png""}]","100.1000000005588","https://ziweizhang0304.github.io/Stats_learning_trig/img/Stim/FN_025_g.png","post_TD","5","2381.899999999441","2482","fast","7","1","62885c14d00376d11632a442","","","","","",""
"","image-keyboard-response","23","144690","0.0-5.0-5.0-0.0","1757.2999999998137","","","https://ziweizhang0304.github.io/Stats_learning_trig/img/Stim/FN_025_g.png","13","","","","","","","","","","","","","","","","","",""
"","animation","24","149119","0.0-5.0-5.0-1.0","","","","","","[{""stimulus"":""https://ziweizhang0304.github.io/Stats_learning_trig/img/Stim/FN_022_g.png"",""time"":345.8999999994412},{""stimulus"":""blank"",""time"":648.6999999992549},{""stimulus"":""https://ziweizhang0304.github.io/Stats_learning_trig/img/Stim/FN_026_g.png"",""time"":682.0999999996275},{""stimulus"":""blank"",""time"":987.7999999998137},{""stimulus"":""https://ziweizhang0304.github.io/Stats_learning_trig/img/Stim/FN_006_g.png"",""time"":1021.5},{""stimulus"":""blank"",""time"":1341.3999999994412},{""stimulus"":""https://ziweizhang0304.github.io/Stats_learning_trig/img/Stim/FN_025_g.png"",""time"":1364.2999999998137},{""stimulus"":""blank"",""time"":1672.7999999998137},{""stimulus"":""https://ziweizhang0304.github.io/Stats_learning_trig/img/Stim/FN_001_g.png"",""time"":1706.5},{""stimulus"":""blank"",""time"":2008},{""stimulus"":""https://ziweizhang0304.github.io/Stats_learning_trig/img/Stim/FN_019_g.png"",""time"":2042},{""stimulus"":""blank"",""time"":2345.7999999998137},{""stimulus"":""https://ziweizhang0304.github.io/Stats_learning_trig/img/Stim/FN_005_g.png"",""time"":2386.5},{""stimulus"":""blank"",""time"":2697.899999999441},{""stimulus"":""https://ziweizhang0304.github.io/Stats_learning_trig/img/Stim/FN_002_g.png"",""time"":2732.399999999441},{""stimulus"":""blank"",""time"":3040.699999999255},{""stimulus"":""https://ziweizhang0304.github.io/Stats_learning_trig/img/Stim/FN_021_g.png"",""time"":3065.399999999441},{""stimulus"":""blank"",""time"":3374.0999999996275},{""stimulus"":""https://ziweizhang0304.github.io/Stats_learning_trig/img/Stim/FN_017_g.png"",""time"":3407.5},{""stimulus"":""blank"",""time"":3711.699999999255},{""stimulus"":""https://ziweizhang0304.github.io/Stats_learning_trig/img/Stim/FN_007_g.png"",""time"":3745.2999999998137},{""stimulus"":""blank"",""time"":4056.7999999998137},{""stimulus"":""https://ziweizhang0304.github.io/Stats_learning_trig/img/Stim/FN_004_g.png"",""time"":4090.199999999255},{""stimulus"":""blank"",""time"":4406.5999999996275}]","[{""key_press"":32,""rt"":1785.7000000001863,""stimulus"":""https://ziweizhang0304.github.io/Stats_learning_trig/img/Stim/FN_001_g.png""}]","421.40000000037253","https://ziweizhang0304.github.io/Stats_learning_trig/img/Stim/FN_025_g.png","post_TD","6","1364.2999999998137","1785.7000000001863","fast","4","1","62885c14d00376d11632a442","","","","","",""
"","image-keyboard-response","25","150799","0.0-5.0-6.0-0.0","1676.7999999998137","","","https://ziweizhang0304.github.io/Stats_learning_trig/img/Stim/FN_001_g.png","13","","","","","","","","","","","","","","","","","",""
"","animation","26","155225","0.0-5.0-6.0-1.0","","","","","","[{""stimulus"":""https://ziweizhang0304.github.io/Stats_learning_trig/img/Stim/FN_005_g.png"",""time"":353},{""stimulus"":""blank"",""time"":660.2000000001863},{""stimulus"":""https://ziweizhang0304.github.io/Stats_learning_trig/img/Stim/FN_017_g.png"",""time"":684.5},{""stimulus"":""blank"",""time"":985.5999999996275},{""stimulus"":""https://ziweizhang0304.github.io/Stats_learning_trig/img/Stim/FN_007_g.png"",""time"":1026.2999999998137},{""stimulus"":""blank"",""time"":1345.5999999996275},{""stimulus"":""https://ziweizhang0304.github.io/Stats_learning_trig/img/Stim/FN_021_g.png"",""time"":1362.2000000001863},{""stimulus"":""blank"",""time"":1663.5},{""stimulus"":""https://ziweizhang0304.github.io/Stats_learning_trig/img/Stim/FN_025_g.png"",""time"":1704.2999999998137},{""stimulus"":""blank"",""time"":2011.7000000001863},{""stimulus"":""https://ziweizhang0304.github.io/Stats_learning_trig/img/Stim/FN_001_g.png"",""time"":2045.0999999996275},{""stimulus"":""blank"",""time"":2349.9000000003725},{""stimulus"":""https://ziweizhang0304.github.io/Stats_learning_trig/img/Stim/FN_019_g.png"",""time"":2383.2999999998137},{""stimulus"":""blank"",""time"":2695.5},{""stimulus"":""https://ziweizhang0304.github.io/Stats_learning_trig/img/Stim/FN_002_g.png"",""time"":2730},{""stimulus"":""blank"",""time"":3045.5},{""stimulus"":""https://ziweizhang0304.github.io/Stats_learning_trig/img/Stim/FN_026_g.png"",""time"":3068.7000000001863},{""stimulus"":""blank"",""time"":3379.2999999998137},{""stimulus"":""https://ziweizhang0304.github.io/Stats_learning_trig/img/Stim/FN_022_g.png"",""time"":3402.7000000001863},{""stimulus"":""blank"",""time"":3708.5},{""stimulus"":""https://ziweizhang0304.github.io/Stats_learning_trig/img/Stim/FN_006_g.png"",""time"":3742.7000000001863},{""stimulus"":""blank"",""time"":4052.0999999996275},{""stimulus"":""https://ziweizhang0304.github.io/Stats_learning_trig/img/Stim/FN_004_g.png"",""time"":4085.4000000003725},{""stimulus"":""blank"",""time"":4402.200000000186}]","[{""key_press"":32,""rt"":2434.7000000001863,""stimulus"":""https://ziweizhang0304.github.io/Stats_learning_trig/img/Stim/FN_019_g.png""}]","389.6000000005588","https://ziweizhang0304.github.io/Stats_learning_trig/img/Stim/FN_001_g.png","post_TD","7","2045.0999999996275","2434.7000000001863","fast","6","2","62885c14d00376d11632a442","","","","","",""
"","image-keyboard-response","27","156638","0.0-5.0-7.0-0.0","1409.7000000001863","","","https://ziweizhang0304.github.io/Stats_learning_trig/img/Stim/FN_025_g.png","13","","","","","","","","","","","","","","","","","",""
"","animation","28","161065","0.0-5.0-7.0-1.0","","","","","","[{""stimulus"":""https://ziweizhang0304.github.io/Stats_learning_trig/img/Stim/FN_005_g.png"",""time"":349.59999999962747},{""stimulus"":""blank"",""time"":655.7999999998137},{""stimulus"":""https://ziweizhang0304.github.io/Stats_learning_trig/img/Stim/FN_017_g.png"",""time"":690},{""stimulus"":""blank"",""time"":1004.7000000001863},{""stimulus"":""https://ziweizhang0304.github.io/Stats_learning_trig/img/Stim/FN_007_g.png"",""time"":1027.7999999998137},{""stimulus"":""blank"",""time"":1337},{""stimulus"":""https://ziweizhang0304.github.io/Stats_learning_trig/img/Stim/FN_021_g.png"",""time"":1361.0999999996275},{""stimulus"":""blank"",""time"":1672.5},{""stimulus"":""https://ziweizhang0304.github.io/Stats_learning_trig/img/Stim/FN_025_g.png"",""time"":1705.9000000003725},{""stimulus"":""blank"",""time"":2006.2999999998137},{""stimulus"":""https://ziweizhang0304.github.io/Stats_learning_trig/img/Stim/FN_001_g.png"",""time"":2041.7999999998137},{""stimulus"":""blank"",""time"":2343},{""stimulus"":""https://ziweizhang0304.github.io/Stats_learning_trig/img/Stim/FN_019_g.png"",""time"":2383.7999999998137},{""stimulus"":""blank"",""time"":2686},{""stimulus"":""https://ziweizhang0304.github.io/Stats_learning_trig/img/Stim/FN_002_g.png"",""time"":2726.9000000003725},{""stimulus"":""blank"",""time"":3033.7000000001863},{""stimulus"":""https://ziweizhang0304.github.io/Stats_learning_trig/img/Stim/FN_026_g.png"",""time"":3070.9000000003725},{""stimulus"":""blank"",""time"":3374.4000000003725},{""stimulus"":""https://ziweizhang0304.github.io/Stats_learning_trig/img/Stim/FN_022_g.png"",""time"":3407.5},{""stimulus"":""blank"",""time"":3721},{""stimulus"":""https://ziweizhang0304.github.io/Stats_learning_trig/img/Stim/FN_006_g.png"",""time"":3743.7999999998137},{""stimulus"":""blank"",""time"":4049.9000000003725},{""stimulus"":""https://ziweizhang0304.github.io/Stats_learning_trig/img/Stim/FN_004_g.png"",""time"":4082.7999999998137},{""stimulus"":""blank"",""time"":4386.4000000003725}]","[{""key_press"":32,""rt"":2142.899999999441,""stimulus"":""https://ziweizhang0304.github.io/Stats_learning_trig/img/Stim/FN_001_g.png""}]","436.9999999990687","https://ziweizhang0304.github.io/Stats_learning_trig/img/Stim/FN_025_g.png","post_TD","8","1705.9000000003725","2142.899999999441","fast","5","1","62885c14d00376d11632a442","","","","","",""
"","image-keyboard-response","29","163000","0.0-5.0-8.0-0.0","1931.2000000001863","","","https://ziweizhang0304.github.io/Stats_learning_trig/img/Stim/FN_015_g.png","13","","","","","","","","","","","","","","","","","",""
"","animation","30","167429","0.0-5.0-8.0-1.0","","","","","","[{""stimulus"":""https://ziweizhang0304.github.io/Stats_learning_trig/img/Stim/FN_021_g.png"",""time"":341.20000000018626},{""stimulus"":""blank"",""time"":656.7999999998137},{""stimulus"":""https://ziweizhang0304.github.io/Stats_learning_trig/img/Stim/FN_022_g.png"",""time"":690.2999999998137},{""stimulus"":""blank"",""time"":1004.2999999998137},{""stimulus"":""https://ziweizhang0304.github.io/Stats_learning_trig/img/Stim/FN_002_g.png"",""time"":1020.5999999996275},{""stimulus"":""blank"",""time"":1336},{""stimulus"":""https://ziweizhang0304.github.io/Stats_learning_trig/img/Stim/FN_007_g.png"",""time"":1369.5999999996275},{""stimulus"":""blank"",""time"":1673.4000000003725},{""stimulus"":""https://ziweizhang0304.github.io/Stats_learning_trig/img/Stim/FN_005_g.png"",""time"":1705.0999999996275},{""stimulus"":""blank"",""time"":2006.0999999996275},{""stimulus"":""https://ziweizhang0304.github.io/Stats_learning_trig/img/Stim/FN_006_g.png"",""time"":2041.2000000001863},{""stimulus"":""blank"",""time"":2354.2000000001863},{""stimulus"":""https://ziweizhang0304.github.io/Stats_learning_trig/img/Stim/FN_015_g.png"",""time"":2387.7000000001863},{""stimulus"":""blank"",""time"":2698.7000000001863},{""stimulus"":""https://ziweizhang0304.github.io/Stats_learning_trig/img/Stim/FN_020_g.png"",""time"":2722.7000000001863},{""stimulus"":""blank"",""time"":3047.7999999998137},{""stimulus"":""https://ziweizhang0304.github.io/Stats_learning_trig/img/Stim/FN_014_g.png"",""time"":3071.2000000001863},{""stimulus"":""blank"",""time"":3375.7000000001863},{""stimulus"":""https://ziweizhang0304.github.io/Stats_learning_trig/img/Stim/FN_026_g.png"",""time"":3410.0999999996275},{""stimulus"":""blank"",""time"":3719.5999999996275},{""stimulus"":""https://ziweizhang0304.github.io/Stats_learning_trig/img/Stim/FN_017_g.png"",""time"":3743.2000000001863},{""stimulus"":""blank"",""time"":4050.7999999998137},{""stimulus"":""https://ziweizhang0304.github.io/Stats_learning_trig/img/Stim/FN_004_g.png"",""time"":4087.2000000001863},{""stimulus"":""blank"",""time"":4394.700000000186}]","[{""key_press"":32,""rt"":2794.9000000003725,""stimulus"":""https://ziweizhang0304.github.io/Stats_learning_trig/img/Stim/FN_020_g.png""}]","407.20000000018626","https://ziweizhang0304.github.io/Stats_learning_trig/img/Stim/FN_015_g.png","post_TD","9","2387.7000000001863","2794.9000000003725","slow","7","1","62885c14d00376d11632a442","","","","","",""
"","image-keyboard-response","31","168588","0.0-5.0-9.0-0.0","1155.9000000003725","","","https://ziweizhang0304.github.io/Stats_learning_trig/img/Stim/FN_020_g.png","13","","","","","","","","","","","","","","","","","",""
"","animation","32","173014","0.0-5.0-9.0-1.0","","","","","","[{""stimulus"":""https://ziweizhang0304.github.io/Stats_learning_trig/img/Stim/FN_021_g.png"",""time"":345.5},{""stimulus"":""blank"",""time"":667.9000000003725},{""stimulus"":""https://ziweizhang0304.github.io/Stats_learning_trig/img/Stim/FN_022_g.png"",""time"":681.4000000003725},{""stimulus"":""blank"",""time"":982.5},{""stimulus"":""https://ziweizhang0304.github.io/Stats_learning_trig/img/Stim/FN_002_g.png"",""time"":1023.2999999998137},{""stimulus"":""blank"",""time"":1334.7999999998137},{""stimulus"":""https://ziweizhang0304.github.io/Stats_learning_trig/img/Stim/FN_007_g.png"",""time"":1369},{""stimulus"":""blank"",""time"":1682.9000000003725},{""stimulus"":""https://ziweizhang0304.github.io/Stats_learning_trig/img/Stim/FN_005_g.png"",""time"":1706.9000000003725},{""stimulus"":""blank"",""time"":2009.2000000001863},{""stimulus"":""https://ziweizhang0304.github.io/Stats_learning_trig/img/Stim/FN_006_g.png"",""time"":2043.4000000003725},{""stimulus"":""blank"",""time"":2349.9000000003725},{""stimulus"":""https://ziweizhang0304.github.io/Stats_learning_trig/img/Stim/FN_015_g.png"",""time"":2383.7999999998137},{""stimulus"":""blank"",""time"":2697.2999999998137},{""stimulus"":""https://ziweizhang0304.github.io/Stats_learning_trig/img/Stim/FN_020_g.png"",""time"":2730.5},{""stimulus"":""blank"",""time"":3034.9000000003725},{""stimulus"":""https://ziweizhang0304.github.io/Stats_learning_trig/img/Stim/FN_014_g.png"",""time"":3068.2999999998137},{""stimulus"":""blank"",""time"":3373.5999999996275},{""stimulus"":""https://ziweizhang0304.github.io/Stats_learning_trig/img/Stim/FN_026_g.png"",""time"":3407.7000000001863},{""stimulus"":""blank"",""time"":3716.9000000003725},{""stimulus"":""https://ziweizhang0304.github.io/Stats_learning_trig/img/Stim/FN_017_g.png"",""time"":3751.0999999996275},{""stimulus"":""blank"",""time"":4057.7000000001863},{""stimulus"":""https://ziweizhang0304.github.io/Stats_learning_trig/img/Stim/FN_004_g.png"",""time"":4091.7000000001863},{""stimulus"":""blank"",""time"":4392.200000000186}]","[{""key_press"":32,""rt"":1740.7000000001863,""stimulus"":""https://ziweizhang0304.github.io/Stats_learning_trig/img/Stim/FN_005_g.png""}]","NaN","https://ziweizhang0304.github.io/Stats_learning_trig/img/Stim/FN_020_g.png","post_TD","10","2730.5","","slow","8","2","62885c14d00376d11632a442","","","","","",""
"","image-keyboard-response","33","174348","0.0-5.0-10.0-0.0","1330.7999999998137","","","https://ziweizhang0304.github.io/Stats_learning_trig/img/Stim/FN_014_g.png","13","","","","","","","","","","","","","","","","","",""
"","animation","34","178770","0.0-5.0-10.0-1.0","","","","","","[{""stimulus"":""https://ziweizhang0304.github.io/Stats_learning_trig/img/Stim/FN_007_g.png"",""time"":343},{""stimulus"":""blank"",""time"":645.7000000001863},{""stimulus"":""https://ziweizhang0304.github.io/Stats_learning_trig/img/Stim/FN_005_g.png"",""time"":686.3999999994412},{""stimulus"":""blank"",""time"":992.5},{""stimulus"":""https://ziweizhang0304.github.io/Stats_learning_trig/img/Stim/FN_026_g.png"",""time"":1025.7999999998137},{""stimulus"":""blank"",""time"":1340.3999999994412},{""stimulus"":""https://ziweizhang0304.github.io/Stats_learning_trig/img/Stim/FN_021_g.png"",""time"":1364.3999999994412},{""stimulus"":""blank"",""time"":1670.3999999994412},{""stimulus"":""https://ziweizhang0304.github.io/Stats_learning_trig/img/Stim/FN_015_g.png"",""time"":1703.7000000001863},{""stimulus"":""blank"",""time"":2005.2000000001863},{""stimulus"":""https://ziweizhang0304.github.io/Stats_learning_trig/img/Stim/FN_020_g.png"",""time"":2045.8999999994412},{""stimulus"":""blank"",""time"":2367.899999999441},{""stimulus"":""https://ziweizhang0304.github.io/Stats_learning_trig/img/Stim/FN_014_g.png"",""time"":2384.2000000001863},{""stimulus"":""blank"",""time"":2689.7999999998137},{""stimulus"":""https://ziweizhang0304.github.io/Stats_learning_trig/img/Stim/FN_002_g.png"",""time"":2724.0999999996275},{""stimulus"":""blank"",""time"":3031.0999999996275},{""stimulus"":""https://ziweizhang0304.github.io/Stats_learning_trig/img/Stim/FN_017_g.png"",""time"":3064.5},{""stimulus"":""blank"",""time"":3383.5},{""stimulus"":""https://ziweizhang0304.github.io/Stats_learning_trig/img/Stim/FN_022_g.png"",""time"":3408.2999999998137},{""stimulus"":""blank"",""time"":3709.7000000001863},{""stimulus"":""https://ziweizhang0304.github.io/Stats_learning_trig/img/Stim/FN_006_g.png"",""time"":3742.5999999996275},{""stimulus"":""blank"",""time"":4051.899999999441},{""stimulus"":""https://ziweizhang0304.github.io/Stats_learning_trig/img/Stim/FN_004_g.png"",""time"":4086.399999999441},{""stimulus"":""blank"",""time"":4387.299999999814}]","[{""key_press"":32,""rt"":2834.9000000003725,""stimulus"":""https://ziweizhang0304.github.io/Stats_learning_trig/img/Stim/FN_002_g.png""}]","450.70000000018626","https://ziweizhang0304.github.io/Stats_learning_trig/img/Stim/FN_014_g.png","post_TD","11","2384.2000000001863","2834.9000000003725","slow","7","3","62885c14d00376d11632a442","","","","","",""
"","image-keyboard-response","35","179981","0.0-5.0-11.0-0.0","1208.2999999998137","","","https://ziweizhang0304.github.io/Stats_learning_trig/img/Stim/FN_020_g.png","13","","","","","","","","","","","","","","","","","",""
"","animation","36","184411","0.0-5.0-11.0-1.0","","","","","","[{""stimulus"":""https://ziweizhang0304.github.io/Stats_learning_trig/img/Stim/FN_002_g.png"",""time"":351.29999999981374},{""stimulus"":""blank"",""time"":652.0999999996275},{""stimulus"":""https://ziweizhang0304.github.io/Stats_learning_trig/img/Stim/FN_007_g.png"",""time"":686.5999999996275},{""stimulus"":""blank"",""time"":988.0999999996275},{""stimulus"":""https://ziweizhang0304.github.io/Stats_learning_trig/img/Stim/FN_022_g.png"",""time"":1021.7000000001863},{""stimulus"":""blank"",""time"":1333.5999999996275},{""stimulus"":""https://ziweizhang0304.github.io/Stats_learning_trig/img/Stim/FN_026_g.png"",""time"":1367.2999999998137},{""stimulus"":""blank"",""time"":1671.0999999996275},{""stimulus"":""https://ziweizhang0304.github.io/Stats_learning_trig/img/Stim/FN_004_g.png"",""time"":1704.5999999996275},{""stimulus"":""blank"",""time"":2018.7999999998137},{""stimulus"":""https://ziweizhang0304.github.io/Stats_learning_trig/img/Stim/FN_015_g.png"",""time"":2042.8999999994412},{""stimulus"":""blank"",""time"":2345.5},{""stimulus"":""https://ziweizhang0304.github.io/Stats_learning_trig/img/Stim/FN_020_g.png"",""time"":2386},{""stimulus"":""blank"",""time"":2694.899999999441},{""stimulus"":""https://ziweizhang0304.github.io/Stats_learning_trig/img/Stim/FN_014_g.png"",""time"":2725.2999999998137},{""stimulus"":""blank"",""time"":3027.0999999996275},{""stimulus"":""https://ziweizhang0304.github.io/Stats_learning_trig/img/Stim/FN_005_g.png"",""time"":3061.399999999441},{""stimulus"":""blank"",""time"":3372.399999999441},{""stimulus"":""https://ziweizhang0304.github.io/Stats_learning_trig/img/Stim/FN_021_g.png"",""time"":3406.899999999441},{""stimulus"":""blank"",""time"":3720.7000000001863},{""stimulus"":""https://ziweizhang0304.github.io/Stats_learning_trig/img/Stim/FN_017_g.png"",""time"":3745.0999999996275},{""stimulus"":""blank"",""time"":4058.2999999998137},{""stimulus"":""https://ziweizhang0304.github.io/Stats_learning_trig/img/Stim/FN_006_g.png"",""time"":4092.2000000001863},{""stimulus"":""blank"",""time"":4395.200000000186}]","[{""key_press"":32,""rt"":2958.4000000003725,""stimulus"":""https://ziweizhang0304.github.io/Stats_learning_trig/img/Stim/FN_014_g.png""}]","572.4000000003725","https://ziweizhang0304.github.io/Stats_learning_trig/img/Stim/FN_020_g.png","post_TD","12","2386","2958.4000000003725","slow","7","2","62885c14d00376d11632a442","","","","","",""
"","image-keyboard-response","37","185623","0.0-5.0-12.0-0.0","1209","","","https://ziweizhang0304.github.io/Stats_learning_trig/img/Stim/FN_001_g.png","13","","","","","","","","","","","","","","","","","",""
"","animation","38","190050","0.0-5.0-12.0-1.0","","","","","","[{""stimulus"":""https://ziweizhang0304.github.io/Stats_learning_trig/img/Stim/FN_005_g.png"",""time"":355.70000000018626},{""stimulus"":""blank"",""time"":670.1000000005588},{""stimulus"":""https://ziweizhang0304.github.io/Stats_learning_trig/img/Stim/FN_026_g.png"",""time"":687.1000000005588},{""stimulus"":""blank"",""time"":999.9000000003725},{""stimulus"":""https://ziweizhang0304.github.io/Stats_learning_trig/img/Stim/FN_017_g.png"",""time"":1024.2000000001863},{""stimulus"":""blank"",""time"":1325.7999999998137},{""stimulus"":""https://ziweizhang0304.github.io/Stats_learning_trig/img/Stim/FN_002_g.png"",""time"":1366.5},{""stimulus"":""blank"",""time"":1683.6000000005588},{""stimulus"":""https://ziweizhang0304.github.io/Stats_learning_trig/img/Stim/FN_021_g.png"",""time"":1706.9000000003725},{""stimulus"":""blank"",""time"":2016.2999999998137},{""stimulus"":""https://ziweizhang0304.github.io/Stats_learning_trig/img/Stim/FN_022_g.png"",""time"":2050.600000000559},{""stimulus"":""blank"",""time"":2377.7999999998137},{""stimulus"":""https://ziweizhang0304.github.io/Stats_learning_trig/img/Stim/FN_025_g.png"",""time"":2385.600000000559},{""stimulus"":""blank"",""time"":2691.100000000559},{""stimulus"":""https://ziweizhang0304.github.io/Stats_learning_trig/img/Stim/FN_001_g.png"",""time"":2725.7000000001863},{""stimulus"":""blank"",""time"":3037.100000000559},{""stimulus"":""https://ziweizhang0304.github.io/Stats_learning_trig/img/Stim/FN_019_g.png"",""time"":3061.100000000559},{""stimulus"":""blank"",""time"":3381.7000000001863},{""stimulus"":""https://ziweizhang0304.github.io/Stats_learning_trig/img/Stim/FN_007_g.png"",""time"":3404.7999999998137},{""stimulus"":""blank"",""time"":3714.2999999998137},{""stimulus"":""https://ziweizhang0304.github.io/Stats_learning_trig/img/Stim/FN_006_g.png"",""time"":3747.7999999998137},{""stimulus"":""blank"",""time"":4060.7999999998137},{""stimulus"":""https://ziweizhang0304.github.io/Stats_learning_trig/img/Stim/FN_004_g.png"",""time"":4084.7000000001863},{""stimulus"":""blank"",""time"":4392.799999999814}]","[{""key_press"":32,""rt"":3103.5,""stimulus"":""https://ziweizhang0304.github.io/Stats_learning_trig/img/Stim/FN_019_g.png""}]","377.79999999981374","https://ziweizhang0304.github.io/Stats_learning_trig/img/Stim/FN_001_g.png","post_TD","13","2725.7000000001863","3103.5","fast","8","2","62885c14d00376d11632a442","","","","","",""
"","image-keyboard-response","39","191068","0.0-5.0-13.0-0.0","1014.7999999998137","","","https://ziweizhang0304.github.io/Stats_learning_trig/img/Stim/FN_025_g.png","13","","","","","","","","","","","","","","","","","",""
"","animation","40","195490","0.0-5.0-13.0-1.0","","","","","","[{""stimulus"":""https://ziweizhang0304.github.io/Stats_learning_trig/img/Stim/FN_017_g.png"",""time"":350.5},{""stimulus"":""blank"",""time"":666.7999999998137},{""stimulus"":""https://ziweizhang0304.github.io/Stats_learning_trig/img/Stim/FN_026_g.png"",""time"":690},{""stimulus"":""blank"",""time"":1004},{""stimulus"":""https://ziweizhang0304.github.io/Stats_learning_trig/img/Stim/FN_006_g.png"",""time"":1027.2000000001863},{""stimulus"":""blank"",""time"":1334.7999999998137},{""stimulus"":""https://ziweizhang0304.github.io/Stats_learning_trig/img/Stim/FN_007_g.png"",""time"":1368.2000000001863},{""stimulus"":""blank"",""time"":1678.2000000001863},{""stimulus"":""https://ziweizhang0304.github.io/Stats_learning_trig/img/Stim/FN_005_g.png"",""time"":1701.2000000001863},{""stimulus"":""blank"",""time"":2012},{""stimulus"":""https://ziweizhang0304.github.io/Stats_learning_trig/img/Stim/FN_025_g.png"",""time"":2046.6000000005588},{""stimulus"":""blank"",""time"":2362.7000000001863},{""stimulus"":""https://ziweizhang0304.github.io/Stats_learning_trig/img/Stim/FN_001_g.png"",""time"":2386.2000000001863},{""stimulus"":""blank"",""time"":2709.600000000559},{""stimulus"":""https://ziweizhang0304.github.io/Stats_learning_trig/img/Stim/FN_019_g.png"",""time"":2731.2000000001863},{""stimulus"":""blank"",""time"":3041.2000000001863},{""stimulus"":""https://ziweizhang0304.github.io/Stats_learning_trig/img/Stim/FN_002_g.png"",""time"":3065.100000000559},{""stimulus"":""blank"",""time"":3372.7000000001863},{""stimulus"":""https://ziweizhang0304.github.io/Stats_learning_trig/img/Stim/FN_021_g.png"",""time"":3407.2000000001863},{""stimulus"":""blank"",""time"":3717.600000000559},{""stimulus"":""https://ziweizhang0304.github.io/Stats_learning_trig/img/Stim/FN_022_g.png"",""time"":3741.9000000003725},{""stimulus"":""blank"",""time"":4051.2999999998137},{""stimulus"":""https://ziweizhang0304.github.io/Stats_learning_trig/img/Stim/FN_004_g.png"",""time"":4086},{""stimulus"":""blank"",""time"":4398.100000000559}]","[{""key_press"":32,""rt"":2430.9000000003725,""stimulus"":""https://ziweizhang0304.github.io/Stats_learning_trig/img/Stim/FN_001_g.png""}]","384.29999999981374","https://ziweizhang0304.github.io/Stats_learning_trig/img/Stim/FN_025_g.png","post_TD","14","2046.6000000005588","2430.9000000003725","fast","6","1","62885c14d00376d11632a442","","","","","",""
"","image-keyboard-response","41","196437","0.0-5.0-14.0-0.0","944.2999999998137","","","https://ziweizhang0304.github.io/Stats_learning_trig/img/Stim/FN_015_g.png","13","","","","","","","","","","","","","","","","","",""
"","animation","42","200865","0.0-5.0-14.0-1.0","","","","","","[{""stimulus"":""https://ziweizhang0304.github.io/Stats_learning_trig/img/Stim/FN_007_g.png"",""time"":347.90000000037253},{""stimulus"":""blank"",""time"":657},{""stimulus"":""https://ziweizhang0304.github.io/Stats_learning_trig/img/Stim/FN_005_g.png"",""time"":691.2000000001863},{""stimulus"":""blank"",""time"":996.5999999996275},{""stimulus"":""https://ziweizhang0304.github.io/Stats_learning_trig/img/Stim/FN_026_g.png"",""time"":1031},{""stimulus"":""blank"",""time"":1336.7999999998137},{""stimulus"":""https://ziweizhang0304.github.io/Stats_learning_trig/img/Stim/FN_021_g.png"",""time"":1361.5999999996275},{""stimulus"":""blank"",""time"":1670.7999999998137},{""stimulus"":""https://ziweizhang0304.github.io/Stats_learning_trig/img/Stim/FN_015_g.png"",""time"":1704.2000000001863},{""stimulus"":""blank"",""time"":2022.2000000001863},{""stimulus"":""https://ziweizhang0304.github.io/Stats_learning_trig/img/Stim/FN_020_g.png"",""time"":2045.7000000001863},{""stimulus"":""blank"",""time"":2352.4000000003725},{""stimulus"":""https://ziweizhang0304.github.io/Stats_learning_trig/img/Stim/FN_014_g.png"",""time"":2386.4000000003725},{""stimulus"":""blank"",""time"":2688.5999999996275},{""stimulus"":""https://ziweizhang0304.github.io/Stats_learning_trig/img/Stim/FN_002_g.png"",""time"":2721.7999999998137},{""stimulus"":""blank"",""time"":3025.5},{""stimulus"":""https://ziweizhang0304.github.io/Stats_learning_trig/img/Stim/FN_017_g.png"",""time"":3066.2999999998137},{""stimulus"":""blank"",""time"":3369.9000000003725},{""stimulus"":""https://ziweizhang0304.github.io/Stats_learning_trig/img/Stim/FN_022_g.png"",""time"":3403.4000000003725},{""stimulus"":""blank"",""time"":3710.2000000001863},{""stimulus"":""https://ziweizhang0304.github.io/Stats_learning_trig/img/Stim/FN_006_g.png"",""time"":3744.7999999998137},{""stimulus"":""blank"",""time"":4059.7999999998137},{""stimulus"":""https://ziweizhang0304.github.io/Stats_learning_trig/img/Stim/FN_004_g.png"",""time"":4083.5},{""stimulus"":""blank"",""time"":4386.5}]","[{""key_press"":32,""rt"":2162,""stimulus"":""https://ziweizhang0304.github.io/Stats_learning_trig/img/Stim/FN_020_g.png""}]","457.79999999981374","https://ziweizhang0304.github.io/Stats_learning_trig/img/Stim/FN_015_g.png","post_TD","15","1704.2000000001863","2162","slow","5","1","62885c14d00376d11632a442","","","","","",""
"","image-keyboard-response","43","204074","0.0-5.0-15.0-0.0","3206","","","https://ziweizhang0304.github.io/Stats_learning_trig/img/Stim/FN_014_g.png","13","","","","","","","","","","","","","","","","","",""
"","animation","44","208503","0.0-5.0-15.0-1.0","","","","","","[{""stimulus"":""https://ziweizhang0304.github.io/Stats_learning_trig/img/Stim/FN_021_g.png"",""time"":349.29999999981374},{""stimulus"":""blank"",""time"":649.7999999998137},{""stimulus"":""https://ziweizhang0304.github.io/Stats_learning_trig/img/Stim/FN_022_g.png"",""time"":683.5999999996275},{""stimulus"":""blank"",""time"":989.2999999998137},{""stimulus"":""https://ziweizhang0304.github.io/Stats_learning_trig/img/Stim/FN_002_g.png"",""time"":1022.5999999996275},{""stimulus"":""blank"",""time"":1335.5},{""stimulus"":""https://ziweizhang0304.github.io/Stats_learning_trig/img/Stim/FN_007_g.png"",""time"":1368.7999999998137},{""stimulus"":""blank"",""time"":1678.5},{""stimulus"":""https://ziweizhang0304.github.io/Stats_learning_trig/img/Stim/FN_005_g.png"",""time"":1712},{""stimulus"":""blank"",""time"":2027.2999999998137},{""stimulus"":""https://ziweizhang0304.github.io/Stats_learning_trig/img/Stim/FN_006_g.png"",""time"":2040.5999999996275},{""stimulus"":""blank"",""time"":2343.9000000003725},{""stimulus"":""https://ziweizhang0304.github.io/Stats_learning_trig/img/Stim/FN_015_g.png"",""time"":2384.5999999996275},{""stimulus"":""blank"",""time"":2692.5},{""stimulus"":""https://ziweizhang0304.github.io/Stats_learning_trig/img/Stim/FN_020_g.png"",""time"":2725.7999999998137},{""stimulus"":""blank"",""time"":3040.7000000001863},{""stimulus"":""https://ziweizhang0304.github.io/Stats_learning_trig/img/Stim/FN_014_g.png"",""time"":3063.5999999996275},{""stimulus"":""blank"",""time"":3377.7000000001863},{""stimulus"":""https://ziweizhang0304.github.io/Stats_learning_trig/img/Stim/FN_026_g.png"",""time"":3412.0999999996275},{""stimulus"":""blank"",""time"":3719.9000000003725},{""stimulus"":""https://ziweizhang0304.github.io/Stats_learning_trig/img/Stim/FN_017_g.png"",""time"":3753.4000000003725},{""stimulus"":""blank"",""time"":4057.7000000001863},{""stimulus"":""https://ziweizhang0304.github.io/Stats_learning_trig/img/Stim/FN_004_g.png"",""time"":4092.7000000001863},{""stimulus"":""blank"",""time"":4395.700000000186}]","[{""key_press"":32,""rt"":3042.9000000003725,""stimulus"":""blank""}]","NaN","https://ziweizhang0304.github.io/Stats_learning_trig/img/Stim/FN_014_g.png","post_TD","16","3063.5999999996275","","slow","9","3","62885c14d00376d11632a442","","","","","",""
"","image-keyboard-response","45","209643","0.0-5.0-16.0-0.0","1136.5999999996275","","","https://ziweizhang0304.github.io/Stats_learning_trig/img/Stim/FN_001_g.png","13","","","","","","","","","","","","","","","","","",""
"","animation","46","214068","0.0-5.0-16.0-1.0","","","","","","[{""stimulus"":""https://ziweizhang0304.github.io/Stats_learning_trig/img/Stim/FN_022_g.png"",""time"":341.70000000018626},{""stimulus"":""blank"",""time"":653.3000000007451},{""stimulus"":""https://ziweizhang0304.github.io/Stats_learning_trig/img/Stim/FN_026_g.png"",""time"":686.9000000003725},{""stimulus"":""blank"",""time"":991.9000000003725},{""stimulus"":""https://ziweizhang0304.github.io/Stats_learning_trig/img/Stim/FN_006_g.png"",""time"":1026.2000000001863},{""stimulus"":""blank"",""time"":1340.2000000001863},{""stimulus"":""https://ziweizhang0304.github.io/Stats_learning_trig/img/Stim/FN_025_g.png"",""time"":1363.4000000003725},{""stimulus"":""blank"",""time"":1679.800000000745},{""stimulus"":""https://ziweizhang0304.github.io/Stats_learning_trig/img/Stim/FN_001_g.png"",""time"":1703.9000000003725},{""stimulus"":""blank"",""time"":2005.6000000005588},{""stimulus"":""https://ziweizhang0304.github.io/Stats_learning_trig/img/Stim/FN_019_g.png"",""time"":2046.6000000005588},{""stimulus"":""blank"",""time"":2354.100000000559},{""stimulus"":""https://ziweizhang0304.github.io/Stats_learning_trig/img/Stim/FN_005_g.png"",""time"":2388.600000000559},{""stimulus"":""blank"",""time"":2699.100000000559},{""stimulus"":""https://ziweizhang0304.github.io/Stats_learning_trig/img/Stim/FN_002_g.png"",""time"":2724.2000000001863},{""stimulus"":""blank"",""time"":3035},{""stimulus"":""https://ziweizhang0304.github.io/Stats_learning_trig/img/Stim/FN_021_g.png"",""time"":3069.100000000559},{""stimulus"":""blank"",""time"":3379.7000000001863},{""stimulus"":""https://ziweizhang0304.github.io/Stats_learning_trig/img/Stim/FN_017_g.png"",""time"":3403},{""stimulus"":""blank"",""time"":3710.100000000559},{""stimulus"":""https://ziweizhang0304.github.io/Stats_learning_trig/img/Stim/FN_007_g.png"",""time"":3743.4000000003725},{""stimulus"":""blank"",""time"":4059.9000000003725},{""stimulus"":""https://ziweizhang0304.github.io/Stats_learning_trig/img/Stim/FN_004_g.png"",""time"":4082.9000000003725},{""stimulus"":""blank"",""time"":4384.700000000186}]","[{""key_press"":32,""rt"":2130.5,""stimulus"":""https://ziweizhang0304.github.io/Stats_learning_trig/img/Stim/FN_019_g.png""}]","426.59999999962747","https://ziweizhang0304.github.io/Stats_learning_trig/img/Stim/FN_001_g.png","post_TD","17","1703.9000000003725","2130.5","fast","5","2","62885c14d00376d11632a442","","","","","",""
"","image-keyboard-response","47","214944","0.0-5.0-17.0-0.0","873.3999999994412","","","https://ziweizhang0304.github.io/Stats_learning_trig/img/Stim/FN_001_g.png","13","","","","","","","","","","","","","","","","","",""
"","animation","48","219369","0.0-5.0-17.0-1.0","","","","","","[{""stimulus"":""https://ziweizhang0304.github.io/Stats_learning_trig/img/Stim/FN_017_g.png"",""time"":356.90000000037253},{""stimulus"":""blank"",""time"":658.9000000003725},{""stimulus"":""https://ziweizhang0304.github.io/Stats_learning_trig/img/Stim/FN_026_g.png"",""time"":687.2000000001863},{""stimulus"":""blank"",""time"":987.9000000003725},{""stimulus"":""https://ziweizhang0304.github.io/Stats_learning_trig/img/Stim/FN_006_g.png"",""time"":1025.4000000003725},{""stimulus"":""blank"",""time"":1340.1000000005588},{""stimulus"":""https://ziweizhang0304.github.io/Stats_learning_trig/img/Stim/FN_007_g.png"",""time"":1362.300000000745},{""stimulus"":""blank"",""time"":1673},{""stimulus"":""https://ziweizhang0304.github.io/Stats_learning_trig/img/Stim/FN_005_g.png"",""time"":1706.1000000005588},{""stimulus"":""blank"",""time"":2009.1000000005588},{""stimulus"":""https://ziweizhang0304.github.io/Stats_learning_trig/img/Stim/FN_025_g.png"",""time"":2045.300000000745},{""stimulus"":""blank"",""time"":2359.7000000001863},{""stimulus"":""https://ziweizhang0304.github.io/Stats_learning_trig/img/Stim/FN_001_g.png"",""time"":2381.300000000745},{""stimulus"":""blank"",""time"":2690.300000000745},{""stimulus"":""https://ziweizhang0304.github.io/Stats_learning_trig/img/Stim/FN_019_g.png"",""time"":2727.800000000745},{""stimulus"":""blank"",""time"":3029.600000000559},{""stimulus"":""https://ziweizhang0304.github.io/Stats_learning_trig/img/Stim/FN_002_g.png"",""time"":3064.800000000745},{""stimulus"":""blank"",""time"":3389.7000000001863},{""stimulus"":""https://ziweizhang0304.github.io/Stats_learning_trig/img/Stim/FN_021_g.png"",""time"":3403.800000000745},{""stimulus"":""blank"",""time"":3719.2000000001863},{""stimulus"":""https://ziweizhang0304.github.io/Stats_learning_trig/img/Stim/FN_022_g.png"",""time"":3743.2000000001863},{""stimulus"":""blank"",""time"":4053.100000000559},{""stimulus"":""https://ziweizhang0304.github.io/Stats_learning_trig/img/Stim/FN_004_g.png"",""time"":4088},{""stimulus"":""blank"",""time"":4400.9000000003725}]","[{""key_press"":32,""rt"":2838,""stimulus"":""https://ziweizhang0304.github.io/Stats_learning_trig/img/Stim/FN_019_g.png""}]","456.69999999925494","https://ziweizhang0304.github.io/Stats_learning_trig/img/Stim/FN_001_g.png","post_TD","18","2381.300000000745","2838","fast","7","2","62885c14d00376d11632a442","","","","","",""
"","image-keyboard-response","49","220151","0.0-5.0-18.0-0.0","778.6999999992549","","","https://ziweizhang0304.github.io/Stats_learning_trig/img/Stim/FN_015_g.png","13","","","","","","","","","","","","","","","","","",""
"","animation","50","224576","0.0-5.0-18.0-1.0","","","","","","[{""stimulus"":""https://ziweizhang0304.github.io/Stats_learning_trig/img/Stim/FN_006_g.png"",""time"":346.29999999981374},{""stimulus"":""blank"",""time"":655.2999999998137},{""stimulus"":""https://ziweizhang0304.github.io/Stats_learning_trig/img/Stim/FN_021_g.png"",""time"":687.7999999998137},{""stimulus"":""blank"",""time"":1003.4000000003725},{""stimulus"":""https://ziweizhang0304.github.io/Stats_learning_trig/img/Stim/FN_026_g.png"",""time"":1028.5},{""stimulus"":""blank"",""time"":1329.4000000003725},{""stimulus"":""https://ziweizhang0304.github.io/Stats_learning_trig/img/Stim/FN_015_g.png"",""time"":1362.7999999998137},{""stimulus"":""blank"",""time"":1669.7999999998137},{""stimulus"":""https://ziweizhang0304.github.io/Stats_learning_trig/img/Stim/FN_020_g.png"",""time"":1704.5999999996275},{""stimulus"":""blank"",""time"":2006.7999999998137},{""stimulus"":""https://ziweizhang0304.github.io/Stats_learning_trig/img/Stim/FN_014_g.png"",""time"":2041.7000000001863},{""stimulus"":""blank"",""time"":2358.2999999998137},{""stimulus"":""https://ziweizhang0304.github.io/Stats_learning_trig/img/Stim/FN_005_g.png"",""time"":2382.2000000001863},{""stimulus"":""blank"",""time"":2695.2999999998137},{""stimulus"":""https://ziweizhang0304.github.io/Stats_learning_trig/img/Stim/FN_002_g.png"",""time"":2728.7000000001863},{""stimulus"":""blank"",""time"":3030.5999999996275},{""stimulus"":""https://ziweizhang0304.github.io/Stats_learning_trig/img/Stim/FN_017_g.png"",""time"":3063.7000000001863},{""stimulus"":""blank"",""time"":3370},{""stimulus"":""https://ziweizhang0304.github.io/Stats_learning_trig/img/Stim/FN_022_g.png"",""time"":3403.5999999996275},{""stimulus"":""blank"",""time"":3712.4000000003725},{""stimulus"":""https://ziweizhang0304.github.io/Stats_learning_trig/img/Stim/FN_007_g.png"",""time"":3745.7999999998137},{""stimulus"":""blank"",""time"":4046.9000000003725},{""stimulus"":""https://ziweizhang0304.github.io/Stats_learning_trig/img/Stim/FN_004_g.png"",""time"":4081.2000000001863},{""stimulus"":""blank"",""time"":4384.299999999814}]","[{""key_press"":32,""rt"":1814,""stimulus"":""https://ziweizhang0304.github.io/Stats_learning_trig/img/Stim/FN_020_g.png""}]","451.20000000018626","https://ziweizhang0304.github.io/Stats_learning_trig/img/Stim/FN_015_g.png","post_TD","19","1362.7999999998137","1814","slow","4","1","62885c14d00376d11632a442","","","","","",""
"","image-keyboard-response","51","225299","0.0-5.0-19.0-0.0","719.8000000007451","","","https://ziweizhang0304.github.io/Stats_learning_trig/img/Stim/FN_020_g.png","13","","","","","","","","","","","","","","","","","",""
"","animation","52","229724","0.0-5.0-19.0-1.0","","","","","","[{""stimulus"":""https://ziweizhang0304.github.io/Stats_learning_trig/img/Stim/FN_007_g.png"",""time"":353.19999999925494},{""stimulus"":""blank"",""time"":655.5999999996275},{""stimulus"":""https://ziweizhang0304.github.io/Stats_learning_trig/img/Stim/FN_005_g.png"",""time"":682},{""stimulus"":""blank"",""time"":984.5999999996275},{""stimulus"":""https://ziweizhang0304.github.io/Stats_learning_trig/img/Stim/FN_026_g.png"",""time"":1025.7999999998137},{""stimulus"":""blank"",""time"":1337.7999999998137},{""stimulus"":""https://ziweizhang0304.github.io/Stats_learning_trig/img/Stim/FN_021_g.png"",""time"":1363.7999999998137},{""stimulus"":""blank"",""time"":1666},{""stimulus"":""https://ziweizhang0304.github.io/Stats_learning_trig/img/Stim/FN_015_g.png"",""time"":1706.8999999994412},{""stimulus"":""blank"",""time"":2017.5},{""stimulus"":""https://ziweizhang0304.github.io/Stats_learning_trig/img/Stim/FN_020_g.png"",""time"":2051},{""stimulus"":""blank"",""time"":2351.5999999996275},{""stimulus"":""https://ziweizhang0304.github.io/Stats_learning_trig/img/Stim/FN_014_g.png"",""time"":2386},{""stimulus"":""blank"",""time"":2700.5},{""stimulus"":""https://ziweizhang0304.github.io/Stats_learning_trig/img/Stim/FN_002_g.png"",""time"":2724.399999999441},{""stimulus"":""blank"",""time"":3028.699999999255},{""stimulus"":""https://ziweizhang0304.github.io/Stats_learning_trig/img/Stim/FN_017_g.png"",""time"":3062.399999999441},{""stimulus"":""blank"",""time"":3377.699999999255},{""stimulus"":""https://ziweizhang0304.github.io/Stats_learning_trig/img/Stim/FN_022_g.png"",""time"":3408},{""stimulus"":""blank"",""time"":3718.5},{""stimulus"":""https://ziweizhang0304.github.io/Stats_learning_trig/img/Stim/FN_006_g.png"",""time"":3741},{""stimulus"":""blank"",""time"":4043.7999999998137},{""stimulus"":""https://ziweizhang0304.github.io/Stats_learning_trig/img/Stim/FN_004_g.png"",""time"":4084.699999999255},{""stimulus"":""blank"",""time"":4401.899999999441}]","[{""key_press"":32,""rt"":2513.699999999255,""stimulus"":""https://ziweizhang0304.github.io/Stats_learning_trig/img/Stim/FN_014_g.png""}]","462.69999999925494","https://ziweizhang0304.github.io/Stats_learning_trig/img/Stim/FN_020_g.png","post_TD","20","2051","2513.699999999255","slow","6","2","62885c14d00376d11632a442","","","","","",""
"","image-keyboard-response","53","230419","0.0-5.0-20.0-0.0","691.8999999994412","","","https://ziweizhang0304.github.io/Stats_learning_trig/img/Stim/FN_015_g.png","13","","","","","","","","","","","","","","","","","",""
"","animation","54","234850","0.0-5.0-20.0-1.0","","","","","","[{""stimulus"":""https://ziweizhang0304.github.io/Stats_learning_trig/img/Stim/FN_002_g.png"",""time"":342.70000000018626},{""stimulus"":""blank"",""time"":654.2999999998137},{""stimulus"":""https://ziweizhang0304.github.io/Stats_learning_trig/img/Stim/FN_007_g.png"",""time"":689},{""stimulus"":""blank"",""time"":1001},{""stimulus"":""https://ziweizhang0304.github.io/Stats_learning_trig/img/Stim/FN_022_g.png"",""time"":1024.2000000001863},{""stimulus"":""blank"",""time"":1327.2000000001863},{""stimulus"":""https://ziweizhang0304.github.io/Stats_learning_trig/img/Stim/FN_026_g.png"",""time"":1368},{""stimulus"":""blank"",""time"":1675.2999999998137},{""stimulus"":""https://ziweizhang0304.github.io/Stats_learning_trig/img/Stim/FN_004_g.png"",""time"":1709.5},{""stimulus"":""blank"",""time"":2017.5},{""stimulus"":""https://ziweizhang0304.github.io/Stats_learning_trig/img/Stim/FN_015_g.png"",""time"":2051.600000000559},{""stimulus"":""blank"",""time"":2353.2999999998137},{""stimulus"":""https://ziweizhang0304.github.io/Stats_learning_trig/img/Stim/FN_020_g.png"",""time"":2387.4000000003725},{""stimulus"":""blank"",""time"":2699.2999999998137},{""stimulus"":""https://ziweizhang0304.github.io/Stats_learning_trig/img/Stim/FN_014_g.png"",""time"":2722.4000000003725},{""stimulus"":""blank"",""time"":3029.7000000001863},{""stimulus"":""https://ziweizhang0304.github.io/Stats_learning_trig/img/Stim/FN_005_g.png"",""time"":3061.5},{""stimulus"":""blank"",""time"":3374.600000000559},{""stimulus"":""https://ziweizhang0304.github.io/Stats_learning_trig/img/Stim/FN_021_g.png"",""time"":3408.2000000001863},{""stimulus"":""blank"",""time"":3713.2999999998137},{""stimulus"":""https://ziweizhang0304.github.io/Stats_learning_trig/img/Stim/FN_017_g.png"",""time"":3747.5},{""stimulus"":""blank"",""time"":4054.7999999998137},{""stimulus"":""https://ziweizhang0304.github.io/Stats_learning_trig/img/Stim/FN_006_g.png"",""time"":4088.7999999998137},{""stimulus"":""blank"",""time"":4396.600000000559}]","[{""key_press"":32,""rt"":2439.0999999996275,""stimulus"":""https://ziweizhang0304.github.io/Stats_learning_trig/img/Stim/FN_020_g.png""}]","387.4999999990687","https://ziweizhang0304.github.io/Stats_learning_trig/img/Stim/FN_015_g.png","post_TD","21","2051.600000000559","2439.0999999996275","slow","6","1","62885c14d00376d11632a442","","","","","",""
"","image-keyboard-response","55","235711","0.0-5.0-21.0-0.0","857","","","https://ziweizhang0304.github.io/Stats_learning_trig/img/Stim/FN_019_g.png","13","","","","","","","","","","","","","","","","","",""
"","animation","56","240138","0.0-5.0-21.0-1.0","","","","","","[{""stimulus"":""https://ziweizhang0304.github.io/Stats_learning_trig/img/Stim/FN_022_g.png"",""time"":344},{""stimulus"":""blank"",""time"":653.8999999994412},{""stimulus"":""https://ziweizhang0304.github.io/Stats_learning_trig/img/Stim/FN_026_g.png"",""time"":688.0999999996275},{""stimulus"":""blank"",""time"":1008.3999999994412},{""stimulus"":""https://ziweizhang0304.github.io/Stats_learning_trig/img/Stim/FN_006_g.png"",""time"":1025.8999999994412},{""stimulus"":""blank"",""time"":1328.7999999998137},{""stimulus"":""https://ziweizhang0304.github.io/Stats_learning_trig/img/Stim/FN_025_g.png"",""time"":1362.2000000001863},{""stimulus"":""blank"",""time"":1670.7000000001863},{""stimulus"":""https://ziweizhang0304.github.io/Stats_learning_trig/img/Stim/FN_001_g.png"",""time"":1704},{""stimulus"":""blank"",""time"":2011.2999999998137},{""stimulus"":""https://ziweizhang0304.github.io/Stats_learning_trig/img/Stim/FN_019_g.png"",""time"":2044.7999999998137},{""stimulus"":""blank"",""time"":2345.2000000001863},{""stimulus"":""https://ziweizhang0304.github.io/Stats_learning_trig/img/Stim/FN_005_g.png"",""time"":2387.899999999441},{""stimulus"":""blank"",""time"":2691.2000000001863},{""stimulus"":""https://ziweizhang0304.github.io/Stats_learning_trig/img/Stim/FN_002_g.png"",""time"":2725.7999999998137},{""stimulus"":""blank"",""time"":3029.5},{""stimulus"":""https://ziweizhang0304.github.io/Stats_learning_trig/img/Stim/FN_021_g.png"",""time"":3062.7999999998137},{""stimulus"":""blank"",""time"":3381.399999999441},{""stimulus"":""https://ziweizhang0304.github.io/Stats_learning_trig/img/Stim/FN_017_g.png"",""time"":3404.7999999998137},{""stimulus"":""blank"",""time"":3715.2000000001863},{""stimulus"":""https://ziweizhang0304.github.io/Stats_learning_trig/img/Stim/FN_007_g.png"",""time"":3749.5},{""stimulus"":""blank"",""time"":4055.7999999998137},{""stimulus"":""https://ziweizhang0304.github.io/Stats_learning_trig/img/Stim/FN_004_g.png"",""time"":4089.7999999998137},{""stimulus"":""blank"",""time"":4393.299999999814}]","[{""key_press"":32,""rt"":2436.899999999441,""stimulus"":""https://ziweizhang0304.github.io/Stats_learning_trig/img/Stim/FN_005_g.png""}]","392.09999999962747","https://ziweizhang0304.github.io/Stats_learning_trig/img/Stim/FN_019_g.png","post_TD","22","2044.7999999998137","2436.899999999441","fast","6","3","62885c14d00376d11632a442","","","","","",""
"","image-keyboard-response","57","240905","0.0-5.0-22.0-0.0","763.7999999998137","","","https://ziweizhang0304.github.io/Stats_learning_trig/img/Stim/FN_019_g.png","13","","","","","","","","","","","","","","","","","",""
"","animation","58","245331","0.0-5.0-22.0-1.0","","","","","","[{""stimulus"":""https://ziweizhang0304.github.io/Stats_learning_trig/img/Stim/FN_017_g.png"",""time"":346.90000000037253},{""stimulus"":""blank"",""time"":657.6000000005588},{""stimulus"":""https://ziweizhang0304.github.io/Stats_learning_trig/img/Stim/FN_026_g.png"",""time"":690.4000000003725},{""stimulus"":""blank"",""time"":993.7999999998137},{""stimulus"":""https://ziweizhang0304.github.io/Stats_learning_trig/img/Stim/FN_006_g.png"",""time"":1022.2000000001863},{""stimulus"":""blank"",""time"":1338.6000000005588},{""stimulus"":""https://ziweizhang0304.github.io/Stats_learning_trig/img/Stim/FN_007_g.png"",""time"":1366.7999999998137},{""stimulus"":""blank"",""time"":1673},{""stimulus"":""https://ziweizhang0304.github.io/Stats_learning_trig/img/Stim/FN_005_g.png"",""time"":1706.2000000001863},{""stimulus"":""blank"",""time"":2015.7000000001863},{""stimulus"":""https://ziweizhang0304.github.io/Stats_learning_trig/img/Stim/FN_025_g.png"",""time"":2042.7999999998137},{""stimulus"":""blank"",""time"":2351.7999999998137},{""stimulus"":""https://ziweizhang0304.github.io/Stats_learning_trig/img/Stim/FN_001_g.png"",""time"":2386.4000000003725},{""stimulus"":""blank"",""time"":2701.4000000003725},{""stimulus"":""https://ziweizhang0304.github.io/Stats_learning_trig/img/Stim/FN_019_g.png"",""time"":2724.7999999998137},{""stimulus"":""blank"",""time"":3040.600000000559},{""stimulus"":""https://ziweizhang0304.github.io/Stats_learning_trig/img/Stim/FN_002_g.png"",""time"":3074},{""stimulus"":""blank"",""time"":3375},{""stimulus"":""https://ziweizhang0304.github.io/Stats_learning_trig/img/Stim/FN_021_g.png"",""time"":3409.5},{""stimulus"":""blank"",""time"":3720.100000000559},{""stimulus"":""https://ziweizhang0304.github.io/Stats_learning_trig/img/Stim/FN_022_g.png"",""time"":3744.100000000559},{""stimulus"":""blank"",""time"":4056},{""stimulus"":""https://ziweizhang0304.github.io/Stats_learning_trig/img/Stim/FN_004_g.png"",""time"":4090.4000000003725},{""stimulus"":""blank"",""time"":4391.600000000559}]","[{""key_press"":32,""rt"":2133.2999999998137,""stimulus"":""https://ziweizhang0304.github.io/Stats_learning_trig/img/Stim/FN_025_g.png""}]","NaN","https://ziweizhang0304.github.io/Stats_learning_trig/img/Stim/FN_019_g.png","post_TD","23","2724.7999999998137","","fast","8","3","62885c14d00376d11632a442","","","","","",""
"","image-keyboard-response","59","246084","0.0-5.0-23.0-0.0","750.6000000005588","","","https://ziweizhang0304.github.io/Stats_learning_trig/img/Stim/FN_019_g.png","13","","","","","","","","","","","","","","","","","",""
"","animation","60","250508","0.0-5.0-23.0-1.0","","","","","","[{""stimulus"":""https://ziweizhang0304.github.io/Stats_learning_trig/img/Stim/FN_005_g.png"",""time"":355.29999999981374},{""stimulus"":""blank"",""time"":660.1000000005588},{""stimulus"":""https://ziweizhang0304.github.io/Stats_learning_trig/img/Stim/FN_017_g.png"",""time"":684.1000000005588},{""stimulus"":""blank"",""time"":986.2000000001863},{""stimulus"":""https://ziweizhang0304.github.io/Stats_learning_trig/img/Stim/FN_007_g.png"",""time"":1027.1000000005588},{""stimulus"":""blank"",""time"":1338.6000000005588},{""stimulus"":""https://ziweizhang0304.github.io/Stats_learning_trig/img/Stim/FN_021_g.png"",""time"":1364.1000000005588},{""stimulus"":""blank"",""time"":1678.6000000005588},{""stimulus"":""https://ziweizhang0304.github.io/Stats_learning_trig/img/Stim/FN_025_g.png"",""time"":1702.1000000005588},{""stimulus"":""blank"",""time"":2017.5},{""stimulus"":""https://ziweizhang0304.github.io/Stats_learning_trig/img/Stim/FN_001_g.png"",""time"":2052.100000000559},{""stimulus"":""blank"",""time"":2372.2000000001863},{""stimulus"":""https://ziweizhang0304.github.io/Stats_learning_trig/img/Stim/FN_019_g.png"",""time"":2390.2999999998137},{""stimulus"":""blank"",""time"":2693.7000000001863},{""stimulus"":""https://ziweizhang0304.github.io/Stats_learning_trig/img/Stim/FN_002_g.png"",""time"":2728.2000000001863},{""stimulus"":""blank"",""time"":3043.9000000003725},{""stimulus"":""https://ziweizhang0304.github.io/Stats_learning_trig/img/Stim/FN_026_g.png"",""time"":3067.7000000001863},{""stimulus"":""blank"",""time"":3373.5},{""stimulus"":""https://ziweizhang0304.github.io/Stats_learning_trig/img/Stim/FN_022_g.png"",""time"":3407.9000000003725},{""stimulus"":""blank"",""time"":3711.9000000003725},{""stimulus"":""https://ziweizhang0304.github.io/Stats_learning_trig/img/Stim/FN_006_g.png"",""time"":3746.2999999998137},{""stimulus"":""blank"",""time"":4050.2000000001863},{""stimulus"":""https://ziweizhang0304.github.io/Stats_learning_trig/img/Stim/FN_004_g.png"",""time"":4084.9000000003725},{""stimulus"":""blank"",""time"":4400.100000000559}]","[{""key_press"":32,""rt"":2812,""stimulus"":""https://ziweizhang0304.github.io/Stats_learning_trig/img/Stim/FN_002_g.png""}]","421.70000000018626","https://ziweizhang0304.github.io/Stats_learning_trig/img/Stim/FN_019_g.png","post_TD","24","2390.2999999998137","2812","fast","7","3","62885c14d00376d11632a442","5243e","","","","",""
"","survey-text","61","272926","0.0-6.0","22407","","","","","","","","","","","","","","","","","","{""Q0"":""I just tried my best to concentrate on the screen.""}","","","",""
"","survey-text","62","298344","0.0-7.0","25411","","","","","","","","","","","","","","","","","","{""[object Object]"":""Not really, no. They all seemed to be in a random order.""}","","","",""
"","instructions","63","321204","0.0-8.0","22859.400000000373","","[{""page_index"":0,""viewing_time"":22858.900000000373}]","","","","","","","","","","","","","","","","","","","",""
"","free-sort","64","345643","0.0-9.0","24435.60000000056","","","","","","","","","post_drag","","","","fast","","","","","","[{""src"":""https://ziweizhang0304.github.io/Stats_learning_trig/img/Stim/FN_025_g.png"",""x"":475,""y"":0},{""src"":""https://ziweizhang0304.github.io/Stats_learning_trig/img/Stim/FN_001_g.png"",""x"":-225,""y"":50},{""src"":""https://ziweizhang0304.github.io/Stats_learning_trig/img/Stim/FN_019_g.png"",""x"":475,""y"":50}]","[{""src"":""https://ziweizhang0304.github.io/Stats_learning_trig/img/Stim/FN_025_g.png"",""x"":33,""y"":21},{""src"":""https://ziweizhang0304.github.io/Stats_learning_trig/img/Stim/FN_001_g.png"",""x"":143,""y"":3},{""src"":""https://ziweizhang0304.github.io/Stats_learning_trig/img/Stim/FN_001_g.png"",""x"":128,""y"":10},{""src"":""https://ziweizhang0304.github.io/Stats_learning_trig/img/Stim/FN_019_g.png"",""x"":223,""y"":8}]","[{""src"":""https://ziweizhang0304.github.io/Stats_learning_trig/img/Stim/FN_025_g.png"",""x"":33,""y"":21},{""src"":""https://ziweizhang0304.github.io/Stats_learning_trig/img/Stim/FN_001_g.png"",""x"":128,""y"":10},{""src"":""https://ziweizhang0304.github.io/Stats_learning_trig/img/Stim/FN_019_g.png"",""x"":223,""y"":8}]",""
"","free-sort","65","355110","0.0-10.0","9464.599999999627","","","","","","","","","post_drag","","","","slow","","","","","","[{""src"":""https://ziweizhang0304.github.io/Stats_learning_trig/img/Stim/FN_020_g.png"",""x"":475,""y"":0},{""src"":""https://ziweizhang0304.github.io/Stats_learning_trig/img/Stim/FN_015_g.png"",""x"":-225,""y"":50},{""src"":""https://ziweizhang0304.github.io/Stats_learning_trig/img/Stim/FN_014_g.png"",""x"":475,""y"":50}]","[{""src"":""https://ziweizhang0304.github.io/Stats_learning_trig/img/Stim/FN_020_g.png"",""x"":38,""y"":16},{""src"":""https://ziweizhang0304.github.io/Stats_learning_trig/img/Stim/FN_014_g.png"",""x"":122,""y"":26},{""src"":""https://ziweizhang0304.github.io/Stats_learning_trig/img/Stim/FN_015_g.png"",""x"":200,""y"":21}]","[{""src"":""https://ziweizhang0304.github.io/Stats_learning_trig/img/Stim/FN_020_g.png"",""x"":38,""y"":16},{""src"":""https://ziweizhang0304.github.io/Stats_learning_trig/img/Stim/FN_015_g.png"",""x"":200,""y"":21},{""src"":""https://ziweizhang0304.github.io/Stats_learning_trig/img/Stim/FN_014_g.png"",""x"":122,""y"":26}]",""
"","survey-multi-choice","66","363142","0.0-11.0","8023.0999999996275","","","","","","","","","","","","","","","","62885c14d00376d11632a442","","{""awareness"":""Yes"",""attention_check"":""Press SPACEBAR to a target""}","","","","[0,1]"
