"success","trial_type","trial_index","time_elapsed","internal_node_id","rt","url","view_history","stimulus","key_press","animation_sequence","response","TD_rt","TD_target","test_part","TD_trial_number","onset","offset","attention_state","TD_target_position","TD_within_triplet_counter","participant","yoke_participant","responses","init_locations","moves","final_locations","question_order"
"true","fullscreen","0","3382","0.0-0.0","","","","","","","","","","","","","","","","","","","","","","",""
"","external-html","1","12055","0.0-1.0","8570.299999952316","https://ziweizhang0304.github.io/Stats_learning_trig/content/consent.html","","","","","","","","","","","","","","","","","","","","",""
"","instructions","2","47367","0.0-2.0","35308.800000071526","","[{""page_index"":0,""viewing_time"":16051.400000095367},{""page_index"":1,""viewing_time"":7906.599999904633},{""page_index"":2,""viewing_time"":9590},{""page_index"":3,""viewing_time"":1760.1000000238419}]","","","","","","","","","","","","","","","","","","","",""
"","image-keyboard-response","3","50174","0.0-3.0-0.0-0.0","2806.2000000476837","","","https://ziweizhang0304.github.io/Stats_learning_trig/img/Stim/FN_021_g.png","13","","","","","","","","","","","","","","","","","",""
"","animation","4","54596","0.0-3.0-0.0-1.0","","","","","","[{""stimulus"":""https://ziweizhang0304.github.io/Stats_learning_trig/img/Stim/FN_019_g.png"",""time"":359.89999997615814},{""stimulus"":""blank"",""time"":660.3000000715256},{""stimulus"":""https://ziweizhang0304.github.io/Stats_learning_trig/img/Stim/FN_025_g.png"",""time"":681.3999999761581},{""stimulus"":""blank"",""time"":986.3999999761581},{""stimulus"":""https://ziweizhang0304.github.io/Stats_learning_trig/img/Stim/FN_017_g.png"",""time"":1021.7000000476837},{""stimulus"":""blank"",""time"":1325.3000000715256},{""stimulus"":""https://ziweizhang0304.github.io/Stats_learning_trig/img/Stim/FN_021_g.png"",""time"":1361.3999999761581},{""stimulus"":""blank"",""time"":1664.6000000238419},{""stimulus"":""https://ziweizhang0304.github.io/Stats_learning_trig/img/Stim/FN_005_g.png"",""time"":1712.3000000715256},{""stimulus"":""blank"",""time"":2020.7000000476837},{""stimulus"":""https://ziweizhang0304.github.io/Stats_learning_trig/img/Stim/FN_018_g.png"",""time"":2041.6000000238419},{""stimulus"":""blank"",""time"":2343.899999976158},{""stimulus"":""https://ziweizhang0304.github.io/Stats_learning_trig/img/Stim/FN_013_g.png"",""time"":2382.2000000476837},{""stimulus"":""blank"",""time"":2685.899999976158},{""stimulus"":""https://ziweizhang0304.github.io/Stats_learning_trig/img/Stim/FN_015_g.png"",""time"":2721.899999976158},{""stimulus"":""blank"",""time"":3028.5},{""stimulus"":""https://ziweizhang0304.github.io/Stats_learning_trig/img/Stim/FN_008_g.png"",""time"":3061.8000000715256},{""stimulus"":""blank"",""time"":3373},{""stimulus"":""https://ziweizhang0304.github.io/Stats_learning_trig/img/Stim/FN_003_g.png"",""time"":3401.5},{""stimulus"":""blank"",""time"":3714.399999976158},{""stimulus"":""https://ziweizhang0304.github.io/Stats_learning_trig/img/Stim/FN_024_g.png"",""time"":3742.8000000715256},{""stimulus"":""blank"",""time"":4051.7000000476837},{""stimulus"":""https://ziweizhang0304.github.io/Stats_learning_trig/img/Stim/FN_022_g.png"",""time"":4081.8000000715256},{""stimulus"":""blank"",""time"":4390.800000071526}]","[{""key_press"":32,""rt"":1766.8000000715256,""stimulus"":""https://ziweizhang0304.github.io/Stats_learning_trig/img/Stim/FN_005_g.png""}]","405.40000009536743","https://ziweizhang0304.github.io/Stats_learning_trig/img/Stim/FN_021_g.png","post_prac","","","","","","","","","","","","",""
"","html-keyboard-response","5","65772","0.0-3.0-0.0-2.0","11165.799999952316","","","<p>Your reaction time for this trial was 405.4 ms.</p><p>Remember that you should only press the SPACEBAR when you see the shape presented at the beginning of the trial. </b> </p><p>Press enter to move on.</p>","13","","","","","","","","","","","","","","","","","",""
"","image-keyboard-response","6","68767","0.0-3.0-1.0-0.0","2994.2000000476837","","","https://ziweizhang0304.github.io/Stats_learning_trig/img/Stim/FN_004_g.png","13","","","","","","","","","","","","","","","","","",""
"","animation","7","73190","0.0-3.0-1.0-1.0","","","","","","[{""stimulus"":""https://ziweizhang0304.github.io/Stats_learning_trig/img/Stim/FN_013_g.png"",""time"":348.7999999523163},{""stimulus"":""blank"",""time"":658.6999999284744},{""stimulus"":""https://ziweizhang0304.github.io/Stats_learning_trig/img/Stim/FN_015_g.png"",""time"":681.2999999523163},{""stimulus"":""blank"",""time"":983.3999999761581},{""stimulus"":""https://ziweizhang0304.github.io/Stats_learning_trig/img/Stim/FN_008_g.png"",""time"":1021.3999999761581},{""stimulus"":""blank"",""time"":1322.0999999046326},{""stimulus"":""https://ziweizhang0304.github.io/Stats_learning_trig/img/Stim/FN_019_g.png"",""time"":1366},{""stimulus"":""blank"",""time"":1674.6999999284744},{""stimulus"":""https://ziweizhang0304.github.io/Stats_learning_trig/img/Stim/FN_025_g.png"",""time"":1701.2999999523163},{""stimulus"":""blank"",""time"":2015.8999999761581},{""stimulus"":""https://ziweizhang0304.github.io/Stats_learning_trig/img/Stim/FN_011_g.png"",""time"":2041.5999999046326},{""stimulus"":""blank"",""time"":2352.399999976158},{""stimulus"":""https://ziweizhang0304.github.io/Stats_learning_trig/img/Stim/FN_016_g.png"",""time"":2381.5999999046326},{""stimulus"":""blank"",""time"":2692.5},{""stimulus"":""https://ziweizhang0304.github.io/Stats_learning_trig/img/Stim/FN_004_g.png"",""time"":2721.1999999284744},{""stimulus"":""blank"",""time"":3033.5999999046326},{""stimulus"":""https://ziweizhang0304.github.io/Stats_learning_trig/img/Stim/FN_005_g.png"",""time"":3061.399999976158},{""stimulus"":""blank"",""time"":3372.899999976158},{""stimulus"":""https://ziweizhang0304.github.io/Stats_learning_trig/img/Stim/FN_003_g.png"",""time"":3404.1999999284744},{""stimulus"":""blank"",""time"":3714},{""stimulus"":""https://ziweizhang0304.github.io/Stats_learning_trig/img/Stim/FN_018_g.png"",""time"":3741.7999999523163},{""stimulus"":""blank"",""time"":4054.899999976158},{""stimulus"":""https://ziweizhang0304.github.io/Stats_learning_trig/img/Stim/FN_022_g.png"",""time"":4081.899999976158},{""stimulus"":""blank"",""time"":4395.199999928474}]","[{""key_press"":32,""rt"":3091.9000000953674,""stimulus"":""https://ziweizhang0304.github.io/Stats_learning_trig/img/Stim/FN_005_g.png""}]","370.700000166893","https://ziweizhang0304.github.io/Stats_learning_trig/img/Stim/FN_004_g.png","post_prac","","","","","","","","","","","","",""
"","html-keyboard-response","8","76115","0.0-3.0-1.0-2.0","2904.399999976158","","","<p>Your reaction time for this trial was 370.7 ms.</p><p>Remember that you should only press the SPACEBAR when you see the shape presented at the beginning of the trial. </b> </p><p>Press enter to move on.</p>","13","","","","","","","","","","","","","","","","","",""
"","image-keyboard-response","9","77669","0.0-3.0-2.0-0.0","1552.8999999761581","","","https://ziweizhang0304.github.io/Stats_learning_trig/img/Stim/FN_021_g.png","13","","","","","","","","","","","","","","","","","",""
"","animation","10","82091","0.0-3.0-2.0-1.0","","","","","","[{""stimulus"":""https://ziweizhang0304.github.io/Stats_learning_trig/img/Stim/FN_003_g.png"",""time"":352.8000000715256},{""stimulus"":""blank"",""time"":659.1000000238419},{""stimulus"":""https://ziweizhang0304.github.io/Stats_learning_trig/img/Stim/FN_013_g.png"",""time"":682.1000000238419},{""stimulus"":""blank"",""time"":986.1000000238419},{""stimulus"":""https://ziweizhang0304.github.io/Stats_learning_trig/img/Stim/FN_019_g.png"",""time"":1020.8999999761581},{""stimulus"":""blank"",""time"":1324.3999999761581},{""stimulus"":""https://ziweizhang0304.github.io/Stats_learning_trig/img/Stim/FN_025_g.png"",""time"":1362.2000000476837},{""stimulus"":""blank"",""time"":1665.7000000476837},{""stimulus"":""https://ziweizhang0304.github.io/Stats_learning_trig/img/Stim/FN_017_g.png"",""time"":1700.7000000476837},{""stimulus"":""blank"",""time"":2004.5},{""stimulus"":""https://ziweizhang0304.github.io/Stats_learning_trig/img/Stim/FN_024_g.png"",""time"":2041.1000000238419},{""stimulus"":""blank"",""time"":2342.8000000715256},{""stimulus"":""https://ziweizhang0304.github.io/Stats_learning_trig/img/Stim/FN_021_g.png"",""time"":2381.600000023842},{""stimulus"":""blank"",""time"":2684.899999976158},{""stimulus"":""https://ziweizhang0304.github.io/Stats_learning_trig/img/Stim/FN_005_g.png"",""time"":2722},{""stimulus"":""blank"",""time"":3026.3000000715256},{""stimulus"":""https://ziweizhang0304.github.io/Stats_learning_trig/img/Stim/FN_015_g.png"",""time"":3073.2000000476837},{""stimulus"":""blank"",""time"":3382.5},{""stimulus"":""https://ziweizhang0304.github.io/Stats_learning_trig/img/Stim/FN_008_g.png"",""time"":3401.100000023842},{""stimulus"":""blank"",""time"":3710},{""stimulus"":""https://ziweizhang0304.github.io/Stats_learning_trig/img/Stim/FN_018_g.png"",""time"":3741.2000000476837},{""stimulus"":""blank"",""time"":4053.2000000476837},{""stimulus"":""https://ziweizhang0304.github.io/Stats_learning_trig/img/Stim/FN_022_g.png"",""time"":4081.3000000715256},{""stimulus"":""blank"",""time"":4390.5}]","[{""key_press"":32,""rt"":2762.899999976158,""stimulus"":""https://ziweizhang0304.github.io/Stats_learning_trig/img/Stim/FN_005_g.png""}]","381.2999999523163","https://ziweizhang0304.github.io/Stats_learning_trig/img/Stim/FN_021_g.png","post_prac","","","","","","","","","","","","",""
"","html-keyboard-response","11","84478","0.0-3.0-2.0-2.0","2379.6999999284744","","","<p>Your reaction time for this trial was 381.3 ms.</p><p>Remember that you should only press the SPACEBAR when you see the shape presented at the beginning of the trial. </b> </p><p>Press enter to move on.</p>","13","","","","","","","","","","","","","","","","","",""
"","instructions","12","86062","0.0-4.0","1583.8000000715256","","[{""page_index"":0,""viewing_time"":1583.6000000238419}]","","","","","","","","","","","","","","","","","","","",""
"","image-keyboard-response","13","87764","0.0-5.0-0.0-0.0","1700.9000000953674","","","https://ziweizhang0304.github.io/Stats_learning_trig/img/Stim/FN_004_g.png","13","","","","","","","","","","","","","","","","","",""
"","animation","14","92185","0.0-5.0-0.0-1.0","","","","","","[{""stimulus"":""https://ziweizhang0304.github.io/Stats_learning_trig/img/Stim/FN_013_g.png"",""time"":349.1999999284744},{""stimulus"":""blank"",""time"":659.1999999284744},{""stimulus"":""https://ziweizhang0304.github.io/Stats_learning_trig/img/Stim/FN_015_g.png"",""time"":681.3999999761581},{""stimulus"":""blank"",""time"":986.8999999761581},{""stimulus"":""https://ziweizhang0304.github.io/Stats_learning_trig/img/Stim/FN_008_g.png"",""time"":1022.1999999284744},{""stimulus"":""blank"",""time"":1327.8999999761581},{""stimulus"":""https://ziweizhang0304.github.io/Stats_learning_trig/img/Stim/FN_019_g.png"",""time"":1369.1999999284744},{""stimulus"":""blank"",""time"":1669.8999999761581},{""stimulus"":""https://ziweizhang0304.github.io/Stats_learning_trig/img/Stim/FN_025_g.png"",""time"":1702.5},{""stimulus"":""blank"",""time"":2009.7999999523163},{""stimulus"":""https://ziweizhang0304.github.io/Stats_learning_trig/img/Stim/FN_011_g.png"",""time"":2040.8999999761581},{""stimulus"":""blank"",""time"":2352.5},{""stimulus"":""https://ziweizhang0304.github.io/Stats_learning_trig/img/Stim/FN_016_g.png"",""time"":2381.2999999523163},{""stimulus"":""blank"",""time"":2692.100000023842},{""stimulus"":""https://ziweizhang0304.github.io/Stats_learning_trig/img/Stim/FN_004_g.png"",""time"":2723.1999999284744},{""stimulus"":""blank"",""time"":3031.899999976158},{""stimulus"":""https://ziweizhang0304.github.io/Stats_learning_trig/img/Stim/FN_005_g.png"",""time"":3063.100000023842},{""stimulus"":""blank"",""time"":3369.5},{""stimulus"":""https://ziweizhang0304.github.io/Stats_learning_trig/img/Stim/FN_003_g.png"",""time"":3401.5},{""stimulus"":""blank"",""time"":3711.1999999284744},{""stimulus"":""https://ziweizhang0304.github.io/Stats_learning_trig/img/Stim/FN_018_g.png"",""time"":3743.1999999284744},{""stimulus"":""blank"",""time"":4052.100000023842},{""stimulus"":""https://ziweizhang0304.github.io/Stats_learning_trig/img/Stim/FN_022_g.png"",""time"":4081.7999999523163},{""stimulus"":""blank"",""time"":4391.199999928474}]","[{""key_press"":32,""rt"":3119.899999976158,""stimulus"":""https://ziweizhang0304.github.io/Stats_learning_trig/img/Stim/FN_005_g.png""}]","396.7000000476837","https://ziweizhang0304.github.io/Stats_learning_trig/img/Stim/FN_004_g.png","post_TD","1","2723.1999999284744","3119.899999976158","fast","8","3","5a9998a14eecca0001dd791e","","","","","",""
"","image-keyboard-response","15","93538","0.0-5.0-1.0-0.0","1332.7000000476837","","","https://ziweizhang0304.github.io/Stats_learning_trig/img/Stim/FN_016_g.png","13","","","","","","","","","","","","","","","","","",""
"","animation","16","97960","0.0-5.0-1.0-1.0","","","","","","[{""stimulus"":""https://ziweizhang0304.github.io/Stats_learning_trig/img/Stim/FN_005_g.png"",""time"":341.60000002384186},{""stimulus"":""blank"",""time"":651.3999999761581},{""stimulus"":""https://ziweizhang0304.github.io/Stats_learning_trig/img/Stim/FN_025_g.png"",""time"":682.1000000238419},{""stimulus"":""blank"",""time"":993.7000000476837},{""stimulus"":""https://ziweizhang0304.github.io/Stats_learning_trig/img/Stim/FN_022_g.png"",""time"":1021.3000000715256},{""stimulus"":""blank"",""time"":1336.3000000715256},{""stimulus"":""https://ziweizhang0304.github.io/Stats_learning_trig/img/Stim/FN_008_g.png"",""time"":1360.8999999761581},{""stimulus"":""blank"",""time"":1675.3999999761581},{""stimulus"":""https://ziweizhang0304.github.io/Stats_learning_trig/img/Stim/FN_011_g.png"",""time"":1701.1000000238419},{""stimulus"":""blank"",""time"":2004.2000000476837},{""stimulus"":""https://ziweizhang0304.github.io/Stats_learning_trig/img/Stim/FN_016_g.png"",""time"":2041.7000000476837},{""stimulus"":""blank"",""time"":2347.600000023842},{""stimulus"":""https://ziweizhang0304.github.io/Stats_learning_trig/img/Stim/FN_004_g.png"",""time"":2381},{""stimulus"":""blank"",""time"":2687.2000000476837},{""stimulus"":""https://ziweizhang0304.github.io/Stats_learning_trig/img/Stim/FN_015_g.png"",""time"":2721.7000000476837},{""stimulus"":""blank"",""time"":3029.8000000715256},{""stimulus"":""https://ziweizhang0304.github.io/Stats_learning_trig/img/Stim/FN_003_g.png"",""time"":3071.399999976158},{""stimulus"":""blank"",""time"":3386.100000023842},{""stimulus"":""https://ziweizhang0304.github.io/Stats_learning_trig/img/Stim/FN_013_g.png"",""time"":3401.7000000476837},{""stimulus"":""blank"",""time"":3711},{""stimulus"":""https://ziweizhang0304.github.io/Stats_learning_trig/img/Stim/FN_019_g.png"",""time"":3743.100000023842},{""stimulus"":""blank"",""time"":4050.899999976158},{""stimulus"":""https://ziweizhang0304.github.io/Stats_learning_trig/img/Stim/FN_018_g.png"",""time"":4081.399999976158},{""stimulus"":""blank"",""time"":4389.700000047684}]","[{""key_press"":32,""rt"":1705.7000000476837,""stimulus"":""https://ziweizhang0304.github.io/Stats_learning_trig/img/Stim/FN_011_g.png""}]","NaN","https://ziweizhang0304.github.io/Stats_learning_trig/img/Stim/FN_016_g.png","post_TD","2","2041.7000000476837","","fast","6","2","5a9998a14eecca0001dd791e","","","","","",""
"","image-keyboard-response","17","98987","0.0-5.0-2.0-0.0","1012.2000000476837","","","https://ziweizhang0304.github.io/Stats_learning_trig/img/Stim/FN_024_g.png","13","","","","","","","","","","","","","","","","","",""
"","animation","18","103409","0.0-5.0-2.0-1.0","","","","","","[{""stimulus"":""https://ziweizhang0304.github.io/Stats_learning_trig/img/Stim/FN_019_g.png"",""time"":356.60000002384186},{""stimulus"":""blank"",""time"":665},{""stimulus"":""https://ziweizhang0304.github.io/Stats_learning_trig/img/Stim/FN_003_g.png"",""time"":681.6000000238419},{""stimulus"":""blank"",""time"":989.3999999761581},{""stimulus"":""https://ziweizhang0304.github.io/Stats_learning_trig/img/Stim/FN_025_g.png"",""time"":1020.7999999523163},{""stimulus"":""blank"",""time"":1331},{""stimulus"":""https://ziweizhang0304.github.io/Stats_learning_trig/img/Stim/FN_018_g.png"",""time"":1362},{""stimulus"":""blank"",""time"":1671.6000000238419},{""stimulus"":""https://ziweizhang0304.github.io/Stats_learning_trig/img/Stim/FN_005_g.png"",""time"":1701.6000000238419},{""stimulus"":""blank"",""time"":2011.8999999761581},{""stimulus"":""https://ziweizhang0304.github.io/Stats_learning_trig/img/Stim/FN_017_g.png"",""time"":2042.7000000476837},{""stimulus"":""blank"",""time"":2353.399999976158},{""stimulus"":""https://ziweizhang0304.github.io/Stats_learning_trig/img/Stim/FN_024_g.png"",""time"":2381.100000023842},{""stimulus"":""blank"",""time"":2693.100000023842},{""stimulus"":""https://ziweizhang0304.github.io/Stats_learning_trig/img/Stim/FN_021_g.png"",""time"":2721.5},{""stimulus"":""blank"",""time"":3031.100000023842},{""stimulus"":""https://ziweizhang0304.github.io/Stats_learning_trig/img/Stim/FN_015_g.png"",""time"":3062.5},{""stimulus"":""blank"",""time"":3374.899999976158},{""stimulus"":""https://ziweizhang0304.github.io/Stats_learning_trig/img/Stim/FN_013_g.png"",""time"":3405.5},{""stimulus"":""blank"",""time"":3714.2999999523163},{""stimulus"":""https://ziweizhang0304.github.io/Stats_learning_trig/img/Stim/FN_008_g.png"",""time"":3746.2999999523163},{""stimulus"":""blank"",""time"":4053.2999999523163},{""stimulus"":""https://ziweizhang0304.github.io/Stats_learning_trig/img/Stim/FN_022_g.png"",""time"":4081.7000000476837},{""stimulus"":""blank"",""time"":4392.799999952316}]","[{""key_press"":32,""rt"":2753.1999999284744,""stimulus"":""https://ziweizhang0304.github.io/Stats_learning_trig/img/Stim/FN_021_g.png""}]","372.09999990463257","https://ziweizhang0304.github.io/Stats_learning_trig/img/Stim/FN_024_g.png","post_TD","3","2381.100000023842","2753.1999999284744","slow","7","2","5a9998a14eecca0001dd791e","","","","","",""
"","image-keyboard-response","19","104901","0.0-5.0-3.0-0.0","1485.5","","","https://ziweizhang0304.github.io/Stats_learning_trig/img/Stim/FN_024_g.png","13","","","","","","","","","","","","","","","","","",""
"","animation","20","109323","0.0-5.0-3.0-1.0","","","","","","[{""stimulus"":""https://ziweizhang0304.github.io/Stats_learning_trig/img/Stim/FN_018_g.png"",""time"":355.7000000476837},{""stimulus"":""blank"",""time"":663.3999999761581},{""stimulus"":""https://ziweizhang0304.github.io/Stats_learning_trig/img/Stim/FN_013_g.png"",""time"":681.2000000476837},{""stimulus"":""blank"",""time"":988.7000000476837},{""stimulus"":""https://ziweizhang0304.github.io/Stats_learning_trig/img/Stim/FN_022_g.png"",""time"":1021.3000000715256},{""stimulus"":""blank"",""time"":1327.3999999761581},{""stimulus"":""https://ziweizhang0304.github.io/Stats_learning_trig/img/Stim/FN_003_g.png"",""time"":1360.8999999761581},{""stimulus"":""blank"",""time"":1672.2000000476837},{""stimulus"":""https://ziweizhang0304.github.io/Stats_learning_trig/img/Stim/FN_005_g.png"",""time"":1701.1000000238419},{""stimulus"":""blank"",""time"":2014.3999999761581},{""stimulus"":""https://ziweizhang0304.github.io/Stats_learning_trig/img/Stim/FN_019_g.png"",""time"":2041.1000000238419},{""stimulus"":""blank"",""time"":2342.100000023842},{""stimulus"":""https://ziweizhang0304.github.io/Stats_learning_trig/img/Stim/FN_017_g.png"",""time"":2381.899999976158},{""stimulus"":""blank"",""time"":2686.100000023842},{""stimulus"":""https://ziweizhang0304.github.io/Stats_learning_trig/img/Stim/FN_024_g.png"",""time"":2732.2000000476837},{""stimulus"":""blank"",""time"":3042},{""stimulus"":""https://ziweizhang0304.github.io/Stats_learning_trig/img/Stim/FN_021_g.png"",""time"":3061.600000023842},{""stimulus"":""blank"",""time"":3364.399999976158},{""stimulus"":""https://ziweizhang0304.github.io/Stats_learning_trig/img/Stim/FN_015_g.png"",""time"":3401.899999976158},{""stimulus"":""blank"",""time"":3704.8000000715256},{""stimulus"":""https://ziweizhang0304.github.io/Stats_learning_trig/img/Stim/FN_025_g.png"",""time"":3751.7000000476837},{""stimulus"":""blank"",""time"":4060.7000000476837},{""stimulus"":""https://ziweizhang0304.github.io/Stats_learning_trig/img/Stim/FN_008_g.png"",""time"":4082.600000023842},{""stimulus"":""blank"",""time"":4383.200000047684}]","[{""key_press"":32,""rt"":3102.7999999523163,""stimulus"":""https://ziweizhang0304.github.io/Stats_learning_trig/img/Stim/FN_021_g.png""}]","370.59999990463257","https://ziweizhang0304.github.io/Stats_learning_trig/img/Stim/FN_024_g.png","post_TD","4","2732.2000000476837","3102.7999999523163","slow","8","2","5a9998a14eecca0001dd791e","","","","","",""
"","image-keyboard-response","21","112716","0.0-5.0-4.0-0.0","3371.5","","","https://ziweizhang0304.github.io/Stats_learning_trig/img/Stim/FN_016_g.png","13","","","","","","","","","","","","","","","","","",""
"","animation","22","117137","0.0-5.0-4.0-1.0","","","","","","[{""stimulus"":""https://ziweizhang0304.github.io/Stats_learning_trig/img/Stim/FN_019_g.png"",""time"":349.7999999523163},{""stimulus"":""blank"",""time"":660},{""stimulus"":""https://ziweizhang0304.github.io/Stats_learning_trig/img/Stim/FN_005_g.png"",""time"":681.3999999761581},{""stimulus"":""blank"",""time"":984.1999999284744},{""stimulus"":""https://ziweizhang0304.github.io/Stats_learning_trig/img/Stim/FN_022_g.png"",""time"":1021.3999999761581},{""stimulus"":""blank"",""time"":1326.8999999761581},{""stimulus"":""https://ziweizhang0304.github.io/Stats_learning_trig/img/Stim/FN_003_g.png"",""time"":1373.1999999284744},{""stimulus"":""blank"",""time"":1681.7999999523163},{""stimulus"":""https://ziweizhang0304.github.io/Stats_learning_trig/img/Stim/FN_008_g.png"",""time"":1701.8999999761581},{""stimulus"":""blank"",""time"":2010.3999999761581},{""stimulus"":""https://ziweizhang0304.github.io/Stats_learning_trig/img/Stim/FN_015_g.png"",""time"":2040.7999999523163},{""stimulus"":""blank"",""time"":2351},{""stimulus"":""https://ziweizhang0304.github.io/Stats_learning_trig/img/Stim/FN_011_g.png"",""time"":2382.0999999046326},{""stimulus"":""blank"",""time"":2689.899999976158},{""stimulus"":""https://ziweizhang0304.github.io/Stats_learning_trig/img/Stim/FN_016_g.png"",""time"":2721.899999976158},{""stimulus"":""blank"",""time"":3032.2999999523163},{""stimulus"":""https://ziweizhang0304.github.io/Stats_learning_trig/img/Stim/FN_004_g.png"",""time"":3062},{""stimulus"":""blank"",""time"":3375.5999999046326},{""stimulus"":""https://ziweizhang0304.github.io/Stats_learning_trig/img/Stim/FN_025_g.png"",""time"":3405.6999999284744},{""stimulus"":""blank"",""time"":3717.1999999284744},{""stimulus"":""https://ziweizhang0304.github.io/Stats_learning_trig/img/Stim/FN_013_g.png"",""time"":3741.5},{""stimulus"":""blank"",""time"":4056.5},{""stimulus"":""https://ziweizhang0304.github.io/Stats_learning_trig/img/Stim/FN_018_g.png"",""time"":4081.899999976158},{""stimulus"":""blank"",""time"":4397.5}]","[{""key_press"":32,""rt"":3084.399999976158,""stimulus"":""https://ziweizhang0304.github.io/Stats_learning_trig/img/Stim/FN_004_g.png""}]","362.5","https://ziweizhang0304.github.io/Stats_learning_trig/img/Stim/FN_016_g.png","post_TD","5","2721.899999976158","3084.399999976158","fast","8","2","5a9998a14eecca0001dd791e","","","","","",""
"","image-keyboard-response","23","118404","0.0-5.0-5.0-0.0","1259.2999999523163","","","https://ziweizhang0304.github.io/Stats_learning_trig/img/Stim/FN_017_g.png","13","","","","","","","","","","","","","","","","","",""
"","animation","24","122835","0.0-5.0-5.0-1.0","","","","","","[{""stimulus"":""https://ziweizhang0304.github.io/Stats_learning_trig/img/Stim/FN_025_g.png"",""time"":355},{""stimulus"":""blank"",""time"":664.1999999284744},{""stimulus"":""https://ziweizhang0304.github.io/Stats_learning_trig/img/Stim/FN_008_g.png"",""time"":681.1999999284744},{""stimulus"":""blank"",""time"":986.7999999523163},{""stimulus"":""https://ziweizhang0304.github.io/Stats_learning_trig/img/Stim/FN_005_g.png"",""time"":1021.1999999284744},{""stimulus"":""blank"",""time"":1330.2999999523163},{""stimulus"":""https://ziweizhang0304.github.io/Stats_learning_trig/img/Stim/FN_017_g.png"",""time"":1361.0999999046326},{""stimulus"":""blank"",""time"":1668.8999999761581},{""stimulus"":""https://ziweizhang0304.github.io/Stats_learning_trig/img/Stim/FN_024_g.png"",""time"":1702},{""stimulus"":""blank"",""time"":2007.5},{""stimulus"":""https://ziweizhang0304.github.io/Stats_learning_trig/img/Stim/FN_021_g.png"",""time"":2041.0999999046326},{""stimulus"":""blank"",""time"":2346.7999999523163},{""stimulus"":""https://ziweizhang0304.github.io/Stats_learning_trig/img/Stim/FN_015_g.png"",""time"":2384.5999999046326},{""stimulus"":""blank"",""time"":2685},{""stimulus"":""https://ziweizhang0304.github.io/Stats_learning_trig/img/Stim/FN_003_g.png"",""time"":2730.7999999523163},{""stimulus"":""blank"",""time"":3041.0999999046326},{""stimulus"":""https://ziweizhang0304.github.io/Stats_learning_trig/img/Stim/FN_013_g.png"",""time"":3061.7999999523163},{""stimulus"":""blank"",""time"":3366.5999999046326},{""stimulus"":""https://ziweizhang0304.github.io/Stats_learning_trig/img/Stim/FN_019_g.png"",""time"":3401.2999999523163},{""stimulus"":""blank"",""time"":3704.899999976158},{""stimulus"":""https://ziweizhang0304.github.io/Stats_learning_trig/img/Stim/FN_018_g.png"",""time"":3751.899999976158},{""stimulus"":""blank"",""time"":4061.6999999284744},{""stimulus"":""https://ziweizhang0304.github.io/Stats_learning_trig/img/Stim/FN_022_g.png"",""time"":4081.1999999284744},{""stimulus"":""blank"",""time"":4383.899999976158}]","[{""key_press"":32,""rt"":1738.8999999761581,""stimulus"":""https://ziweizhang0304.github.io/Stats_learning_trig/img/Stim/FN_024_g.png""}]","377.8000000715256","https://ziweizhang0304.github.io/Stats_learning_trig/img/Stim/FN_017_g.png","post_TD","6","1361.0999999046326","1738.8999999761581","slow","4","1","5a9998a14eecca0001dd791e","","","","","",""
"","image-keyboard-response","25","123941","0.0-5.0-6.0-0.0","1089.6999999284744","","","https://ziweizhang0304.github.io/Stats_learning_trig/img/Stim/FN_021_g.png","13","","","","","","","","","","","","","","","","","",""
"","animation","26","128363","0.0-5.0-6.0-1.0","","","","","","[{""stimulus"":""https://ziweizhang0304.github.io/Stats_learning_trig/img/Stim/FN_019_g.png"",""time"":352.7999999523163},{""stimulus"":""blank"",""time"":663.0999999046326},{""stimulus"":""https://ziweizhang0304.github.io/Stats_learning_trig/img/Stim/FN_003_g.png"",""time"":681.6999999284744},{""stimulus"":""blank"",""time"":986.6999999284744},{""stimulus"":""https://ziweizhang0304.github.io/Stats_learning_trig/img/Stim/FN_025_g.png"",""time"":1021},{""stimulus"":""blank"",""time"":1325.5},{""stimulus"":""https://ziweizhang0304.github.io/Stats_learning_trig/img/Stim/FN_018_g.png"",""time"":1361.1999999284744},{""stimulus"":""blank"",""time"":1665.7999999523163},{""stimulus"":""https://ziweizhang0304.github.io/Stats_learning_trig/img/Stim/FN_005_g.png"",""time"":1712.1999999284744},{""stimulus"":""blank"",""time"":2023.2999999523163},{""stimulus"":""https://ziweizhang0304.github.io/Stats_learning_trig/img/Stim/FN_017_g.png"",""time"":2055.0999999046326},{""stimulus"":""blank"",""time"":2363.1999999284744},{""stimulus"":""https://ziweizhang0304.github.io/Stats_learning_trig/img/Stim/FN_024_g.png"",""time"":2381.899999976158},{""stimulus"":""blank"",""time"":2686.399999976158},{""stimulus"":""https://ziweizhang0304.github.io/Stats_learning_trig/img/Stim/FN_021_g.png"",""time"":2721},{""stimulus"":""blank"",""time"":3023.7999999523163},{""stimulus"":""https://ziweizhang0304.github.io/Stats_learning_trig/img/Stim/FN_015_g.png"",""time"":3070.7999999523163},{""stimulus"":""blank"",""time"":3376.0999999046326},{""stimulus"":""https://ziweizhang0304.github.io/Stats_learning_trig/img/Stim/FN_013_g.png"",""time"":3402.5999999046326},{""stimulus"":""blank"",""time"":3714.5},{""stimulus"":""https://ziweizhang0304.github.io/Stats_learning_trig/img/Stim/FN_008_g.png"",""time"":3742.1999999284744},{""stimulus"":""blank"",""time"":4053.1999999284744},{""stimulus"":""https://ziweizhang0304.github.io/Stats_learning_trig/img/Stim/FN_022_g.png"",""time"":4081.6999999284744},{""stimulus"":""blank"",""time"":4395.199999928474}]","[{""key_press"":32,""rt"":3053.9000000953674,""stimulus"":""blank""}]","332.90000009536743","https://ziweizhang0304.github.io/Stats_learning_trig/img/Stim/FN_021_g.png","post_TD","7","2721","3053.9000000953674","slow","8","3","5a9998a14eecca0001dd791e","","","","","",""
"","image-keyboard-response","27","129178","0.0-5.0-7.0-0.0","803.4000000953674","","","https://ziweizhang0304.github.io/Stats_learning_trig/img/Stim/FN_016_g.png","13","","","","","","","","","","","","","","","","","",""
"","animation","28","133601","0.0-5.0-7.0-1.0","","","","","","[{""stimulus"":""https://ziweizhang0304.github.io/Stats_learning_trig/img/Stim/FN_013_g.png"",""time"":341.7000000476837},{""stimulus"":""blank"",""time"":648.6000000238419},{""stimulus"":""https://ziweizhang0304.github.io/Stats_learning_trig/img/Stim/FN_015_g.png"",""time"":681.2999999523163},{""stimulus"":""blank"",""time"":988.7999999523163},{""stimulus"":""https://ziweizhang0304.github.io/Stats_learning_trig/img/Stim/FN_008_g.png"",""time"":1021.3999999761581},{""stimulus"":""blank"",""time"":1330.7999999523163},{""stimulus"":""https://ziweizhang0304.github.io/Stats_learning_trig/img/Stim/FN_019_g.png"",""time"":1361.7000000476837},{""stimulus"":""blank"",""time"":1670.7000000476837},{""stimulus"":""https://ziweizhang0304.github.io/Stats_learning_trig/img/Stim/FN_025_g.png"",""time"":1701.8999999761581},{""stimulus"":""blank"",""time"":2011.3999999761581},{""stimulus"":""https://ziweizhang0304.github.io/Stats_learning_trig/img/Stim/FN_011_g.png"",""time"":2041.8999999761581},{""stimulus"":""blank"",""time"":2349.5},{""stimulus"":""https://ziweizhang0304.github.io/Stats_learning_trig/img/Stim/FN_016_g.png"",""time"":2381.7999999523163},{""stimulus"":""blank"",""time"":2689.5},{""stimulus"":""https://ziweizhang0304.github.io/Stats_learning_trig/img/Stim/FN_004_g.png"",""time"":2721.100000023842},{""stimulus"":""blank"",""time"":3026.7000000476837},{""stimulus"":""https://ziweizhang0304.github.io/Stats_learning_trig/img/Stim/FN_005_g.png"",""time"":3061.2999999523163},{""stimulus"":""blank"",""time"":3367.5},{""stimulus"":""https://ziweizhang0304.github.io/Stats_learning_trig/img/Stim/FN_003_g.png"",""time"":3401.100000023842},{""stimulus"":""blank"",""time"":3708.399999976158},{""stimulus"":""https://ziweizhang0304.github.io/Stats_learning_trig/img/Stim/FN_018_g.png"",""time"":3741.2000000476837},{""stimulus"":""blank"",""time"":4049.2000000476837},{""stimulus"":""https://ziweizhang0304.github.io/Stats_learning_trig/img/Stim/FN_022_g.png"",""time"":4081.899999976158},{""stimulus"":""blank"",""time"":4391.899999976158}]","[{""key_press"":32,""rt"":2754.5999999046326,""stimulus"":""https://ziweizhang0304.github.io/Stats_learning_trig/img/Stim/FN_004_g.png""}]","372.7999999523163","https://ziweizhang0304.github.io/Stats_learning_trig/img/Stim/FN_016_g.png","post_TD","8","2381.7999999523163","2754.5999999046326","fast","7","2","5a9998a14eecca0001dd791e","","","","","",""
"","image-keyboard-response","29","134588","0.0-5.0-8.0-0.0","968","","","https://ziweizhang0304.github.io/Stats_learning_trig/img/Stim/FN_004_g.png","13","","","","","","","","","","","","","","","","","",""
"","animation","30","139010","0.0-5.0-8.0-1.0","","","","","","[{""stimulus"":""https://ziweizhang0304.github.io/Stats_learning_trig/img/Stim/FN_005_g.png"",""time"":343.2000000476837},{""stimulus"":""blank"",""time"":648.2000000476837},{""stimulus"":""https://ziweizhang0304.github.io/Stats_learning_trig/img/Stim/FN_025_g.png"",""time"":681.3000000715256},{""stimulus"":""blank"",""time"":991.3000000715256},{""stimulus"":""https://ziweizhang0304.github.io/Stats_learning_trig/img/Stim/FN_018_g.png"",""time"":1021.1000000238419},{""stimulus"":""blank"",""time"":1330.5},{""stimulus"":""https://ziweizhang0304.github.io/Stats_learning_trig/img/Stim/FN_011_g.png"",""time"":1361.2000000476837},{""stimulus"":""blank"",""time"":1668.5},{""stimulus"":""https://ziweizhang0304.github.io/Stats_learning_trig/img/Stim/FN_016_g.png"",""time"":1701.1000000238419},{""stimulus"":""blank"",""time"":2009.6000000238419},{""stimulus"":""https://ziweizhang0304.github.io/Stats_learning_trig/img/Stim/FN_004_g.png"",""time"":2041.2000000476837},{""stimulus"":""blank"",""time"":2352.8000000715256},{""stimulus"":""https://ziweizhang0304.github.io/Stats_learning_trig/img/Stim/FN_015_g.png"",""time"":2381.2000000476837},{""stimulus"":""blank"",""time"":2691.9000000953674},{""stimulus"":""https://ziweizhang0304.github.io/Stats_learning_trig/img/Stim/FN_003_g.png"",""time"":2723.100000023842},{""stimulus"":""blank"",""time"":3032.5},{""stimulus"":""https://ziweizhang0304.github.io/Stats_learning_trig/img/Stim/FN_013_g.png"",""time"":3063.7000000476837},{""stimulus"":""blank"",""time"":3372.7000000476837},{""stimulus"":""https://ziweizhang0304.github.io/Stats_learning_trig/img/Stim/FN_008_g.png"",""time"":3401.8000000715256},{""stimulus"":""blank"",""time"":3713.8000000715256},{""stimulus"":""https://ziweizhang0304.github.io/Stats_learning_trig/img/Stim/FN_019_g.png"",""time"":3745.2000000476837},{""stimulus"":""blank"",""time"":4053.8000000715256},{""stimulus"":""https://ziweizhang0304.github.io/Stats_learning_trig/img/Stim/FN_022_g.png"",""time"":4081.3000000715256},{""stimulus"":""blank"",""time"":4393.200000047684}]","[{""key_press"":32,""rt"":2429.600000023842,""stimulus"":""https://ziweizhang0304.github.io/Stats_learning_trig/img/Stim/FN_015_g.png""}]","388.39999997615814","https://ziweizhang0304.github.io/Stats_learning_trig/img/Stim/FN_004_g.png","post_TD","9","2041.2000000476837","2429.600000023842","fast","6","3","5a9998a14eecca0001dd791e","","","","","",""
"","image-keyboard-response","31","139526","0.0-5.0-9.0-0.0","498.10000002384186","","","https://ziweizhang0304.github.io/Stats_learning_trig/img/Stim/FN_024_g.png","13","","","","","","","","","","","","","","","","","",""
"","animation","32","143947","0.0-5.0-9.0-1.0","","","","","","[{""stimulus"":""https://ziweizhang0304.github.io/Stats_learning_trig/img/Stim/FN_025_g.png"",""time"":353.7000000476837},{""stimulus"":""blank"",""time"":663.2000000476837},{""stimulus"":""https://ziweizhang0304.github.io/Stats_learning_trig/img/Stim/FN_008_g.png"",""time"":682.5},{""stimulus"":""blank"",""time"":986.7000000476837},{""stimulus"":""https://ziweizhang0304.github.io/Stats_learning_trig/img/Stim/FN_005_g.png"",""time"":1028.3999999761581},{""stimulus"":""blank"",""time"":1342.8000000715256},{""stimulus"":""https://ziweizhang0304.github.io/Stats_learning_trig/img/Stim/FN_017_g.png"",""time"":1361.7000000476837},{""stimulus"":""blank"",""time"":1668.1000000238419},{""stimulus"":""https://ziweizhang0304.github.io/Stats_learning_trig/img/Stim/FN_024_g.png"",""time"":1715},{""stimulus"":""blank"",""time"":2024.8999999761581},{""stimulus"":""https://ziweizhang0304.github.io/Stats_learning_trig/img/Stim/FN_021_g.png"",""time"":2041.5},{""stimulus"":""blank"",""time"":2347.8000000715256},{""stimulus"":""https://ziweizhang0304.github.io/Stats_learning_trig/img/Stim/FN_015_g.png"",""time"":2394.899999976158},{""stimulus"":""blank"",""time"":2700.600000023842},{""stimulus"":""https://ziweizhang0304.github.io/Stats_learning_trig/img/Stim/FN_003_g.png"",""time"":2721.100000023842},{""stimulus"":""blank"",""time"":3025},{""stimulus"":""https://ziweizhang0304.github.io/Stats_learning_trig/img/Stim/FN_013_g.png"",""time"":3071.5},{""stimulus"":""blank"",""time"":3381.600000023842},{""stimulus"":""https://ziweizhang0304.github.io/Stats_learning_trig/img/Stim/FN_019_g.png"",""time"":3401.3000000715256},{""stimulus"":""blank"",""time"":3705.899999976158},{""stimulus"":""https://ziweizhang0304.github.io/Stats_learning_trig/img/Stim/FN_018_g.png"",""time"":3742.7000000476837},{""stimulus"":""blank"",""time"":4043.600000023842},{""stimulus"":""https://ziweizhang0304.github.io/Stats_learning_trig/img/Stim/FN_022_g.png"",""time"":4081.5},{""stimulus"":""blank"",""time"":4382.899999976158}]","[{""key_press"":32,""rt"":2070.399999976158,""stimulus"":""https://ziweizhang0304.github.io/Stats_learning_trig/img/Stim/FN_021_g.png""}]","355.39999997615814","https://ziweizhang0304.github.io/Stats_learning_trig/img/Stim/FN_024_g.png","post_TD","10","1715","2070.399999976158","slow","5","2","5a9998a14eecca0001dd791e","","","","","",""
"","image-keyboard-response","33","144356","0.0-5.0-10.0-0.0","392.09999990463257","","","https://ziweizhang0304.github.io/Stats_learning_trig/img/Stim/FN_011_g.png","13","","","","","","","","","","","","","","","","","",""
"","animation","34","148777","0.0-5.0-10.0-1.0","","","","","","[{""stimulus"":""https://ziweizhang0304.github.io/Stats_learning_trig/img/Stim/FN_013_g.png"",""time"":345.60000002384186},{""stimulus"":""blank"",""time"":652.3000000715256},{""stimulus"":""https://ziweizhang0304.github.io/Stats_learning_trig/img/Stim/FN_015_g.png"",""time"":681},{""stimulus"":""blank"",""time"":991.2000000476837},{""stimulus"":""https://ziweizhang0304.github.io/Stats_learning_trig/img/Stim/FN_008_g.png"",""time"":1021.3000000715256},{""stimulus"":""blank"",""time"":1328.2000000476837},{""stimulus"":""https://ziweizhang0304.github.io/Stats_learning_trig/img/Stim/FN_019_g.png"",""time"":1375.3999999761581},{""stimulus"":""blank"",""time"":1682.2000000476837},{""stimulus"":""https://ziweizhang0304.github.io/Stats_learning_trig/img/Stim/FN_025_g.png"",""time"":1702},{""stimulus"":""blank"",""time"":2008.8000000715256},{""stimulus"":""https://ziweizhang0304.github.io/Stats_learning_trig/img/Stim/FN_011_g.png"",""time"":2041.6000000238419},{""stimulus"":""blank"",""time"":2350.2000000476837},{""stimulus"":""https://ziweizhang0304.github.io/Stats_learning_trig/img/Stim/FN_016_g.png"",""time"":2382.2000000476837},{""stimulus"":""blank"",""time"":2690.600000023842},{""stimulus"":""https://ziweizhang0304.github.io/Stats_learning_trig/img/Stim/FN_004_g.png"",""time"":2721.3000000715256},{""stimulus"":""blank"",""time"":3032.7000000476837},{""stimulus"":""https://ziweizhang0304.github.io/Stats_learning_trig/img/Stim/FN_005_g.png"",""time"":3061.7000000476837},{""stimulus"":""blank"",""time"":3371.3000000715256},{""stimulus"":""https://ziweizhang0304.github.io/Stats_learning_trig/img/Stim/FN_003_g.png"",""time"":3401},{""stimulus"":""blank"",""time"":3712.100000023842},{""stimulus"":""https://ziweizhang0304.github.io/Stats_learning_trig/img/Stim/FN_018_g.png"",""time"":3741.3000000715256},{""stimulus"":""blank"",""time"":4053.5},{""stimulus"":""https://ziweizhang0304.github.io/Stats_learning_trig/img/Stim/FN_022_g.png"",""time"":4080.8000000715256},{""stimulus"":""blank"",""time"":4391.899999976158}]","[{""key_press"":32,""rt"":2380.899999976158,""stimulus"":""blank""}]","339.2999999523163","https://ziweizhang0304.github.io/Stats_learning_trig/img/Stim/FN_011_g.png","post_TD","11","2041.6000000238419","2380.899999976158","fast","6","1","5a9998a14eecca0001dd791e","","","","","",""
"","image-keyboard-response","35","149547","0.0-5.0-11.0-0.0","753.2000000476837","","","https://ziweizhang0304.github.io/Stats_learning_trig/img/Stim/FN_021_g.png","13","","","","","","","","","","","","","","","","","",""
"","animation","36","153977","0.0-5.0-11.0-1.0","","","","","","[{""stimulus"":""https://ziweizhang0304.github.io/Stats_learning_trig/img/Stim/FN_018_g.png"",""time"":347.89999997615814},{""stimulus"":""blank"",""time"":654.8999999761581},{""stimulus"":""https://ziweizhang0304.github.io/Stats_learning_trig/img/Stim/FN_013_g.png"",""time"":682.6000000238419},{""stimulus"":""blank"",""time"":995.1000000238419},{""stimulus"":""https://ziweizhang0304.github.io/Stats_learning_trig/img/Stim/FN_022_g.png"",""time"":1021.7999999523163},{""stimulus"":""blank"",""time"":1333.6999999284744},{""stimulus"":""https://ziweizhang0304.github.io/Stats_learning_trig/img/Stim/FN_003_g.png"",""time"":1360.8999999761581},{""stimulus"":""blank"",""time"":1674.5},{""stimulus"":""https://ziweizhang0304.github.io/Stats_learning_trig/img/Stim/FN_005_g.png"",""time"":1701.1999999284744},{""stimulus"":""blank"",""time"":2012.5},{""stimulus"":""https://ziweizhang0304.github.io/Stats_learning_trig/img/Stim/FN_019_g.png"",""time"":2041.2999999523163},{""stimulus"":""blank"",""time"":2352.899999976158},{""stimulus"":""https://ziweizhang0304.github.io/Stats_learning_trig/img/Stim/FN_017_g.png"",""time"":2381.5},{""stimulus"":""blank"",""time"":2696.2999999523163},{""stimulus"":""https://ziweizhang0304.github.io/Stats_learning_trig/img/Stim/FN_024_g.png"",""time"":2720.899999976158},{""stimulus"":""blank"",""time"":3036},{""stimulus"":""https://ziweizhang0304.github.io/Stats_learning_trig/img/Stim/FN_021_g.png"",""time"":3062},{""stimulus"":""blank"",""time"":3376.7999999523163},{""stimulus"":""https://ziweizhang0304.github.io/Stats_learning_trig/img/Stim/FN_015_g.png"",""time"":3408.6999999284744},{""stimulus"":""blank"",""time"":3715.899999976158},{""stimulus"":""https://ziweizhang0304.github.io/Stats_learning_trig/img/Stim/FN_025_g.png"",""time"":3741.600000023842},{""stimulus"":""blank"",""time"":4044.2999999523163},{""stimulus"":""https://ziweizhang0304.github.io/Stats_learning_trig/img/Stim/FN_008_g.png"",""time"":4081.1999999284744},{""stimulus"":""blank"",""time"":4382.799999952316}]","[{""key_press"":32,""rt"":3413.7999999523163,""stimulus"":""https://ziweizhang0304.github.io/Stats_learning_trig/img/Stim/FN_015_g.png""}]","351.7999999523163","https://ziweizhang0304.github.io/Stats_learning_trig/img/Stim/FN_021_g.png","post_TD","12","3062","3413.7999999523163","slow","9","3","5a9998a14eecca0001dd791e","","","","","",""
"","image-keyboard-response","37","154706","0.0-5.0-12.0-0.0","712","","","https://ziweizhang0304.github.io/Stats_learning_trig/img/Stim/FN_017_g.png","13","","","","","","","","","","","","","","","","","",""
"","animation","38","159137","0.0-5.0-12.0-1.0","","","","","","[{""stimulus"":""https://ziweizhang0304.github.io/Stats_learning_trig/img/Stim/FN_003_g.png"",""time"":353.90000009536743},{""stimulus"":""blank"",""time"":663},{""stimulus"":""https://ziweizhang0304.github.io/Stats_learning_trig/img/Stim/FN_013_g.png"",""time"":682.3000000715256},{""stimulus"":""blank"",""time"":988.3000000715256},{""stimulus"":""https://ziweizhang0304.github.io/Stats_learning_trig/img/Stim/FN_019_g.png"",""time"":1035.9000000953674},{""stimulus"":""blank"",""time"":1343.2000000476837},{""stimulus"":""https://ziweizhang0304.github.io/Stats_learning_trig/img/Stim/FN_025_g.png"",""time"":1361.6000000238419},{""stimulus"":""blank"",""time"":1666.2000000476837},{""stimulus"":""https://ziweizhang0304.github.io/Stats_learning_trig/img/Stim/FN_017_g.png"",""time"":1711.9000000953674},{""stimulus"":""blank"",""time"":2020.4000000953674},{""stimulus"":""https://ziweizhang0304.github.io/Stats_learning_trig/img/Stim/FN_024_g.png"",""time"":2040.9000000953674},{""stimulus"":""blank"",""time"":2345.7000000476837},{""stimulus"":""https://ziweizhang0304.github.io/Stats_learning_trig/img/Stim/FN_021_g.png"",""time"":2383.100000023842},{""stimulus"":""blank"",""time"":2686.5},{""stimulus"":""https://ziweizhang0304.github.io/Stats_learning_trig/img/Stim/FN_005_g.png"",""time"":2733.100000023842},{""stimulus"":""blank"",""time"":3041.8000000715256},{""stimulus"":""https://ziweizhang0304.github.io/Stats_learning_trig/img/Stim/FN_015_g.png"",""time"":3061.9000000953674},{""stimulus"":""blank"",""time"":3365.7000000476837},{""stimulus"":""https://ziweizhang0304.github.io/Stats_learning_trig/img/Stim/FN_008_g.png"",""time"":3401.2000000476837},{""stimulus"":""blank"",""time"":3708.7000000476837},{""stimulus"":""https://ziweizhang0304.github.io/Stats_learning_trig/img/Stim/FN_018_g.png"",""time"":3741},{""stimulus"":""blank"",""time"":4048.7000000476837},{""stimulus"":""https://ziweizhang0304.github.io/Stats_learning_trig/img/Stim/FN_022_g.png"",""time"":4081.600000023842},{""stimulus"":""blank"",""time"":4388.900000095367}]","[{""key_press"":32,""rt"":2095.7000000476837,""stimulus"":""https://ziweizhang0304.github.io/Stats_learning_trig/img/Stim/FN_024_g.png""}]","383.7999999523163","https://ziweizhang0304.github.io/Stats_learning_trig/img/Stim/FN_017_g.png","post_TD","13","1711.9000000953674","2095.7000000476837","slow","5","1","5a9998a14eecca0001dd791e","","","","","",""
"","image-keyboard-response","39","159489","0.0-5.0-13.0-0.0","332.7000000476837","","","https://ziweizhang0304.github.io/Stats_learning_trig/img/Stim/FN_017_g.png","13","","","","","","","","","","","","","","","","","",""
"","animation","40","163913","0.0-5.0-13.0-1.0","","","","","","[{""stimulus"":""https://ziweizhang0304.github.io/Stats_learning_trig/img/Stim/FN_019_g.png"",""time"":352.5},{""stimulus"":""blank"",""time"":664.9000000953674},{""stimulus"":""https://ziweizhang0304.github.io/Stats_learning_trig/img/Stim/FN_003_g.png"",""time"":681.5},{""stimulus"":""blank"",""time"":992.5},{""stimulus"":""https://ziweizhang0304.github.io/Stats_learning_trig/img/Stim/FN_025_g.png"",""time"":1022.3000000715256},{""stimulus"":""blank"",""time"":1332.5},{""stimulus"":""https://ziweizhang0304.github.io/Stats_learning_trig/img/Stim/FN_018_g.png"",""time"":1361.1000000238419},{""stimulus"":""blank"",""time"":1670.7000000476837},{""stimulus"":""https://ziweizhang0304.github.io/Stats_learning_trig/img/Stim/FN_005_g.png"",""time"":1702.4000000953674},{""stimulus"":""blank"",""time"":2011.4000000953674},{""stimulus"":""https://ziweizhang0304.github.io/Stats_learning_trig/img/Stim/FN_017_g.png"",""time"":2041.4000000953674},{""stimulus"":""blank"",""time"":2350.100000023842},{""stimulus"":""https://ziweizhang0304.github.io/Stats_learning_trig/img/Stim/FN_024_g.png"",""time"":2381.9000000953674},{""stimulus"":""blank"",""time"":2693.2000000476837},{""stimulus"":""https://ziweizhang0304.github.io/Stats_learning_trig/img/Stim/FN_021_g.png"",""time"":2724.4000000953674},{""stimulus"":""blank"",""time"":3035.600000023842},{""stimulus"":""https://ziweizhang0304.github.io/Stats_learning_trig/img/Stim/FN_015_g.png"",""time"":3061.8000000715256},{""stimulus"":""blank"",""time"":3374.8000000715256},{""stimulus"":""https://ziweizhang0304.github.io/Stats_learning_trig/img/Stim/FN_013_g.png"",""time"":3401.7000000476837},{""stimulus"":""blank"",""time"":3711.8000000715256},{""stimulus"":""https://ziweizhang0304.github.io/Stats_learning_trig/img/Stim/FN_008_g.png"",""time"":3741.600000023842},{""stimulus"":""blank"",""time"":4051.2000000476837},{""stimulus"":""https://ziweizhang0304.github.io/Stats_learning_trig/img/Stim/FN_022_g.png"",""time"":4081.5},{""stimulus"":""blank"",""time"":4392.300000071526}]","[{""key_press"":32,""rt"":2450.7999999523163,""stimulus"":""https://ziweizhang0304.github.io/Stats_learning_trig/img/Stim/FN_024_g.png""}]","409.39999985694885","https://ziweizhang0304.github.io/Stats_learning_trig/img/Stim/FN_017_g.png","post_TD","14","2041.4000000953674","2450.7999999523163","slow","6","1","5a9998a14eecca0001dd791e","","","","","",""
"","image-keyboard-response","41","164333","0.0-5.0-14.0-0.0","402.2999999523163","","","https://ziweizhang0304.github.io/Stats_learning_trig/img/Stim/FN_024_g.png","13","","","","","","","","","","","","","","","","","",""
"","animation","42","168755","0.0-5.0-14.0-1.0","","","","","","[{""stimulus"":""https://ziweizhang0304.github.io/Stats_learning_trig/img/Stim/FN_003_g.png"",""time"":352.10000002384186},{""stimulus"":""blank"",""time"":659.7999999523163},{""stimulus"":""https://ziweizhang0304.github.io/Stats_learning_trig/img/Stim/FN_013_g.png"",""time"":682.1000000238419},{""stimulus"":""blank"",""time"":996.2999999523163},{""stimulus"":""https://ziweizhang0304.github.io/Stats_learning_trig/img/Stim/FN_019_g.png"",""time"":1028.3999999761581},{""stimulus"":""blank"",""time"":1339.2000000476837},{""stimulus"":""https://ziweizhang0304.github.io/Stats_learning_trig/img/Stim/FN_025_g.png"",""time"":1361.7000000476837},{""stimulus"":""blank"",""time"":1677.3999999761581},{""stimulus"":""https://ziweizhang0304.github.io/Stats_learning_trig/img/Stim/FN_017_g.png"",""time"":1701},{""stimulus"":""blank"",""time"":2002.7000000476837},{""stimulus"":""https://ziweizhang0304.github.io/Stats_learning_trig/img/Stim/FN_024_g.png"",""time"":2049.5},{""stimulus"":""blank"",""time"":2358.100000023842},{""stimulus"":""https://ziweizhang0304.github.io/Stats_learning_trig/img/Stim/FN_021_g.png"",""time"":2381.7000000476837},{""stimulus"":""blank"",""time"":2682.600000023842},{""stimulus"":""https://ziweizhang0304.github.io/Stats_learning_trig/img/Stim/FN_005_g.png"",""time"":2721.5},{""stimulus"":""blank"",""time"":3039.2000000476837},{""stimulus"":""https://ziweizhang0304.github.io/Stats_learning_trig/img/Stim/FN_015_g.png"",""time"":3060.5},{""stimulus"":""blank"",""time"":3361.5},{""stimulus"":""https://ziweizhang0304.github.io/Stats_learning_trig/img/Stim/FN_008_g.png"",""time"":3401.100000023842},{""stimulus"":""blank"",""time"":3701.5},{""stimulus"":""https://ziweizhang0304.github.io/Stats_learning_trig/img/Stim/FN_018_g.png"",""time"":3741.2000000476837},{""stimulus"":""blank"",""time"":4056.100000023842},{""stimulus"":""https://ziweizhang0304.github.io/Stats_learning_trig/img/Stim/FN_022_g.png"",""time"":4082.100000023842},{""stimulus"":""blank"",""time"":4396}]","[{""key_press"":32,""rt"":2422.1999999284744,""stimulus"":""https://ziweizhang0304.github.io/Stats_learning_trig/img/Stim/FN_021_g.png""}]","372.6999999284744","https://ziweizhang0304.github.io/Stats_learning_trig/img/Stim/FN_024_g.png","post_TD","15","2049.5","2422.1999999284744","slow","6","2","5a9998a14eecca0001dd791e","","","","","",""
"","image-keyboard-response","43","169260","0.0-5.0-15.0-0.0","486.1999999284744","","","https://ziweizhang0304.github.io/Stats_learning_trig/img/Stim/FN_004_g.png","13","","","","","","","","","","","","","","","","","",""
"","animation","44","173680","0.0-5.0-15.0-1.0","","","","","","[{""stimulus"":""https://ziweizhang0304.github.io/Stats_learning_trig/img/Stim/FN_019_g.png"",""time"":356},{""stimulus"":""blank"",""time"":666.3999999761581},{""stimulus"":""https://ziweizhang0304.github.io/Stats_learning_trig/img/Stim/FN_005_g.png"",""time"":683.2999999523163},{""stimulus"":""blank"",""time"":990},{""stimulus"":""https://ziweizhang0304.github.io/Stats_learning_trig/img/Stim/FN_022_g.png"",""time"":1021.1999999284744},{""stimulus"":""blank"",""time"":1330},{""stimulus"":""https://ziweizhang0304.github.io/Stats_learning_trig/img/Stim/FN_003_g.png"",""time"":1361.5999999046326},{""stimulus"":""blank"",""time"":1666.8999999761581},{""stimulus"":""https://ziweizhang0304.github.io/Stats_learning_trig/img/Stim/FN_008_g.png"",""time"":1713.6999999284744},{""stimulus"":""blank"",""time"":2021.8999999761581},{""stimulus"":""https://ziweizhang0304.github.io/Stats_learning_trig/img/Stim/FN_015_g.png"",""time"":2041.2999999523163},{""stimulus"":""blank"",""time"":2350.899999976158},{""stimulus"":""https://ziweizhang0304.github.io/Stats_learning_trig/img/Stim/FN_011_g.png"",""time"":2382.5},{""stimulus"":""blank"",""time"":2690.2999999523163},{""stimulus"":""https://ziweizhang0304.github.io/Stats_learning_trig/img/Stim/FN_016_g.png"",""time"":2722},{""stimulus"":""blank"",""time"":3031.5999999046326},{""stimulus"":""https://ziweizhang0304.github.io/Stats_learning_trig/img/Stim/FN_004_g.png"",""time"":3061.0999999046326},{""stimulus"":""blank"",""time"":3370.6999999284744},{""stimulus"":""https://ziweizhang0304.github.io/Stats_learning_trig/img/Stim/FN_025_g.png"",""time"":3401.899999976158},{""stimulus"":""blank"",""time"":3709.5},{""stimulus"":""https://ziweizhang0304.github.io/Stats_learning_trig/img/Stim/FN_013_g.png"",""time"":3748.1999999284744},{""stimulus"":""blank"",""time"":4048.5999999046326},{""stimulus"":""https://ziweizhang0304.github.io/Stats_learning_trig/img/Stim/FN_018_g.png"",""time"":4082.399999976158},{""stimulus"":""blank"",""time"":4388.799999952316}]","[{""key_press"":32,""rt"":3481.3000000715256,""stimulus"":""https://ziweizhang0304.github.io/Stats_learning_trig/img/Stim/FN_025_g.png""}]","420.200000166893","https://ziweizhang0304.github.io/Stats_learning_trig/img/Stim/FN_004_g.png","post_TD","16","3061.0999999046326","3481.3000000715256","fast","9","3","5a9998a14eecca0001dd791e","","","","","",""
"","image-keyboard-response","45","174366","0.0-5.0-16.0-0.0","666.1999999284744","","","https://ziweizhang0304.github.io/Stats_learning_trig/img/Stim/FN_017_g.png","13","","","","","","","","","","","","","","","","","",""
"","animation","46","178797","0.0-5.0-16.0-1.0","","","","","","[{""stimulus"":""https://ziweizhang0304.github.io/Stats_learning_trig/img/Stim/FN_018_g.png"",""time"":354.5},{""stimulus"":""blank"",""time"":661.2000000476837},{""stimulus"":""https://ziweizhang0304.github.io/Stats_learning_trig/img/Stim/FN_013_g.png"",""time"":681.8000000715256},{""stimulus"":""blank"",""time"":983},{""stimulus"":""https://ziweizhang0304.github.io/Stats_learning_trig/img/Stim/FN_022_g.png"",""time"":1023.1000000238419},{""stimulus"":""blank"",""time"":1325.7000000476837},{""stimulus"":""https://ziweizhang0304.github.io/Stats_learning_trig/img/Stim/FN_003_g.png"",""time"":1372.9000000953674},{""stimulus"":""blank"",""time"":1680.5},{""stimulus"":""https://ziweizhang0304.github.io/Stats_learning_trig/img/Stim/FN_005_g.png"",""time"":1701.7000000476837},{""stimulus"":""blank"",""time"":2004.9000000953674},{""stimulus"":""https://ziweizhang0304.github.io/Stats_learning_trig/img/Stim/FN_019_g.png"",""time"":2051},{""stimulus"":""blank"",""time"":2359.9000000953674},{""stimulus"":""https://ziweizhang0304.github.io/Stats_learning_trig/img/Stim/FN_017_g.png"",""time"":2381.5},{""stimulus"":""blank"",""time"":2682.8000000715256},{""stimulus"":""https://ziweizhang0304.github.io/Stats_learning_trig/img/Stim/FN_024_g.png"",""time"":2721.100000023842},{""stimulus"":""blank"",""time"":3023.4000000953674},{""stimulus"":""https://ziweizhang0304.github.io/Stats_learning_trig/img/Stim/FN_021_g.png"",""time"":3068.4000000953674},{""stimulus"":""blank"",""time"":3378},{""stimulus"":""https://ziweizhang0304.github.io/Stats_learning_trig/img/Stim/FN_015_g.png"",""time"":3401.5},{""stimulus"":""blank"",""time"":3702.9000000953674},{""stimulus"":""https://ziweizhang0304.github.io/Stats_learning_trig/img/Stim/FN_025_g.png"",""time"":3741.4000000953674},{""stimulus"":""blank"",""time"":4043},{""stimulus"":""https://ziweizhang0304.github.io/Stats_learning_trig/img/Stim/FN_008_g.png"",""time"":4080.9000000953674},{""stimulus"":""blank"",""time"":4384.300000071526}]","[{""key_press"":32,""rt"":2776.399999976158,""stimulus"":""https://ziweizhang0304.github.io/Stats_learning_trig/img/Stim/FN_024_g.png""}]","394.89999997615814","https://ziweizhang0304.github.io/Stats_learning_trig/img/Stim/FN_017_g.png","post_TD","17","2381.5","2776.399999976158","slow","7","1","5a9998a14eecca0001dd791e","","","","","",""
"","image-keyboard-response","47","179175","0.0-5.0-17.0-0.0","360.10000002384186","","","https://ziweizhang0304.github.io/Stats_learning_trig/img/Stim/FN_011_g.png","13","","","","","","","","","","","","","","","","","",""
"","animation","48","183610","0.0-5.0-17.0-1.0","","","","","","[{""stimulus"":""https://ziweizhang0304.github.io/Stats_learning_trig/img/Stim/FN_019_g.png"",""time"":348.8000000715256},{""stimulus"":""blank"",""time"":658},{""stimulus"":""https://ziweizhang0304.github.io/Stats_learning_trig/img/Stim/FN_005_g.png"",""time"":681.3000000715256},{""stimulus"":""blank"",""time"":981.8000000715256},{""stimulus"":""https://ziweizhang0304.github.io/Stats_learning_trig/img/Stim/FN_022_g.png"",""time"":1028.2000000476837},{""stimulus"":""blank"",""time"":1336.2000000476837},{""stimulus"":""https://ziweizhang0304.github.io/Stats_learning_trig/img/Stim/FN_003_g.png"",""time"":1362.1000000238419},{""stimulus"":""blank"",""time"":1662.5},{""stimulus"":""https://ziweizhang0304.github.io/Stats_learning_trig/img/Stim/FN_008_g.png"",""time"":1710.9000000953674},{""stimulus"":""blank"",""time"":2017.1000000238419},{""stimulus"":""https://ziweizhang0304.github.io/Stats_learning_trig/img/Stim/FN_015_g.png"",""time"":2042.5},{""stimulus"":""blank"",""time"":2358.2000000476837},{""stimulus"":""https://ziweizhang0304.github.io/Stats_learning_trig/img/Stim/FN_011_g.png"",""time"":2381.8000000715256},{""stimulus"":""blank"",""time"":2682.9000000953674},{""stimulus"":""https://ziweizhang0304.github.io/Stats_learning_trig/img/Stim/FN_016_g.png"",""time"":2721.8000000715256},{""stimulus"":""blank"",""time"":3024.5},{""stimulus"":""https://ziweizhang0304.github.io/Stats_learning_trig/img/Stim/FN_004_g.png"",""time"":3071.5},{""stimulus"":""blank"",""time"":3381.2000000476837},{""stimulus"":""https://ziweizhang0304.github.io/Stats_learning_trig/img/Stim/FN_025_g.png"",""time"":3402.2000000476837},{""stimulus"":""blank"",""time"":3705.5},{""stimulus"":""https://ziweizhang0304.github.io/Stats_learning_trig/img/Stim/FN_013_g.png"",""time"":3742.5},{""stimulus"":""blank"",""time"":4047.3000000715256},{""stimulus"":""https://ziweizhang0304.github.io/Stats_learning_trig/img/Stim/FN_018_g.png"",""time"":4081.100000023842},{""stimulus"":""blank"",""time"":4387.600000023842}]","[{""key_press"":32,""rt"":2724.5,""stimulus"":""https://ziweizhang0304.github.io/Stats_learning_trig/img/Stim/FN_016_g.png""}]","342.6999999284744","https://ziweizhang0304.github.io/Stats_learning_trig/img/Stim/FN_011_g.png","post_TD","18","2381.8000000715256","2724.5","fast","7","1","5a9998a14eecca0001dd791e","","","","","",""
"","image-keyboard-response","49","183971","0.0-5.0-18.0-0.0","342.39999997615814","","","https://ziweizhang0304.github.io/Stats_learning_trig/img/Stim/FN_011_g.png","13","","","","","","","","","","","","","","","","","",""
"","animation","50","188393","0.0-5.0-18.0-1.0","","","","","","[{""stimulus"":""https://ziweizhang0304.github.io/Stats_learning_trig/img/Stim/FN_005_g.png"",""time"":350.89999997615814},{""stimulus"":""blank"",""time"":659.5},{""stimulus"":""https://ziweizhang0304.github.io/Stats_learning_trig/img/Stim/FN_025_g.png"",""time"":681.8999999761581},{""stimulus"":""blank"",""time"":984.1999999284744},{""stimulus"":""https://ziweizhang0304.github.io/Stats_learning_trig/img/Stim/FN_022_g.png"",""time"":1021.5999999046326},{""stimulus"":""blank"",""time"":1323.7999999523163},{""stimulus"":""https://ziweizhang0304.github.io/Stats_learning_trig/img/Stim/FN_008_g.png"",""time"":1361.5999999046326},{""stimulus"":""blank"",""time"":1664.8999999761581},{""stimulus"":""https://ziweizhang0304.github.io/Stats_learning_trig/img/Stim/FN_011_g.png"",""time"":1711.3999999761581},{""stimulus"":""blank"",""time"":2020.0999999046326},{""stimulus"":""https://ziweizhang0304.github.io/Stats_learning_trig/img/Stim/FN_016_g.png"",""time"":2042.5},{""stimulus"":""blank"",""time"":2344.399999976158},{""stimulus"":""https://ziweizhang0304.github.io/Stats_learning_trig/img/Stim/FN_004_g.png"",""time"":2381.2999999523163},{""stimulus"":""blank"",""time"":2683.899999976158},{""stimulus"":""https://ziweizhang0304.github.io/Stats_learning_trig/img/Stim/FN_015_g.png"",""time"":2721.7999999523163},{""stimulus"":""blank"",""time"":3023.0999999046326},{""stimulus"":""https://ziweizhang0304.github.io/Stats_learning_trig/img/Stim/FN_003_g.png"",""time"":3061},{""stimulus"":""blank"",""time"":3362.899999976158},{""stimulus"":""https://ziweizhang0304.github.io/Stats_learning_trig/img/Stim/FN_013_g.png"",""time"":3409.7999999523163},{""stimulus"":""blank"",""time"":3717},{""stimulus"":""https://ziweizhang0304.github.io/Stats_learning_trig/img/Stim/FN_019_g.png"",""time"":3748.899999976158},{""stimulus"":""blank"",""time"":4057.899999976158},{""stimulus"":""https://ziweizhang0304.github.io/Stats_learning_trig/img/Stim/FN_018_g.png"",""time"":4081.5999999046326},{""stimulus"":""blank"",""time"":4397}]","[{""key_press"":32,""rt"":2093.7000000476837,""stimulus"":""https://ziweizhang0304.github.io/Stats_learning_trig/img/Stim/FN_016_g.png""}]","382.3000000715256","https://ziweizhang0304.github.io/Stats_learning_trig/img/Stim/FN_011_g.png","post_TD","19","1711.3999999761581","2093.7000000476837","fast","5","1","5a9998a14eecca0001dd791e","","","","","",""
"","image-keyboard-response","51","188766","0.0-5.0-19.0-0.0","355.7999999523163","","","https://ziweizhang0304.github.io/Stats_learning_trig/img/Stim/FN_004_g.png","13","","","","","","","","","","","","","","","","","",""
"","animation","52","193187","0.0-5.0-19.0-1.0","","","","","","[{""stimulus"":""https://ziweizhang0304.github.io/Stats_learning_trig/img/Stim/FN_005_g.png"",""time"":352.1999999284744},{""stimulus"":""blank"",""time"":667.6000000238419},{""stimulus"":""https://ziweizhang0304.github.io/Stats_learning_trig/img/Stim/FN_025_g.png"",""time"":681.8999999761581},{""stimulus"":""blank"",""time"":995.6000000238419},{""stimulus"":""https://ziweizhang0304.github.io/Stats_learning_trig/img/Stim/FN_022_g.png"",""time"":1021.3999999761581},{""stimulus"":""blank"",""time"":1335.6000000238419},{""stimulus"":""https://ziweizhang0304.github.io/Stats_learning_trig/img/Stim/FN_008_g.png"",""time"":1361.5},{""stimulus"":""blank"",""time"":1677.1000000238419},{""stimulus"":""https://ziweizhang0304.github.io/Stats_learning_trig/img/Stim/FN_011_g.png"",""time"":1701.7999999523163},{""stimulus"":""blank"",""time"":2002.5},{""stimulus"":""https://ziweizhang0304.github.io/Stats_learning_trig/img/Stim/FN_016_g.png"",""time"":2041.8999999761581},{""stimulus"":""blank"",""time"":2356.399999976158},{""stimulus"":""https://ziweizhang0304.github.io/Stats_learning_trig/img/Stim/FN_004_g.png"",""time"":2381},{""stimulus"":""blank"",""time"":2683.6999999284744},{""stimulus"":""https://ziweizhang0304.github.io/Stats_learning_trig/img/Stim/FN_015_g.png"",""time"":2730.1999999284744},{""stimulus"":""blank"",""time"":3042.7999999523163},{""stimulus"":""https://ziweizhang0304.github.io/Stats_learning_trig/img/Stim/FN_003_g.png"",""time"":3062.1999999284744},{""stimulus"":""blank"",""time"":3367.7999999523163},{""stimulus"":""https://ziweizhang0304.github.io/Stats_learning_trig/img/Stim/FN_013_g.png"",""time"":3401.1999999284744},{""stimulus"":""blank"",""time"":3707.100000023842},{""stimulus"":""https://ziweizhang0304.github.io/Stats_learning_trig/img/Stim/FN_019_g.png"",""time"":3741.2999999523163},{""stimulus"":""blank"",""time"":4045.399999976158},{""stimulus"":""https://ziweizhang0304.github.io/Stats_learning_trig/img/Stim/FN_018_g.png"",""time"":4092.600000023842},{""stimulus"":""blank"",""time"":4400.299999952316}]","[{""key_press"":32,""rt"":2743.1999999284744,""stimulus"":""https://ziweizhang0304.github.io/Stats_learning_trig/img/Stim/FN_015_g.png""}]","362.1999999284744","https://ziweizhang0304.github.io/Stats_learning_trig/img/Stim/FN_004_g.png","post_TD","20","2381","2743.1999999284744","fast","7","3","5a9998a14eecca0001dd791e","","","","","",""
"","image-keyboard-response","53","193827","0.0-5.0-20.0-0.0","620.2000000476837","","","https://ziweizhang0304.github.io/Stats_learning_trig/img/Stim/FN_011_g.png","13","","","","","","","","","","","","","","","","","",""
"","animation","54","198250","0.0-5.0-20.0-1.0","","","","","","[{""stimulus"":""https://ziweizhang0304.github.io/Stats_learning_trig/img/Stim/FN_005_g.png"",""time"":349.7999999523163},{""stimulus"":""blank"",""time"":657.6000000238419},{""stimulus"":""https://ziweizhang0304.github.io/Stats_learning_trig/img/Stim/FN_025_g.png"",""time"":680.7999999523163},{""stimulus"":""blank"",""time"":983.2000000476837},{""stimulus"":""https://ziweizhang0304.github.io/Stats_learning_trig/img/Stim/FN_018_g.png"",""time"":1021.3999999761581},{""stimulus"":""blank"",""time"":1322.6000000238419},{""stimulus"":""https://ziweizhang0304.github.io/Stats_learning_trig/img/Stim/FN_011_g.png"",""time"":1369.7999999523163},{""stimulus"":""blank"",""time"":1678.7999999523163},{""stimulus"":""https://ziweizhang0304.github.io/Stats_learning_trig/img/Stim/FN_016_g.png"",""time"":1701.2999999523163},{""stimulus"":""blank"",""time"":2003.6000000238419},{""stimulus"":""https://ziweizhang0304.github.io/Stats_learning_trig/img/Stim/FN_004_g.png"",""time"":2041.1000000238419},{""stimulus"":""blank"",""time"":2343.5},{""stimulus"":""https://ziweizhang0304.github.io/Stats_learning_trig/img/Stim/FN_015_g.png"",""time"":2381},{""stimulus"":""blank"",""time"":2685.2999999523163},{""stimulus"":""https://ziweizhang0304.github.io/Stats_learning_trig/img/Stim/FN_003_g.png"",""time"":2721.399999976158},{""stimulus"":""blank"",""time"":3025.7999999523163},{""stimulus"":""https://ziweizhang0304.github.io/Stats_learning_trig/img/Stim/FN_013_g.png"",""time"":3072.399999976158},{""stimulus"":""blank"",""time"":3379},{""stimulus"":""https://ziweizhang0304.github.io/Stats_learning_trig/img/Stim/FN_008_g.png"",""time"":3402.5},{""stimulus"":""blank"",""time"":3704.2999999523163},{""stimulus"":""https://ziweizhang0304.github.io/Stats_learning_trig/img/Stim/FN_019_g.png"",""time"":3741.5},{""stimulus"":""blank"",""time"":4047.600000023842},{""stimulus"":""https://ziweizhang0304.github.io/Stats_learning_trig/img/Stim/FN_022_g.png"",""time"":4081.2000000476837},{""stimulus"":""blank"",""time"":4389.100000023842}]","[{""key_press"":32,""rt"":1849.6000000238419,""stimulus"":""https://ziweizhang0304.github.io/Stats_learning_trig/img/Stim/FN_016_g.png""}]","479.8000000715256","https://ziweizhang0304.github.io/Stats_learning_trig/img/Stim/FN_011_g.png","post_TD","21","1369.7999999523163","1849.6000000238419","fast","4","1","5a9998a14eecca0001dd791e","","","","","",""
"","image-keyboard-response","55","198613","0.0-5.0-21.0-0.0","344.10000002384186","","","https://ziweizhang0304.github.io/Stats_learning_trig/img/Stim/FN_016_g.png","13","","","","","","","","","","","","","","","","","",""
"","animation","56","203035","0.0-5.0-21.0-1.0","","","","","","[{""stimulus"":""https://ziweizhang0304.github.io/Stats_learning_trig/img/Stim/FN_005_g.png"",""time"":342.3000000715256},{""stimulus"":""blank"",""time"":651.1000000238419},{""stimulus"":""https://ziweizhang0304.github.io/Stats_learning_trig/img/Stim/FN_025_g.png"",""time"":682.6000000238419},{""stimulus"":""blank"",""time"":991.6000000238419},{""stimulus"":""https://ziweizhang0304.github.io/Stats_learning_trig/img/Stim/FN_018_g.png"",""time"":1021.6000000238419},{""stimulus"":""blank"",""time"":1333.5},{""stimulus"":""https://ziweizhang0304.github.io/Stats_learning_trig/img/Stim/FN_011_g.png"",""time"":1361.1000000238419},{""stimulus"":""blank"",""time"":1673.3000000715256},{""stimulus"":""https://ziweizhang0304.github.io/Stats_learning_trig/img/Stim/FN_016_g.png"",""time"":1701},{""stimulus"":""blank"",""time"":2001.7000000476837},{""stimulus"":""https://ziweizhang0304.github.io/Stats_learning_trig/img/Stim/FN_004_g.png"",""time"":2049.600000023842},{""stimulus"":""blank"",""time"":2358.2000000476837},{""stimulus"":""https://ziweizhang0304.github.io/Stats_learning_trig/img/Stim/FN_015_g.png"",""time"":2381.8000000715256},{""stimulus"":""blank"",""time"":2696.899999976158},{""stimulus"":""https://ziweizhang0304.github.io/Stats_learning_trig/img/Stim/FN_003_g.png"",""time"":2721.7000000476837},{""stimulus"":""blank"",""time"":3037.600000023842},{""stimulus"":""https://ziweizhang0304.github.io/Stats_learning_trig/img/Stim/FN_013_g.png"",""time"":3061.3000000715256},{""stimulus"":""blank"",""time"":3363.100000023842},{""stimulus"":""https://ziweizhang0304.github.io/Stats_learning_trig/img/Stim/FN_008_g.png"",""time"":3401},{""stimulus"":""blank"",""time"":3702.399999976158},{""stimulus"":""https://ziweizhang0304.github.io/Stats_learning_trig/img/Stim/FN_019_g.png"",""time"":3742},{""stimulus"":""blank"",""time"":4057.8000000715256},{""stimulus"":""https://ziweizhang0304.github.io/Stats_learning_trig/img/Stim/FN_022_g.png"",""time"":4081.3000000715256},{""stimulus"":""blank"",""time"":4382.300000071526}]","[{""key_press"":32,""rt"":2036.8999999761581,""stimulus"":""blank""}]","335.89999997615814","https://ziweizhang0304.github.io/Stats_learning_trig/img/Stim/FN_016_g.png","post_TD","22","1701","2036.8999999761581","fast","5","2","5a9998a14eecca0001dd791e","","","","","",""
"","image-keyboard-response","57","203713","0.0-5.0-22.0-0.0","670.2999999523163","","","https://ziweizhang0304.github.io/Stats_learning_trig/img/Stim/FN_021_g.png","13","","","","","","","","","","","","","","","","","",""
"","animation","58","208142","0.0-5.0-22.0-1.0","","","","","","[{""stimulus"":""https://ziweizhang0304.github.io/Stats_learning_trig/img/Stim/FN_025_g.png"",""time"":351.59999990463257},{""stimulus"":""blank"",""time"":661},{""stimulus"":""https://ziweizhang0304.github.io/Stats_learning_trig/img/Stim/FN_008_g.png"",""time"":682.2999999523163},{""stimulus"":""blank"",""time"":996.5},{""stimulus"":""https://ziweizhang0304.github.io/Stats_learning_trig/img/Stim/FN_005_g.png"",""time"":1027.5999999046326},{""stimulus"":""blank"",""time"":1336.5999999046326},{""stimulus"":""https://ziweizhang0304.github.io/Stats_learning_trig/img/Stim/FN_017_g.png"",""time"":1361.1999999284744},{""stimulus"":""blank"",""time"":1661.8999999761581},{""stimulus"":""https://ziweizhang0304.github.io/Stats_learning_trig/img/Stim/FN_024_g.png"",""time"":1701.6999999284744},{""stimulus"":""blank"",""time"":2002.8999999761581},{""stimulus"":""https://ziweizhang0304.github.io/Stats_learning_trig/img/Stim/FN_021_g.png"",""time"":2041.3999999761581},{""stimulus"":""blank"",""time"":2342.6999999284744},{""stimulus"":""https://ziweizhang0304.github.io/Stats_learning_trig/img/Stim/FN_015_g.png"",""time"":2381.399999976158},{""stimulus"":""blank"",""time"":2695.399999976158},{""stimulus"":""https://ziweizhang0304.github.io/Stats_learning_trig/img/Stim/FN_003_g.png"",""time"":2725.899999976158},{""stimulus"":""blank"",""time"":3034.899999976158},{""stimulus"":""https://ziweizhang0304.github.io/Stats_learning_trig/img/Stim/FN_013_g.png"",""time"":3061.5},{""stimulus"":""blank"",""time"":3375.5},{""stimulus"":""https://ziweizhang0304.github.io/Stats_learning_trig/img/Stim/FN_019_g.png"",""time"":3401.0999999046326},{""stimulus"":""blank"",""time"":3714.5},{""stimulus"":""https://ziweizhang0304.github.io/Stats_learning_trig/img/Stim/FN_018_g.png"",""time"":3741.2999999523163},{""stimulus"":""blank"",""time"":4055.5},{""stimulus"":""https://ziweizhang0304.github.io/Stats_learning_trig/img/Stim/FN_022_g.png"",""time"":4081.0999999046326},{""stimulus"":""blank"",""time"":4383.099999904633}]","[{""key_press"":32,""rt"":2387.5,""stimulus"":""https://ziweizhang0304.github.io/Stats_learning_trig/img/Stim/FN_015_g.png""}]","346.10000002384186","https://ziweizhang0304.github.io/Stats_learning_trig/img/Stim/FN_021_g.png","post_TD","23","2041.3999999761581","2387.5","slow","6","3","5a9998a14eecca0001dd791e","","","","","",""
"","image-keyboard-response","59","208792","0.0-5.0-23.0-0.0","632.1999999284744","","","https://ziweizhang0304.github.io/Stats_learning_trig/img/Stim/FN_021_g.png","13","","","","","","","","","","","","","","","","","",""
"","animation","60","213214","0.0-5.0-23.0-1.0","","","","","","[{""stimulus"":""https://ziweizhang0304.github.io/Stats_learning_trig/img/Stim/FN_003_g.png"",""time"":342.60000002384186},{""stimulus"":""blank"",""time"":650.9000000953674},{""stimulus"":""https://ziweizhang0304.github.io/Stats_learning_trig/img/Stim/FN_013_g.png"",""time"":681.2000000476837},{""stimulus"":""blank"",""time"":990},{""stimulus"":""https://ziweizhang0304.github.io/Stats_learning_trig/img/Stim/FN_019_g.png"",""time"":1022.1000000238419},{""stimulus"":""blank"",""time"":1330.5},{""stimulus"":""https://ziweizhang0304.github.io/Stats_learning_trig/img/Stim/FN_025_g.png"",""time"":1361.2000000476837},{""stimulus"":""blank"",""time"":1670.5},{""stimulus"":""https://ziweizhang0304.github.io/Stats_learning_trig/img/Stim/FN_017_g.png"",""time"":1701},{""stimulus"":""blank"",""time"":2010.6000000238419},{""stimulus"":""https://ziweizhang0304.github.io/Stats_learning_trig/img/Stim/FN_024_g.png"",""time"":2042},{""stimulus"":""blank"",""time"":2350},{""stimulus"":""https://ziweizhang0304.github.io/Stats_learning_trig/img/Stim/FN_021_g.png"",""time"":2381.3000000715256},{""stimulus"":""blank"",""time"":2692.7000000476837},{""stimulus"":""https://ziweizhang0304.github.io/Stats_learning_trig/img/Stim/FN_005_g.png"",""time"":2721},{""stimulus"":""blank"",""time"":3034.7000000476837},{""stimulus"":""https://ziweizhang0304.github.io/Stats_learning_trig/img/Stim/FN_015_g.png"",""time"":3061},{""stimulus"":""blank"",""time"":3374.9000000953674},{""stimulus"":""https://ziweizhang0304.github.io/Stats_learning_trig/img/Stim/FN_008_g.png"",""time"":3401.600000023842},{""stimulus"":""blank"",""time"":3714.600000023842},{""stimulus"":""https://ziweizhang0304.github.io/Stats_learning_trig/img/Stim/FN_018_g.png"",""time"":3741},{""stimulus"":""blank"",""time"":4054},{""stimulus"":""https://ziweizhang0304.github.io/Stats_learning_trig/img/Stim/FN_022_g.png"",""time"":4084.9000000953674},{""stimulus"":""blank"",""time"":4394.300000071526}]","[{""key_press"":32,""rt"":2774.7000000476837,""stimulus"":""https://ziweizhang0304.github.io/Stats_learning_trig/img/Stim/FN_005_g.png""}]","393.39999997615814","https://ziweizhang0304.github.io/Stats_learning_trig/img/Stim/FN_021_g.png","post_TD","24","2381.3000000715256","2774.7000000476837","slow","7","3","5a9998a14eecca0001dd791e","426b3","","","","",""
"","survey-text","61","230429","0.0-6.0","17171.700000047684","","","","","","","","","","","","","","","","","","{""Q0"":""i tried to go as fast as possible""}","","","",""
"","survey-text","62","236674","0.0-7.0","6238.200000047684","","","","","","","","","","","","","","","","","","{""[object Object]"":""i did not ""}","","","",""
"","instructions","63","245811","0.0-8.0","9135.899999976158","","[{""page_index"":0,""viewing_time"":9135.5}]","","","","","","","","","","","","","","","","","","","",""
"","free-sort","64","264581","0.0-9.0","18769","","","","","","","","","post_drag","","","","fast","","","","","","[{""src"":""https://ziweizhang0304.github.io/Stats_learning_trig/img/Stim/FN_011_g.png"",""x"":475,""y"":0},{""src"":""https://ziweizhang0304.github.io/Stats_learning_trig/img/Stim/FN_016_g.png"",""x"":-225,""y"":50},{""src"":""https://ziweizhang0304.github.io/Stats_learning_trig/img/Stim/FN_004_g.png"",""x"":475,""y"":50}]","[{""src"":""https://ziweizhang0304.github.io/Stats_learning_trig/img/Stim/FN_004_g.png"",""x"":56,""y"":22},{""src"":""https://ziweizhang0304.github.io/Stats_learning_trig/img/Stim/FN_016_g.png"",""x"":126,""y"":14},{""src"":""https://ziweizhang0304.github.io/Stats_learning_trig/img/Stim/FN_011_g.png"",""x"":475,""y"":0},{""src"":""https://ziweizhang0304.github.io/Stats_learning_trig/img/Stim/FN_011_g.png"",""x"":204,""y"":19}]","[{""src"":""https://ziweizhang0304.github.io/Stats_learning_trig/img/Stim/FN_011_g.png"",""x"":204,""y"":19},{""src"":""https://ziweizhang0304.github.io/Stats_learning_trig/img/Stim/FN_016_g.png"",""x"":126,""y"":14},{""src"":""https://ziweizhang0304.github.io/Stats_learning_trig/img/Stim/FN_004_g.png"",""x"":56,""y"":22}]",""
"","free-sort","65","275196","0.0-10.0","10613.600000023842","","","","","","","","","post_drag","","","","slow","","","","","","[{""src"":""https://ziweizhang0304.github.io/Stats_learning_trig/img/Stim/FN_024_g.png"",""x"":475,""y"":0},{""src"":""https://ziweizhang0304.github.io/Stats_learning_trig/img/Stim/FN_021_g.png"",""x"":-225,""y"":50},{""src"":""https://ziweizhang0304.github.io/Stats_learning_trig/img/Stim/FN_017_g.png"",""x"":475,""y"":50}]","[{""src"":""https://ziweizhang0304.github.io/Stats_learning_trig/img/Stim/FN_017_g.png"",""x"":79,""y"":23},{""src"":""https://ziweizhang0304.github.io/Stats_learning_trig/img/Stim/FN_024_g.png"",""x"":159,""y"":16},{""src"":""https://ziweizhang0304.github.io/Stats_learning_trig/img/Stim/FN_021_g.png"",""x"":212,""y"":23}]","[{""src"":""https://ziweizhang0304.github.io/Stats_learning_trig/img/Stim/FN_024_g.png"",""x"":159,""y"":16},{""src"":""https://ziweizhang0304.github.io/Stats_learning_trig/img/Stim/FN_021_g.png"",""x"":212,""y"":23},{""src"":""https://ziweizhang0304.github.io/Stats_learning_trig/img/Stim/FN_017_g.png"",""x"":79,""y"":23}]",""
"","survey-multi-choice","66","282784","0.0-11.0","7579.099999904633","","","","","","","","","","","","","","","","5a9998a14eecca0001dd791e","","{""awareness"":""No"",""attention_check"":""Press SPACEBAR to a target""}","","","","[0,1]"
