"success","trial_type","trial_index","time_elapsed","internal_node_id","rt","url","view_history","stimulus","key_press","animation_sequence","response","TD_rt","TD_target","test_part","TD_trial_number","onset","offset","attention_state","TD_target_position","TD_within_triplet_counter","participant","yoke_participant","responses","init_locations","moves","final_locations","question_order"
"true","fullscreen","0","3594","0.0-0.0","","","","","","","","","","","","","","","","","","","","","","",""
"","external-html","1","9506","0.0-1.0","5796.899999976158","https://ziweizhang0304.github.io/Stats_learning_trig/content/consent.html","","","","","","","","","","","","","","","","","","","","",""
"","instructions","2","39534","0.0-2.0","30026.19999998808","","[{""page_index"":0,""viewing_time"":1704.199999988079},{""page_index"":1,""viewing_time"":14398.800000011921},{""page_index"":2,""viewing_time"":11028.099999964237},{""page_index"":3,""viewing_time"":2894.400000035763}]","","","","","","","","","","","","","","","","","","","",""
"","image-keyboard-response","3","44620","0.0-3.0-0.0-0.0","5084.5","","","https://ziweizhang0304.github.io/Stats_learning_trig/img/Stim/FN_021_g.png","13","","","","","","","","","","","","","","","","","",""
"","animation","4","49048","0.0-3.0-0.0-1.0","","","","","","[{""stimulus"":""https://ziweizhang0304.github.io/Stats_learning_trig/img/Stim/FN_016_g.png"",""time"":362.5},{""stimulus"":""blank"",""time"":666.9000000357628},{""stimulus"":""https://ziweizhang0304.github.io/Stats_learning_trig/img/Stim/FN_017_g.png"",""time"":682.8000000119209},{""stimulus"":""blank"",""time"":996.6999999880791},{""stimulus"":""https://ziweizhang0304.github.io/Stats_learning_trig/img/Stim/FN_025_g.png"",""time"":1029.800000011921},{""stimulus"":""blank"",""time"":1330.5},{""stimulus"":""https://ziweizhang0304.github.io/Stats_learning_trig/img/Stim/FN_021_g.png"",""time"":1364.1000000238419},{""stimulus"":""blank"",""time"":1666.1000000238419},{""stimulus"":""https://ziweizhang0304.github.io/Stats_learning_trig/img/Stim/FN_006_g.png"",""time"":1701.5},{""stimulus"":""blank"",""time"":2012.5},{""stimulus"":""https://ziweizhang0304.github.io/Stats_learning_trig/img/Stim/FN_012_g.png"",""time"":2045.699999988079},{""stimulus"":""blank"",""time"":2347},{""stimulus"":""https://ziweizhang0304.github.io/Stats_learning_trig/img/Stim/FN_008_g.png"",""time"":2394.5},{""stimulus"":""blank"",""time"":2695.900000035763},{""stimulus"":""https://ziweizhang0304.github.io/Stats_learning_trig/img/Stim/FN_001_g.png"",""time"":2729.300000011921},{""stimulus"":""blank"",""time"":3031.600000023842},{""stimulus"":""https://ziweizhang0304.github.io/Stats_learning_trig/img/Stim/FN_019_g.png"",""time"":3062.5},{""stimulus"":""blank"",""time"":3363.100000023842},{""stimulus"":""https://ziweizhang0304.github.io/Stats_learning_trig/img/Stim/FN_014_g.png"",""time"":3401.199999988079},{""stimulus"":""blank"",""time"":3712.199999988079},{""stimulus"":""https://ziweizhang0304.github.io/Stats_learning_trig/img/Stim/FN_011_g.png"",""time"":3743.300000011921},{""stimulus"":""blank"",""time"":4044.699999988079},{""stimulus"":""https://ziweizhang0304.github.io/Stats_learning_trig/img/Stim/FN_003_g.png"",""time"":4081.400000035763},{""stimulus"":""blank"",""time"":4396.699999988079}]","[{""key_press"":32,""rt"":1669.300000011921,""stimulus"":""blank""}]","305.19999998807907","https://ziweizhang0304.github.io/Stats_learning_trig/img/Stim/FN_021_g.png","post_prac","","","","","","","","","","","","",""
"","html-keyboard-response","5","55642","0.0-3.0-0.0-2.0","6588","","","<p>Your reaction time for this trial was 305.2 ms.</p><p>Remember that you should only press the SPACEBAR when you see the shape presented at the beginning of the trial. </b> </p><p>Press enter to move on.</p>","13","","","","","","","","","","","","","","","","","",""
"","image-keyboard-response","6","62183","0.0-3.0-1.0-0.0","6553.300000011921","","","https://ziweizhang0304.github.io/Stats_learning_trig/img/Stim/FN_021_g.png","13","","","","","","","","","","","","","","","","","",""
"","animation","7","66607","0.0-3.0-1.0-1.0","","","","","","[{""stimulus"":""https://ziweizhang0304.github.io/Stats_learning_trig/img/Stim/FN_019_g.png"",""time"":352.80000001192093},{""stimulus"":""blank"",""time"":656.6999999880791},{""stimulus"":""https://ziweizhang0304.github.io/Stats_learning_trig/img/Stim/FN_001_g.png"",""time"":687.1000000238419},{""stimulus"":""blank"",""time"":988},{""stimulus"":""https://ziweizhang0304.github.io/Stats_learning_trig/img/Stim/FN_008_g.png"",""time"":1021.1999999880791},{""stimulus"":""blank"",""time"":1336.8999999761581},{""stimulus"":""https://ziweizhang0304.github.io/Stats_learning_trig/img/Stim/FN_003_g.png"",""time"":1368.699999988079},{""stimulus"":""blank"",""time"":1670.6000000238419},{""stimulus"":""https://ziweizhang0304.github.io/Stats_learning_trig/img/Stim/FN_012_g.png"",""time"":1702.199999988079},{""stimulus"":""blank"",""time"":2017.8999999761581},{""stimulus"":""https://ziweizhang0304.github.io/Stats_learning_trig/img/Stim/FN_006_g.png"",""time"":2051.399999976158},{""stimulus"":""blank"",""time"":2367.100000023842},{""stimulus"":""https://ziweizhang0304.github.io/Stats_learning_trig/img/Stim/FN_021_g.png"",""time"":2385.100000023842},{""stimulus"":""blank"",""time"":2686.100000023842},{""stimulus"":""https://ziweizhang0304.github.io/Stats_learning_trig/img/Stim/FN_025_g.png"",""time"":2721.300000011921},{""stimulus"":""blank"",""time"":3021.600000023842},{""stimulus"":""https://ziweizhang0304.github.io/Stats_learning_trig/img/Stim/FN_011_g.png"",""time"":3084.399999976158},{""stimulus"":""blank"",""time"":3396.800000011921},{""stimulus"":""https://ziweizhang0304.github.io/Stats_learning_trig/img/Stim/FN_016_g.png"",""time"":3412.699999988079},{""stimulus"":""blank"",""time"":3716.100000023842},{""stimulus"":""https://ziweizhang0304.github.io/Stats_learning_trig/img/Stim/FN_014_g.png"",""time"":3750.800000011921},{""stimulus"":""blank"",""time"":4066.300000011921},{""stimulus"":""https://ziweizhang0304.github.io/Stats_learning_trig/img/Stim/FN_017_g.png"",""time"":4083.699999988079},{""stimulus"":""blank"",""time"":4399.699999988079}]","[{""key_press"":32,""rt"":2749.699999988079,""stimulus"":""https://ziweizhang0304.github.io/Stats_learning_trig/img/Stim/FN_025_g.png""}]","364.5999999642372","https://ziweizhang0304.github.io/Stats_learning_trig/img/Stim/FN_021_g.png","post_prac","","","","","","","","","","","","",""
"","html-keyboard-response","8","69649","0.0-3.0-1.0-2.0","3039.300000011921","","","<p>Your reaction time for this trial was 364.6 ms.</p><p>Remember that you should only press the SPACEBAR when you see the shape presented at the beginning of the trial. </b> </p><p>Press enter to move on.</p>","13","","","","","","","","","","","","","","","","","",""
"","image-keyboard-response","9","74433","0.0-3.0-2.0-0.0","4783.399999976158","","","https://ziweizhang0304.github.io/Stats_learning_trig/img/Stim/FN_006_g.png","13","","","","","","","","","","","","","","","","","",""
"","animation","10","78855","0.0-3.0-2.0-1.0","","","","","","[{""stimulus"":""https://ziweizhang0304.github.io/Stats_learning_trig/img/Stim/FN_008_g.png"",""time"":343.9000000357628},{""stimulus"":""blank"",""time"":659.6000000238419},{""stimulus"":""https://ziweizhang0304.github.io/Stats_learning_trig/img/Stim/FN_017_g.png"",""time"":691.5},{""stimulus"":""blank"",""time"":1007.9000000357628},{""stimulus"":""https://ziweizhang0304.github.io/Stats_learning_trig/img/Stim/FN_014_g.png"",""time"":1024.9000000357628},{""stimulus"":""blank"",""time"":1325.6000000238419},{""stimulus"":""https://ziweizhang0304.github.io/Stats_learning_trig/img/Stim/FN_011_g.png"",""time"":1373.1000000238419},{""stimulus"":""blank"",""time"":1679.9000000357628},{""stimulus"":""https://ziweizhang0304.github.io/Stats_learning_trig/img/Stim/FN_001_g.png"",""time"":1708.1000000238419},{""stimulus"":""blank"",""time"":2008.800000011921},{""stimulus"":""https://ziweizhang0304.github.io/Stats_learning_trig/img/Stim/FN_019_g.png"",""time"":2041.199999988079},{""stimulus"":""blank"",""time"":2341.900000035763},{""stimulus"":""https://ziweizhang0304.github.io/Stats_learning_trig/img/Stim/FN_012_g.png"",""time"":2380.900000035763},{""stimulus"":""blank"",""time"":2691},{""stimulus"":""https://ziweizhang0304.github.io/Stats_learning_trig/img/Stim/FN_006_g.png"",""time"":2722.600000023842},{""stimulus"":""blank"",""time"":3024.100000023842},{""stimulus"":""https://ziweizhang0304.github.io/Stats_learning_trig/img/Stim/FN_021_g.png"",""time"":3060.800000011921},{""stimulus"":""blank"",""time"":3375.400000035763},{""stimulus"":""https://ziweizhang0304.github.io/Stats_learning_trig/img/Stim/FN_025_g.png"",""time"":3406.400000035763},{""stimulus"":""blank"",""time"":3707.600000023842},{""stimulus"":""https://ziweizhang0304.github.io/Stats_learning_trig/img/Stim/FN_003_g.png"",""time"":3741.5},{""stimulus"":""blank"",""time"":4050.100000023842},{""stimulus"":""https://ziweizhang0304.github.io/Stats_learning_trig/img/Stim/FN_016_g.png"",""time"":4081.100000023842},{""stimulus"":""blank"",""time"":4394.300000011921}]","[{""key_press"":32,""rt"":3113.800000011921,""stimulus"":""https://ziweizhang0304.github.io/Stats_learning_trig/img/Stim/FN_021_g.png""}]","391.19999998807907","https://ziweizhang0304.github.io/Stats_learning_trig/img/Stim/FN_006_g.png","post_prac","","","","","","","","","","","","",""
"","html-keyboard-response","11","84010","0.0-3.0-2.0-2.0","5152.599999964237","","","<p>Your reaction time for this trial was 391.2 ms.</p><p>Remember that you should only press the SPACEBAR when you see the shape presented at the beginning of the trial. </b> </p><p>Press enter to move on.</p>","13","","","","","","","","","","","","","","","","","",""
"","instructions","12","86692","0.0-4.0","2681.800000011921","","[{""page_index"":0,""viewing_time"":2681.699999988079}]","","","","","","","","","","","","","","","","","","","",""
"","image-keyboard-response","13","96492","0.0-5.0-0.0-0.0","9798.5","","","https://ziweizhang0304.github.io/Stats_learning_trig/img/Stim/FN_012_g.png","13","","","","","","","","","","","","","","","","","",""
"","animation","14","100917","0.0-5.0-0.0-1.0","","","","","","[{""stimulus"":""https://ziweizhang0304.github.io/Stats_learning_trig/img/Stim/FN_016_g.png"",""time"":345.30000001192093},{""stimulus"":""blank"",""time"":660.3000000119209},{""stimulus"":""https://ziweizhang0304.github.io/Stats_learning_trig/img/Stim/FN_001_g.png"",""time"":693.6000000238419},{""stimulus"":""blank"",""time"":996.6000000238419},{""stimulus"":""https://ziweizhang0304.github.io/Stats_learning_trig/img/Stim/FN_008_g.png"",""time"":1021.6999999880791},{""stimulus"":""blank"",""time"":1327},{""stimulus"":""https://ziweizhang0304.github.io/Stats_learning_trig/img/Stim/FN_025_g.png"",""time"":1362.300000011921},{""stimulus"":""blank"",""time"":1677.699999988079},{""stimulus"":""https://ziweizhang0304.github.io/Stats_learning_trig/img/Stim/FN_011_g.png"",""time"":1709.5},{""stimulus"":""blank"",""time"":2009.6000000238419},{""stimulus"":""https://ziweizhang0304.github.io/Stats_learning_trig/img/Stim/FN_012_g.png"",""time"":2043.5},{""stimulus"":""blank"",""time"":2344.600000023842},{""stimulus"":""https://ziweizhang0304.github.io/Stats_learning_trig/img/Stim/FN_006_g.png"",""time"":2381.600000023842},{""stimulus"":""blank"",""time"":2693.600000023842},{""stimulus"":""https://ziweizhang0304.github.io/Stats_learning_trig/img/Stim/FN_021_g.png"",""time"":2725.300000011921},{""stimulus"":""blank"",""time"":3041.300000011921},{""stimulus"":""https://ziweizhang0304.github.io/Stats_learning_trig/img/Stim/FN_003_g.png"",""time"":3061.199999988079},{""stimulus"":""blank"",""time"":3374.5},{""stimulus"":""https://ziweizhang0304.github.io/Stats_learning_trig/img/Stim/FN_014_g.png"",""time"":3407.600000023842},{""stimulus"":""blank"",""time"":3709.699999988079},{""stimulus"":""https://ziweizhang0304.github.io/Stats_learning_trig/img/Stim/FN_017_g.png"",""time"":3741.699999988079},{""stimulus"":""blank"",""time"":4043},{""stimulus"":""https://ziweizhang0304.github.io/Stats_learning_trig/img/Stim/FN_019_g.png"",""time"":4080.800000011921},{""stimulus"":""blank"",""time"":4394.199999988079}]","[{""key_press"":32,""rt"":2397.5,""stimulus"":""https://ziweizhang0304.github.io/Stats_learning_trig/img/Stim/FN_006_g.png""}]","354","https://ziweizhang0304.github.io/Stats_learning_trig/img/Stim/FN_012_g.png","post_TD","1","2043.5","2397.5","slow","6","1","6102050090041d90dc5413f3","","","","","",""
"","image-keyboard-response","15","106146","0.0-5.0-1.0-0.0","5226.899999976158","","","https://ziweizhang0304.github.io/Stats_learning_trig/img/Stim/FN_012_g.png","13","","","","","","","","","","","","","","","","","",""
"","animation","16","110574","0.0-5.0-1.0-1.0","","","","","","[{""stimulus"":""https://ziweizhang0304.github.io/Stats_learning_trig/img/Stim/FN_008_g.png"",""time"":343.7999999523163},{""stimulus"":""blank"",""time"":646.5999999642372},{""stimulus"":""https://ziweizhang0304.github.io/Stats_learning_trig/img/Stim/FN_017_g.png"",""time"":681.0999999642372},{""stimulus"":""blank"",""time"":982.2999999523163},{""stimulus"":""https://ziweizhang0304.github.io/Stats_learning_trig/img/Stim/FN_014_g.png"",""time"":1021.1999999880791},{""stimulus"":""blank"",""time"":1336.7999999523163},{""stimulus"":""https://ziweizhang0304.github.io/Stats_learning_trig/img/Stim/FN_011_g.png"",""time"":1360.8999999761581},{""stimulus"":""blank"",""time"":1664.3999999761581},{""stimulus"":""https://ziweizhang0304.github.io/Stats_learning_trig/img/Stim/FN_001_g.png"",""time"":1701.7999999523163},{""stimulus"":""blank"",""time"":2014.0999999642372},{""stimulus"":""https://ziweizhang0304.github.io/Stats_learning_trig/img/Stim/FN_019_g.png"",""time"":2045.8999999761581},{""stimulus"":""blank"",""time"":2346.899999976158},{""stimulus"":""https://ziweizhang0304.github.io/Stats_learning_trig/img/Stim/FN_012_g.png"",""time"":2393.899999976158},{""stimulus"":""blank"",""time"":2696.399999976158},{""stimulus"":""https://ziweizhang0304.github.io/Stats_learning_trig/img/Stim/FN_006_g.png"",""time"":2721.5},{""stimulus"":""blank"",""time"":3029.7999999523163},{""stimulus"":""https://ziweizhang0304.github.io/Stats_learning_trig/img/Stim/FN_021_g.png"",""time"":3061.699999988079},{""stimulus"":""blank"",""time"":3377.7999999523163},{""stimulus"":""https://ziweizhang0304.github.io/Stats_learning_trig/img/Stim/FN_025_g.png"",""time"":3410},{""stimulus"":""blank"",""time"":3711.899999976158},{""stimulus"":""https://ziweizhang0304.github.io/Stats_learning_trig/img/Stim/FN_003_g.png"",""time"":3743.5},{""stimulus"":""blank"",""time"":4045.599999964237},{""stimulus"":""https://ziweizhang0304.github.io/Stats_learning_trig/img/Stim/FN_016_g.png"",""time"":4080.7999999523163},{""stimulus"":""blank"",""time"":4396.5}]","[{""key_press"":32,""rt"":2700.300000011921,""stimulus"":""blank""}]","306.4000000357628","https://ziweizhang0304.github.io/Stats_learning_trig/img/Stim/FN_012_g.png","post_TD","2","2393.899999976158","2700.300000011921","slow","7","1","6102050090041d90dc5413f3","","","","","",""
"","image-keyboard-response","17","116449","0.0-5.0-2.0-0.0","5873","","","https://ziweizhang0304.github.io/Stats_learning_trig/img/Stim/FN_012_g.png","13","","","","","","","","","","","","","","","","","",""
"","animation","18","120883","0.0-5.0-2.0-1.0","","","","","","[{""stimulus"":""https://ziweizhang0304.github.io/Stats_learning_trig/img/Stim/FN_017_g.png"",""time"":348.10000002384186},{""stimulus"":""blank"",""time"":651.9000000357628},{""stimulus"":""https://ziweizhang0304.github.io/Stats_learning_trig/img/Stim/FN_016_g.png"",""time"":683.6000000238419},{""stimulus"":""blank"",""time"":985.4000000357628},{""stimulus"":""https://ziweizhang0304.github.io/Stats_learning_trig/img/Stim/FN_001_g.png"",""time"":1020.7000000476837},{""stimulus"":""blank"",""time"":1334},{""stimulus"":""https://ziweizhang0304.github.io/Stats_learning_trig/img/Stim/FN_012_g.png"",""time"":1362.1000000238419},{""stimulus"":""blank"",""time"":1666.1000000238419},{""stimulus"":""https://ziweizhang0304.github.io/Stats_learning_trig/img/Stim/FN_006_g.png"",""time"":1715.4000000357628},{""stimulus"":""blank"",""time"":2016.7000000476837},{""stimulus"":""https://ziweizhang0304.github.io/Stats_learning_trig/img/Stim/FN_021_g.png"",""time"":2048.900000035763},{""stimulus"":""blank"",""time"":2350},{""stimulus"":""https://ziweizhang0304.github.io/Stats_learning_trig/img/Stim/FN_025_g.png"",""time"":2381.600000023842},{""stimulus"":""blank"",""time"":2684.400000035763},{""stimulus"":""https://ziweizhang0304.github.io/Stats_learning_trig/img/Stim/FN_003_g.png"",""time"":2748.7000000476837},{""stimulus"":""blank"",""time"":3049.300000011921},{""stimulus"":""https://ziweizhang0304.github.io/Stats_learning_trig/img/Stim/FN_011_g.png"",""time"":3065.400000035763},{""stimulus"":""blank"",""time"":3380.900000035763},{""stimulus"":""https://ziweizhang0304.github.io/Stats_learning_trig/img/Stim/FN_014_g.png"",""time"":3401.600000023842},{""stimulus"":""blank"",""time"":3714.300000011921},{""stimulus"":""https://ziweizhang0304.github.io/Stats_learning_trig/img/Stim/FN_008_g.png"",""time"":3741.400000035763},{""stimulus"":""blank"",""time"":4046.900000035763},{""stimulus"":""https://ziweizhang0304.github.io/Stats_learning_trig/img/Stim/FN_019_g.png"",""time"":4080.7000000476837},{""stimulus"":""blank"",""time"":4381.200000047684}]","[{""key_press"":32,""rt"":1732.1000000238419,""stimulus"":""https://ziweizhang0304.github.io/Stats_learning_trig/img/Stim/FN_006_g.png""}]","370","https://ziweizhang0304.github.io/Stats_learning_trig/img/Stim/FN_012_g.png","post_TD","3","1362.1000000238419","1732.1000000238419","slow","4","1","6102050090041d90dc5413f3","","","","","",""
"","image-keyboard-response","19","123697","0.0-5.0-3.0-0.0","2811.600000023842","","","https://ziweizhang0304.github.io/Stats_learning_trig/img/Stim/FN_012_g.png","13","","","","","","","","","","","","","","","","","",""
"","animation","20","128118","0.0-5.0-3.0-1.0","","","","","","[{""stimulus"":""https://ziweizhang0304.github.io/Stats_learning_trig/img/Stim/FN_019_g.png"",""time"":355.7999999523163},{""stimulus"":""blank"",""time"":657.5999999642372},{""stimulus"":""https://ziweizhang0304.github.io/Stats_learning_trig/img/Stim/FN_001_g.png"",""time"":690.7999999523163},{""stimulus"":""blank"",""time"":992},{""stimulus"":""https://ziweizhang0304.github.io/Stats_learning_trig/img/Stim/FN_008_g.png"",""time"":1021.6999999880791},{""stimulus"":""blank"",""time"":1323.8999999761581},{""stimulus"":""https://ziweizhang0304.github.io/Stats_learning_trig/img/Stim/FN_003_g.png"",""time"":1372.7999999523163},{""stimulus"":""blank"",""time"":1674.8999999761581},{""stimulus"":""https://ziweizhang0304.github.io/Stats_learning_trig/img/Stim/FN_012_g.png"",""time"":1706.7999999523163},{""stimulus"":""blank"",""time"":2009.199999988079},{""stimulus"":""https://ziweizhang0304.github.io/Stats_learning_trig/img/Stim/FN_006_g.png"",""time"":2040.8999999761581},{""stimulus"":""blank"",""time"":2341.899999976158},{""stimulus"":""https://ziweizhang0304.github.io/Stats_learning_trig/img/Stim/FN_021_g.png"",""time"":2380.899999976158},{""stimulus"":""blank"",""time"":2691.399999976158},{""stimulus"":""https://ziweizhang0304.github.io/Stats_learning_trig/img/Stim/FN_025_g.png"",""time"":2721},{""stimulus"":""blank"",""time"":3033.599999964237},{""stimulus"":""https://ziweizhang0304.github.io/Stats_learning_trig/img/Stim/FN_011_g.png"",""time"":3065.099999964237},{""stimulus"":""blank"",""time"":3373.2999999523163},{""stimulus"":""https://ziweizhang0304.github.io/Stats_learning_trig/img/Stim/FN_016_g.png"",""time"":3404.899999976158},{""stimulus"":""blank"",""time"":3706.599999964237},{""stimulus"":""https://ziweizhang0304.github.io/Stats_learning_trig/img/Stim/FN_014_g.png"",""time"":3753.5},{""stimulus"":""blank"",""time"":4056.899999976158},{""stimulus"":""https://ziweizhang0304.github.io/Stats_learning_trig/img/Stim/FN_017_g.png"",""time"":4088.599999964237},{""stimulus"":""blank"",""time"":4389.899999976158}]","[{""key_press"":32,""rt"":2052.100000023842,""stimulus"":""https://ziweizhang0304.github.io/Stats_learning_trig/img/Stim/FN_006_g.png""}]","345.3000000715256","https://ziweizhang0304.github.io/Stats_learning_trig/img/Stim/FN_012_g.png","post_TD","4","1706.7999999523163","2052.100000023842","slow","5","1","6102050090041d90dc5413f3","","","","","",""
"","image-keyboard-response","21","140647","0.0-5.0-4.0-0.0","12526.800000011921","","","https://ziweizhang0304.github.io/Stats_learning_trig/img/Stim/FN_004_g.png","13","","","","","","","","","","","","","","","","","",""
"","animation","22","145069","0.0-5.0-4.0-1.0","","","","","","[{""stimulus"":""https://ziweizhang0304.github.io/Stats_learning_trig/img/Stim/FN_017_g.png"",""time"":354.89999997615814},{""stimulus"":""blank"",""time"":657.8000000119209},{""stimulus"":""https://ziweizhang0304.github.io/Stats_learning_trig/img/Stim/FN_019_g.png"",""time"":690.5},{""stimulus"":""blank"",""time"":991.3999999761581},{""stimulus"":""https://ziweizhang0304.github.io/Stats_learning_trig/img/Stim/FN_014_g.png"",""time"":1020.6999999880791},{""stimulus"":""blank"",""time"":1322},{""stimulus"":""https://ziweizhang0304.github.io/Stats_learning_trig/img/Stim/FN_011_g.png"",""time"":1370.8999999761581},{""stimulus"":""blank"",""time"":1673.5},{""stimulus"":""https://ziweizhang0304.github.io/Stats_learning_trig/img/Stim/FN_025_g.png"",""time"":1707},{""stimulus"":""blank"",""time"":2009.8999999761581},{""stimulus"":""https://ziweizhang0304.github.io/Stats_learning_trig/img/Stim/FN_016_g.png"",""time"":2041.199999988079},{""stimulus"":""blank"",""time"":2356.599999964237},{""stimulus"":""https://ziweizhang0304.github.io/Stats_learning_trig/img/Stim/FN_022_g.png"",""time"":2388.899999976158},{""stimulus"":""blank"",""time"":2689.399999976158},{""stimulus"":""https://ziweizhang0304.github.io/Stats_learning_trig/img/Stim/FN_015_g.png"",""time"":2721.300000011921},{""stimulus"":""blank"",""time"":3023.199999988079},{""stimulus"":""https://ziweizhang0304.github.io/Stats_learning_trig/img/Stim/FN_004_g.png"",""time"":3060.899999976158},{""stimulus"":""blank"",""time"":3371.800000011921},{""stimulus"":""https://ziweizhang0304.github.io/Stats_learning_trig/img/Stim/FN_003_g.png"",""time"":3401.099999964237},{""stimulus"":""blank"",""time"":3705.899999976158},{""stimulus"":""https://ziweizhang0304.github.io/Stats_learning_trig/img/Stim/FN_001_g.png"",""time"":3753},{""stimulus"":""blank"",""time"":4053.800000011921},{""stimulus"":""https://ziweizhang0304.github.io/Stats_learning_trig/img/Stim/FN_008_g.png"",""time"":4087.699999988079},{""stimulus"":""blank"",""time"":4403}]","[{""key_press"":32,""rt"":3396.300000011921,""stimulus"":""blank""}]","335.4000000357628","https://ziweizhang0304.github.io/Stats_learning_trig/img/Stim/FN_004_g.png","post_TD","5","3060.899999976158","3396.300000011921","fast","9","3","6102050090041d90dc5413f3","","","","","",""
"","image-keyboard-response","23","147588","0.0-5.0-5.0-0.0","2515","","","https://ziweizhang0304.github.io/Stats_learning_trig/img/Stim/FN_006_g.png","13","","","","","","","","","","","","","","","","","",""
"","animation","24","152010","0.0-5.0-5.0-1.0","","","","","","[{""stimulus"":""https://ziweizhang0304.github.io/Stats_learning_trig/img/Stim/FN_019_g.png"",""time"":343.60000002384186},{""stimulus"":""blank"",""time"":645.6000000238419},{""stimulus"":""https://ziweizhang0304.github.io/Stats_learning_trig/img/Stim/FN_001_g.png"",""time"":681.2000000476837},{""stimulus"":""blank"",""time"":993.9000000357628},{""stimulus"":""https://ziweizhang0304.github.io/Stats_learning_trig/img/Stim/FN_008_g.png"",""time"":1021.5},{""stimulus"":""blank"",""time"":1326.2000000476837},{""stimulus"":""https://ziweizhang0304.github.io/Stats_learning_trig/img/Stim/FN_003_g.png"",""time"":1373.5},{""stimulus"":""blank"",""time"":1676.800000011921},{""stimulus"":""https://ziweizhang0304.github.io/Stats_learning_trig/img/Stim/FN_012_g.png"",""time"":1708.800000011921},{""stimulus"":""blank"",""time"":2009.6000000238419},{""stimulus"":""https://ziweizhang0304.github.io/Stats_learning_trig/img/Stim/FN_006_g.png"",""time"":2041.800000011921},{""stimulus"":""blank"",""time"":2342.900000035763},{""stimulus"":""https://ziweizhang0304.github.io/Stats_learning_trig/img/Stim/FN_021_g.png"",""time"":2381.400000035763},{""stimulus"":""blank"",""time"":2692.5},{""stimulus"":""https://ziweizhang0304.github.io/Stats_learning_trig/img/Stim/FN_025_g.png"",""time"":2721.300000011921},{""stimulus"":""blank"",""time"":3024.300000011921},{""stimulus"":""https://ziweizhang0304.github.io/Stats_learning_trig/img/Stim/FN_011_g.png"",""time"":3074.2000000476837},{""stimulus"":""blank"",""time"":3375.300000011921},{""stimulus"":""https://ziweizhang0304.github.io/Stats_learning_trig/img/Stim/FN_016_g.png"",""time"":3407.2000000476837},{""stimulus"":""blank"",""time"":3709.2000000476837},{""stimulus"":""https://ziweizhang0304.github.io/Stats_learning_trig/img/Stim/FN_014_g.png"",""time"":3740.800000011921},{""stimulus"":""blank"",""time"":4041.7000000476837},{""stimulus"":""https://ziweizhang0304.github.io/Stats_learning_trig/img/Stim/FN_017_g.png"",""time"":4080.800000011921},{""stimulus"":""blank"",""time"":4391.200000047684}]","[{""key_press"":32,""rt"":2395.800000011921,""stimulus"":""https://ziweizhang0304.github.io/Stats_learning_trig/img/Stim/FN_021_g.png""}]","354","https://ziweizhang0304.github.io/Stats_learning_trig/img/Stim/FN_006_g.png","post_TD","6","2041.800000011921","2395.800000011921","slow","6","2","6102050090041d90dc5413f3","","","","","",""
"","image-keyboard-response","25","154502","0.0-5.0-6.0-0.0","2489.5","","","https://ziweizhang0304.github.io/Stats_learning_trig/img/Stim/FN_004_g.png","13","","","","","","","","","","","","","","","","","",""
"","animation","26","158923","0.0-5.0-6.0-1.0","","","","","","[{""stimulus"":""https://ziweizhang0304.github.io/Stats_learning_trig/img/Stim/FN_014_g.png"",""time"":355.80000001192093},{""stimulus"":""blank"",""time"":657.5},{""stimulus"":""https://ziweizhang0304.github.io/Stats_learning_trig/img/Stim/FN_019_g.png"",""time"":689.1000000238419},{""stimulus"":""blank"",""time"":990.8000000119209},{""stimulus"":""https://ziweizhang0304.github.io/Stats_learning_trig/img/Stim/FN_008_g.png"",""time"":1021.3000000119209},{""stimulus"":""blank"",""time"":1322.2000000476837},{""stimulus"":""https://ziweizhang0304.github.io/Stats_learning_trig/img/Stim/FN_022_g.png"",""time"":1361.300000011921},{""stimulus"":""blank"",""time"":1671.800000011921},{""stimulus"":""https://ziweizhang0304.github.io/Stats_learning_trig/img/Stim/FN_015_g.png"",""time"":1704.2000000476837},{""stimulus"":""blank"",""time"":2005.300000011921},{""stimulus"":""https://ziweizhang0304.github.io/Stats_learning_trig/img/Stim/FN_004_g.png"",""time"":2041.5},{""stimulus"":""blank"",""time"":2352.800000011921},{""stimulus"":""https://ziweizhang0304.github.io/Stats_learning_trig/img/Stim/FN_025_g.png"",""time"":2381.400000035763},{""stimulus"":""blank"",""time"":2687.800000011921},{""stimulus"":""https://ziweizhang0304.github.io/Stats_learning_trig/img/Stim/FN_003_g.png"",""time"":2721.100000023842},{""stimulus"":""blank"",""time"":3037.400000035763},{""stimulus"":""https://ziweizhang0304.github.io/Stats_learning_trig/img/Stim/FN_011_g.png"",""time"":3061.100000023842},{""stimulus"":""blank"",""time"":3370.400000035763},{""stimulus"":""https://ziweizhang0304.github.io/Stats_learning_trig/img/Stim/FN_001_g.png"",""time"":3402.7000000476837},{""stimulus"":""blank"",""time"":3703.7000000476837},{""stimulus"":""https://ziweizhang0304.github.io/Stats_learning_trig/img/Stim/FN_016_g.png"",""time"":3740.800000011921},{""stimulus"":""blank"",""time"":4053.2000000476837},{""stimulus"":""https://ziweizhang0304.github.io/Stats_learning_trig/img/Stim/FN_017_g.png"",""time"":4085},{""stimulus"":""blank"",""time"":4387.400000035763}]","[{""key_press"":32,""rt"":2380.5,""stimulus"":""blank""}]","339","https://ziweizhang0304.github.io/Stats_learning_trig/img/Stim/FN_004_g.png","post_TD","7","2041.5","2380.5","fast","6","3","6102050090041d90dc5413f3","","","","","",""
"","image-keyboard-response","27","164152","0.0-5.0-7.0-0.0","5226","","","https://ziweizhang0304.github.io/Stats_learning_trig/img/Stim/FN_015_g.png","13","","","","","","","","","","","","","","","","","",""
"","animation","28","168578","0.0-5.0-7.0-1.0","","","","","","[{""stimulus"":""https://ziweizhang0304.github.io/Stats_learning_trig/img/Stim/FN_014_g.png"",""time"":346.0999999642372},{""stimulus"":""blank"",""time"":649.5999999642372},{""stimulus"":""https://ziweizhang0304.github.io/Stats_learning_trig/img/Stim/FN_019_g.png"",""time"":682},{""stimulus"":""blank"",""time"":996.3999999761581},{""stimulus"":""https://ziweizhang0304.github.io/Stats_learning_trig/img/Stim/FN_008_g.png"",""time"":1021.0999999642372},{""stimulus"":""blank"",""time"":1330.0999999642372},{""stimulus"":""https://ziweizhang0304.github.io/Stats_learning_trig/img/Stim/FN_022_g.png"",""time"":1361.5999999642372},{""stimulus"":""blank"",""time"":1662.800000011921},{""stimulus"":""https://ziweizhang0304.github.io/Stats_learning_trig/img/Stim/FN_015_g.png"",""time"":1711.199999988079},{""stimulus"":""blank"",""time"":2011.5},{""stimulus"":""https://ziweizhang0304.github.io/Stats_learning_trig/img/Stim/FN_004_g.png"",""time"":2044.5},{""stimulus"":""blank"",""time"":2346.300000011921},{""stimulus"":""https://ziweizhang0304.github.io/Stats_learning_trig/img/Stim/FN_025_g.png"",""time"":2393.199999988079},{""stimulus"":""blank"",""time"":2694.699999988079},{""stimulus"":""https://ziweizhang0304.github.io/Stats_learning_trig/img/Stim/FN_003_g.png"",""time"":2720.699999988079},{""stimulus"":""blank"",""time"":3027.199999988079},{""stimulus"":""https://ziweizhang0304.github.io/Stats_learning_trig/img/Stim/FN_011_g.png"",""time"":3061.099999964237},{""stimulus"":""blank"",""time"":3362.399999976158},{""stimulus"":""https://ziweizhang0304.github.io/Stats_learning_trig/img/Stim/FN_001_g.png"",""time"":3409.699999988079},{""stimulus"":""blank"",""time"":3713.199999988079},{""stimulus"":""https://ziweizhang0304.github.io/Stats_learning_trig/img/Stim/FN_016_g.png"",""time"":3743.800000011921},{""stimulus"":""blank"",""time"":4045.099999964237},{""stimulus"":""https://ziweizhang0304.github.io/Stats_learning_trig/img/Stim/FN_017_g.png"",""time"":4093.199999988079},{""stimulus"":""blank"",""time"":4409.300000011921}]","[{""key_press"":32,""rt"":1999.5,""stimulus"":""https://ziweizhang0304.github.io/Stats_learning_trig/img/Stim/FN_015_g.png""}]","288.30000001192093","https://ziweizhang0304.github.io/Stats_learning_trig/img/Stim/FN_015_g.png","post_TD","8","1711.199999988079","1999.5","fast","5","2","6102050090041d90dc5413f3","","","","","",""
"","image-keyboard-response","29","171703","0.0-5.0-8.0-0.0","3123","","","https://ziweizhang0304.github.io/Stats_learning_trig/img/Stim/FN_022_g.png","13","","","","","","","","","","","","","","","","","",""
"","animation","30","176124","0.0-5.0-8.0-1.0","","","","","","[{""stimulus"":""https://ziweizhang0304.github.io/Stats_learning_trig/img/Stim/FN_017_g.png"",""time"":352.0999999642372},{""stimulus"":""blank"",""time"":654.3999999761581},{""stimulus"":""https://ziweizhang0304.github.io/Stats_learning_trig/img/Stim/FN_019_g.png"",""time"":688.6999999880791},{""stimulus"":""blank"",""time"":989.5},{""stimulus"":""https://ziweizhang0304.github.io/Stats_learning_trig/img/Stim/FN_014_g.png"",""time"":1021.0999999642372},{""stimulus"":""blank"",""time"":1324.5999999642372},{""stimulus"":""https://ziweizhang0304.github.io/Stats_learning_trig/img/Stim/FN_011_g.png"",""time"":1361.5},{""stimulus"":""blank"",""time"":1672},{""stimulus"":""https://ziweizhang0304.github.io/Stats_learning_trig/img/Stim/FN_025_g.png"",""time"":1703.5999999642372},{""stimulus"":""blank"",""time"":2005},{""stimulus"":""https://ziweizhang0304.github.io/Stats_learning_trig/img/Stim/FN_016_g.png"",""time"":2040.699999988079},{""stimulus"":""blank"",""time"":2353.2999999523163},{""stimulus"":""https://ziweizhang0304.github.io/Stats_learning_trig/img/Stim/FN_022_g.png"",""time"":2385.699999988079},{""stimulus"":""blank"",""time"":2687.5},{""stimulus"":""https://ziweizhang0304.github.io/Stats_learning_trig/img/Stim/FN_015_g.png"",""time"":2721.099999964237},{""stimulus"":""blank"",""time"":3037.199999988079},{""stimulus"":""https://ziweizhang0304.github.io/Stats_learning_trig/img/Stim/FN_004_g.png"",""time"":3062},{""stimulus"":""blank"",""time"":3368.5},{""stimulus"":""https://ziweizhang0304.github.io/Stats_learning_trig/img/Stim/FN_003_g.png"",""time"":3401.7999999523163},{""stimulus"":""blank"",""time"":3702.699999988079},{""stimulus"":""https://ziweizhang0304.github.io/Stats_learning_trig/img/Stim/FN_001_g.png"",""time"":3749.599999964237},{""stimulus"":""blank"",""time"":4052.5},{""stimulus"":""https://ziweizhang0304.github.io/Stats_learning_trig/img/Stim/FN_008_g.png"",""time"":4084.399999976158},{""stimulus"":""blank"",""time"":4384.899999976158}]","[{""key_press"":32,""rt"":2674.699999988079,""stimulus"":""https://ziweizhang0304.github.io/Stats_learning_trig/img/Stim/FN_022_g.png""}]","289","https://ziweizhang0304.github.io/Stats_learning_trig/img/Stim/FN_022_g.png","post_TD","9","2385.699999988079","2674.699999988079","fast","7","1","6102050090041d90dc5413f3","","","","","",""
"","image-keyboard-response","31","180796","0.0-5.0-9.0-0.0","4670.699999988079","","","https://ziweizhang0304.github.io/Stats_learning_trig/img/Stim/FN_015_g.png","13","","","","","","","","","","","","","","","","","",""
"","animation","32","185218","0.0-5.0-9.0-1.0","","","","","","[{""stimulus"":""https://ziweizhang0304.github.io/Stats_learning_trig/img/Stim/FN_019_g.png"",""time"":350},{""stimulus"":""blank"",""time"":651.8999999761581},{""stimulus"":""https://ziweizhang0304.github.io/Stats_learning_trig/img/Stim/FN_011_g.png"",""time"":685.6999999880791},{""stimulus"":""blank"",""time"":1000.5999999642372},{""stimulus"":""https://ziweizhang0304.github.io/Stats_learning_trig/img/Stim/FN_014_g.png"",""time"":1021.2999999523163},{""stimulus"":""blank"",""time"":1333.5999999642372},{""stimulus"":""https://ziweizhang0304.github.io/Stats_learning_trig/img/Stim/FN_025_g.png"",""time"":1367.5},{""stimulus"":""blank"",""time"":1668.199999988079},{""stimulus"":""https://ziweizhang0304.github.io/Stats_learning_trig/img/Stim/FN_022_g.png"",""time"":1702.2999999523163},{""stimulus"":""blank"",""time"":2017.199999988079},{""stimulus"":""https://ziweizhang0304.github.io/Stats_learning_trig/img/Stim/FN_015_g.png"",""time"":2050.2999999523163},{""stimulus"":""blank"",""time"":2351.2999999523163},{""stimulus"":""https://ziweizhang0304.github.io/Stats_learning_trig/img/Stim/FN_004_g.png"",""time"":2381.099999964237},{""stimulus"":""blank"",""time"":2683.899999976158},{""stimulus"":""https://ziweizhang0304.github.io/Stats_learning_trig/img/Stim/FN_003_g.png"",""time"":2721.099999964237},{""stimulus"":""blank"",""time"":3031.5},{""stimulus"":""https://ziweizhang0304.github.io/Stats_learning_trig/img/Stim/FN_001_g.png"",""time"":3065},{""stimulus"":""blank"",""time"":3365.399999976158},{""stimulus"":""https://ziweizhang0304.github.io/Stats_learning_trig/img/Stim/FN_016_g.png"",""time"":3401},{""stimulus"":""blank"",""time"":3715.699999988079},{""stimulus"":""https://ziweizhang0304.github.io/Stats_learning_trig/img/Stim/FN_008_g.png"",""time"":3747.399999976158},{""stimulus"":""blank"",""time"":4063.699999988079},{""stimulus"":""https://ziweizhang0304.github.io/Stats_learning_trig/img/Stim/FN_017_g.png"",""time"":4082.599999964237},{""stimulus"":""blank"",""time"":4398.399999976158}]","[{""key_press"":32,""rt"":2364.100000023842,""stimulus"":""blank""}]","313.8000000715256","https://ziweizhang0304.github.io/Stats_learning_trig/img/Stim/FN_015_g.png","post_TD","10","2050.2999999523163","2364.100000023842","fast","6","2","6102050090041d90dc5413f3","","","","","",""
"","image-keyboard-response","33","187867","0.0-5.0-10.0-0.0","2646.699999988079","","","https://ziweizhang0304.github.io/Stats_learning_trig/img/Stim/FN_006_g.png","13","","","","","","","","","","","","","","","","","",""
"","animation","34","192288","0.0-5.0-10.0-1.0","","","","","","[{""stimulus"":""https://ziweizhang0304.github.io/Stats_learning_trig/img/Stim/FN_017_g.png"",""time"":355.30000001192093},{""stimulus"":""blank"",""time"":656.6999999880791},{""stimulus"":""https://ziweizhang0304.github.io/Stats_learning_trig/img/Stim/FN_016_g.png"",""time"":688.8999999761581},{""stimulus"":""blank"",""time"":990.5},{""stimulus"":""https://ziweizhang0304.github.io/Stats_learning_trig/img/Stim/FN_001_g.png"",""time"":1021.3000000119209},{""stimulus"":""blank"",""time"":1322.3999999761581},{""stimulus"":""https://ziweizhang0304.github.io/Stats_learning_trig/img/Stim/FN_012_g.png"",""time"":1369.800000011921},{""stimulus"":""blank"",""time"":1672.8999999761581},{""stimulus"":""https://ziweizhang0304.github.io/Stats_learning_trig/img/Stim/FN_006_g.png"",""time"":1701.8999999761581},{""stimulus"":""blank"",""time"":2002.199999988079},{""stimulus"":""https://ziweizhang0304.github.io/Stats_learning_trig/img/Stim/FN_021_g.png"",""time"":2055.399999976158},{""stimulus"":""blank"",""time"":2357},{""stimulus"":""https://ziweizhang0304.github.io/Stats_learning_trig/img/Stim/FN_025_g.png"",""time"":2389.099999964237},{""stimulus"":""blank"",""time"":2689.899999976158},{""stimulus"":""https://ziweizhang0304.github.io/Stats_learning_trig/img/Stim/FN_003_g.png"",""time"":2722},{""stimulus"":""blank"",""time"":3022.800000011921},{""stimulus"":""https://ziweizhang0304.github.io/Stats_learning_trig/img/Stim/FN_011_g.png"",""time"":3060.899999976158},{""stimulus"":""blank"",""time"":3371.599999964237},{""stimulus"":""https://ziweizhang0304.github.io/Stats_learning_trig/img/Stim/FN_014_g.png"",""time"":3401.5},{""stimulus"":""blank"",""time"":3702.300000011921},{""stimulus"":""https://ziweizhang0304.github.io/Stats_learning_trig/img/Stim/FN_008_g.png"",""time"":3750.800000011921},{""stimulus"":""blank"",""time"":4052.800000011921},{""stimulus"":""https://ziweizhang0304.github.io/Stats_learning_trig/img/Stim/FN_019_g.png"",""time"":4086.399999976158},{""stimulus"":""blank"",""time"":4387.199999988079}]","[{""key_press"":32,""rt"":2001.300000011921,""stimulus"":""https://ziweizhang0304.github.io/Stats_learning_trig/img/Stim/FN_006_g.png""}]","299.4000000357628","https://ziweizhang0304.github.io/Stats_learning_trig/img/Stim/FN_006_g.png","post_TD","11","1701.8999999761581","2001.300000011921","slow","5","2","6102050090041d90dc5413f3","","","","","",""
"","image-keyboard-response","35","194761","0.0-5.0-11.0-0.0","2471.399999976158","","","https://ziweizhang0304.github.io/Stats_learning_trig/img/Stim/FN_022_g.png","13","","","","","","","","","","","","","","","","","",""
"","animation","36","199183","0.0-5.0-11.0-1.0","","","","","","[{""stimulus"":""https://ziweizhang0304.github.io/Stats_learning_trig/img/Stim/FN_019_g.png"",""time"":352.60000002384186},{""stimulus"":""blank"",""time"":655.1000000238419},{""stimulus"":""https://ziweizhang0304.github.io/Stats_learning_trig/img/Stim/FN_016_g.png"",""time"":689},{""stimulus"":""blank"",""time"":991},{""stimulus"":""https://ziweizhang0304.github.io/Stats_learning_trig/img/Stim/FN_001_g.png"",""time"":1020.9000000357628},{""stimulus"":""blank"",""time"":1322},{""stimulus"":""https://ziweizhang0304.github.io/Stats_learning_trig/img/Stim/FN_014_g.png"",""time"":1361.5},{""stimulus"":""blank"",""time"":1671.4000000357628},{""stimulus"":""https://ziweizhang0304.github.io/Stats_learning_trig/img/Stim/FN_017_g.png"",""time"":1703.4000000357628},{""stimulus"":""blank"",""time"":2006.5},{""stimulus"":""https://ziweizhang0304.github.io/Stats_learning_trig/img/Stim/FN_022_g.png"",""time"":2054.100000023842},{""stimulus"":""blank"",""time"":2369.100000023842},{""stimulus"":""https://ziweizhang0304.github.io/Stats_learning_trig/img/Stim/FN_015_g.png"",""time"":2387.100000023842},{""stimulus"":""blank"",""time"":2688.2000000476837},{""stimulus"":""https://ziweizhang0304.github.io/Stats_learning_trig/img/Stim/FN_004_g.png"",""time"":2722.7000000476837},{""stimulus"":""blank"",""time"":3037.2000000476837},{""stimulus"":""https://ziweizhang0304.github.io/Stats_learning_trig/img/Stim/FN_025_g.png"",""time"":3070.100000023842},{""stimulus"":""blank"",""time"":3373.2000000476837},{""stimulus"":""https://ziweizhang0304.github.io/Stats_learning_trig/img/Stim/FN_003_g.png"",""time"":3401.900000035763},{""stimulus"":""blank"",""time"":3703},{""stimulus"":""https://ziweizhang0304.github.io/Stats_learning_trig/img/Stim/FN_011_g.png"",""time"":3750.800000011921},{""stimulus"":""blank"",""time"":4054.7000000476837},{""stimulus"":""https://ziweizhang0304.github.io/Stats_learning_trig/img/Stim/FN_008_g.png"",""time"":4085.800000011921},{""stimulus"":""blank"",""time"":4388}]","[{""key_press"":32,""rt"":2335.5,""stimulus"":""https://ziweizhang0304.github.io/Stats_learning_trig/img/Stim/FN_022_g.png""}]","281.39999997615814","https://ziweizhang0304.github.io/Stats_learning_trig/img/Stim/FN_022_g.png","post_TD","12","2054.100000023842","2335.5","fast","6","1","6102050090041d90dc5413f3","","","","","",""
"","image-keyboard-response","37","200302","0.0-5.0-12.0-0.0","1116.5","","","https://ziweizhang0304.github.io/Stats_learning_trig/img/Stim/FN_004_g.png","13","","","","","","","","","","","","","","","","","",""
"","animation","38","204723","0.0-5.0-12.0-1.0","","","","","","[{""stimulus"":""https://ziweizhang0304.github.io/Stats_learning_trig/img/Stim/FN_019_g.png"",""time"":341.5},{""stimulus"":""blank"",""time"":643.3999999761581},{""stimulus"":""https://ziweizhang0304.github.io/Stats_learning_trig/img/Stim/FN_011_g.png"",""time"":681.5999999642372},{""stimulus"":""blank"",""time"":994.3000000119209},{""stimulus"":""https://ziweizhang0304.github.io/Stats_learning_trig/img/Stim/FN_014_g.png"",""time"":1020.8000000119209},{""stimulus"":""blank"",""time"":1325.800000011921},{""stimulus"":""https://ziweizhang0304.github.io/Stats_learning_trig/img/Stim/FN_025_g.png"",""time"":1373.300000011921},{""stimulus"":""blank"",""time"":1685.5999999642372},{""stimulus"":""https://ziweizhang0304.github.io/Stats_learning_trig/img/Stim/FN_022_g.png"",""time"":1701.3999999761581},{""stimulus"":""blank"",""time"":2007.199999988079},{""stimulus"":""https://ziweizhang0304.github.io/Stats_learning_trig/img/Stim/FN_015_g.png"",""time"":2055},{""stimulus"":""blank"",""time"":2357.199999988079},{""stimulus"":""https://ziweizhang0304.github.io/Stats_learning_trig/img/Stim/FN_004_g.png"",""time"":2389.899999976158},{""stimulus"":""blank"",""time"":2693},{""stimulus"":""https://ziweizhang0304.github.io/Stats_learning_trig/img/Stim/FN_003_g.png"",""time"":2721.099999964237},{""stimulus"":""blank"",""time"":3025.5},{""stimulus"":""https://ziweizhang0304.github.io/Stats_learning_trig/img/Stim/FN_001_g.png"",""time"":3061.599999964237},{""stimulus"":""blank"",""time"":3373.899999976158},{""stimulus"":""https://ziweizhang0304.github.io/Stats_learning_trig/img/Stim/FN_016_g.png"",""time"":3401.199999988079},{""stimulus"":""blank"",""time"":3705.399999976158},{""stimulus"":""https://ziweizhang0304.github.io/Stats_learning_trig/img/Stim/FN_008_g.png"",""time"":3754},{""stimulus"":""blank"",""time"":4056.399999976158},{""stimulus"":""https://ziweizhang0304.github.io/Stats_learning_trig/img/Stim/FN_017_g.png"",""time"":4088.899999976158},{""stimulus"":""blank"",""time"":4390.199999988079}]","[{""key_press"":32,""rt"":2711.800000011921,""stimulus"":""blank""}]","321.9000000357628","https://ziweizhang0304.github.io/Stats_learning_trig/img/Stim/FN_004_g.png","post_TD","13","2389.899999976158","2711.800000011921","fast","7","3","6102050090041d90dc5413f3","","","","","",""
"","image-keyboard-response","39","206402","0.0-5.0-13.0-0.0","1676.6000000238419","","","https://ziweizhang0304.github.io/Stats_learning_trig/img/Stim/FN_021_g.png","13","","","","","","","","","","","","","","","","","",""
"","animation","40","210823","0.0-5.0-13.0-1.0","","","","","","[{""stimulus"":""https://ziweizhang0304.github.io/Stats_learning_trig/img/Stim/FN_017_g.png"",""time"":349.80000001192093},{""stimulus"":""blank"",""time"":652.1999999880791},{""stimulus"":""https://ziweizhang0304.github.io/Stats_learning_trig/img/Stim/FN_016_g.png"",""time"":686.5999999642372},{""stimulus"":""blank"",""time"":1001.8999999761581},{""stimulus"":""https://ziweizhang0304.github.io/Stats_learning_trig/img/Stim/FN_001_g.png"",""time"":1035},{""stimulus"":""blank"",""time"":1339.300000011921},{""stimulus"":""https://ziweizhang0304.github.io/Stats_learning_trig/img/Stim/FN_012_g.png"",""time"":1360.800000011921},{""stimulus"":""blank"",""time"":1668.5},{""stimulus"":""https://ziweizhang0304.github.io/Stats_learning_trig/img/Stim/FN_006_g.png"",""time"":1701.5999999642372},{""stimulus"":""blank"",""time"":2002.3999999761581},{""stimulus"":""https://ziweizhang0304.github.io/Stats_learning_trig/img/Stim/FN_021_g.png"",""time"":2041.0999999642372},{""stimulus"":""blank"",""time"":2351},{""stimulus"":""https://ziweizhang0304.github.io/Stats_learning_trig/img/Stim/FN_025_g.png"",""time"":2383.899999976158},{""stimulus"":""blank"",""time"":2698.300000011921},{""stimulus"":""https://ziweizhang0304.github.io/Stats_learning_trig/img/Stim/FN_003_g.png"",""time"":2721.399999976158},{""stimulus"":""blank"",""time"":3034.199999988079},{""stimulus"":""https://ziweizhang0304.github.io/Stats_learning_trig/img/Stim/FN_011_g.png"",""time"":3061.300000011921},{""stimulus"":""blank"",""time"":3366.899999976158},{""stimulus"":""https://ziweizhang0304.github.io/Stats_learning_trig/img/Stim/FN_014_g.png"",""time"":3401.800000011921},{""stimulus"":""blank"",""time"":3717.5},{""stimulus"":""https://ziweizhang0304.github.io/Stats_learning_trig/img/Stim/FN_008_g.png"",""time"":3749.199999988079},{""stimulus"":""blank"",""time"":4050.399999976158},{""stimulus"":""https://ziweizhang0304.github.io/Stats_learning_trig/img/Stim/FN_019_g.png"",""time"":4082.099999964237},{""stimulus"":""blank"",""time"":4383.899999976158}]","[{""key_press"":32,""rt"":2005.0999999642372,""stimulus"":""blank""},{""key_press"":32,""rt"":2623.899999976158,""stimulus"":""https://ziweizhang0304.github.io/Stats_learning_trig/img/Stim/FN_025_g.png""}]","582.8000000119209","https://ziweizhang0304.github.io/Stats_learning_trig/img/Stim/FN_021_g.png","post_TD","14","2041.0999999642372","2623.899999976158","slow","6","3","6102050090041d90dc5413f3","","","","","",""
"","image-keyboard-response","41","213182","0.0-5.0-14.0-0.0","2356.699999988079","","","https://ziweizhang0304.github.io/Stats_learning_trig/img/Stim/FN_006_g.png","13","","","","","","","","","","","","","","","","","",""
"","animation","42","217628","0.0-5.0-14.0-1.0","","","","","","[{""stimulus"":""https://ziweizhang0304.github.io/Stats_learning_trig/img/Stim/FN_008_g.png"",""time"":348.19999998807907},{""stimulus"":""blank"",""time"":649.2999999523163},{""stimulus"":""https://ziweizhang0304.github.io/Stats_learning_trig/img/Stim/FN_017_g.png"",""time"":681.0999999642372},{""stimulus"":""blank"",""time"":983.3999999761581},{""stimulus"":""https://ziweizhang0304.github.io/Stats_learning_trig/img/Stim/FN_014_g.png"",""time"":1031.2999999523163},{""stimulus"":""blank"",""time"":1333.8999999761581},{""stimulus"":""https://ziweizhang0304.github.io/Stats_learning_trig/img/Stim/FN_011_g.png"",""time"":1366.2999999523163},{""stimulus"":""blank"",""time"":1667.2999999523163},{""stimulus"":""https://ziweizhang0304.github.io/Stats_learning_trig/img/Stim/FN_001_g.png"",""time"":1701.0999999642372},{""stimulus"":""blank"",""time"":2015.3999999761581},{""stimulus"":""https://ziweizhang0304.github.io/Stats_learning_trig/img/Stim/FN_019_g.png"",""time"":2047.3999999761581},{""stimulus"":""blank"",""time"":2350},{""stimulus"":""https://ziweizhang0304.github.io/Stats_learning_trig/img/Stim/FN_012_g.png"",""time"":2381.5},{""stimulus"":""blank"",""time"":2682.2999999523163},{""stimulus"":""https://ziweizhang0304.github.io/Stats_learning_trig/img/Stim/FN_006_g.png"",""time"":2729.5},{""stimulus"":""blank"",""time"":3030.199999988079},{""stimulus"":""https://ziweizhang0304.github.io/Stats_learning_trig/img/Stim/FN_021_g.png"",""time"":3062.699999988079},{""stimulus"":""blank"",""time"":3364.699999988079},{""stimulus"":""https://ziweizhang0304.github.io/Stats_learning_trig/img/Stim/FN_025_g.png"",""time"":3400.899999976158},{""stimulus"":""blank"",""time"":3712.599999964237},{""stimulus"":""https://ziweizhang0304.github.io/Stats_learning_trig/img/Stim/FN_003_g.png"",""time"":3745.899999976158},{""stimulus"":""blank"",""time"":4047.2999999523163},{""stimulus"":""https://ziweizhang0304.github.io/Stats_learning_trig/img/Stim/FN_016_g.png"",""time"":4082.7999999523163},{""stimulus"":""blank"",""time"":4385.299999952316}]","[{""key_press"":32,""rt"":3023,""stimulus"":""https://ziweizhang0304.github.io/Stats_learning_trig/img/Stim/FN_006_g.png""}]","293.5","https://ziweizhang0304.github.io/Stats_learning_trig/img/Stim/FN_006_g.png","post_TD","15","2729.5","3023","slow","8","2","6102050090041d90dc5413f3","","","","","",""
"","image-keyboard-response","43","218524","0.0-5.0-15.0-0.0","892.9000000357628","","","https://ziweizhang0304.github.io/Stats_learning_trig/img/Stim/FN_015_g.png","13","","","","","","","","","","","","","","","","","",""
"","animation","44","222973","0.0-5.0-15.0-1.0","","","","","","[{""stimulus"":""https://ziweizhang0304.github.io/Stats_learning_trig/img/Stim/FN_017_g.png"",""time"":349.89999997615814},{""stimulus"":""blank"",""time"":652.7999999523163},{""stimulus"":""https://ziweizhang0304.github.io/Stats_learning_trig/img/Stim/FN_019_g.png"",""time"":681.1999999880791},{""stimulus"":""blank"",""time"":985.0999999642372},{""stimulus"":""https://ziweizhang0304.github.io/Stats_learning_trig/img/Stim/FN_014_g.png"",""time"":1034.699999988079},{""stimulus"":""blank"",""time"":1336.199999988079},{""stimulus"":""https://ziweizhang0304.github.io/Stats_learning_trig/img/Stim/FN_011_g.png"",""time"":1367.5},{""stimulus"":""blank"",""time"":1669},{""stimulus"":""https://ziweizhang0304.github.io/Stats_learning_trig/img/Stim/FN_025_g.png"",""time"":1701.5},{""stimulus"":""blank"",""time"":2017.199999988079},{""stimulus"":""https://ziweizhang0304.github.io/Stats_learning_trig/img/Stim/FN_016_g.png"",""time"":2042},{""stimulus"":""blank"",""time"":2349.5},{""stimulus"":""https://ziweizhang0304.github.io/Stats_learning_trig/img/Stim/FN_022_g.png"",""time"":2383.199999988079},{""stimulus"":""blank"",""time"":2685.099999964237},{""stimulus"":""https://ziweizhang0304.github.io/Stats_learning_trig/img/Stim/FN_015_g.png"",""time"":2720.7999999523163},{""stimulus"":""blank"",""time"":3022},{""stimulus"":""https://ziweizhang0304.github.io/Stats_learning_trig/img/Stim/FN_004_g.png"",""time"":3065.5},{""stimulus"":""blank"",""time"":3367.099999964237},{""stimulus"":""https://ziweizhang0304.github.io/Stats_learning_trig/img/Stim/FN_003_g.png"",""time"":3400.7999999523163},{""stimulus"":""blank"",""time"":3701.699999988079},{""stimulus"":""https://ziweizhang0304.github.io/Stats_learning_trig/img/Stim/FN_001_g.png"",""time"":3741.699999988079},{""stimulus"":""blank"",""time"":4050.5},{""stimulus"":""https://ziweizhang0304.github.io/Stats_learning_trig/img/Stim/FN_008_g.png"",""time"":4081.7999999523163},{""stimulus"":""blank"",""time"":4385.799999952316}]","[{""key_press"":32,""rt"":3021.2999999523163,""stimulus"":""https://ziweizhang0304.github.io/Stats_learning_trig/img/Stim/FN_015_g.png""}]","300.5","https://ziweizhang0304.github.io/Stats_learning_trig/img/Stim/FN_015_g.png","post_TD","16","2720.7999999523163","3021.2999999523163","fast","8","2","6102050090041d90dc5413f3","","","","","",""
"","image-keyboard-response","45","223716","0.0-5.0-16.0-0.0","740.5","","","https://ziweizhang0304.github.io/Stats_learning_trig/img/Stim/FN_022_g.png","13","","","","","","","","","","","","","","","","","",""
"","animation","46","228168","0.0-5.0-16.0-1.0","","","","","","[{""stimulus"":""https://ziweizhang0304.github.io/Stats_learning_trig/img/Stim/FN_014_g.png"",""time"":353.19999998807907},{""stimulus"":""blank"",""time"":658},{""stimulus"":""https://ziweizhang0304.github.io/Stats_learning_trig/img/Stim/FN_019_g.png"",""time"":681},{""stimulus"":""blank"",""time"":987.6999999880791},{""stimulus"":""https://ziweizhang0304.github.io/Stats_learning_trig/img/Stim/FN_008_g.png"",""time"":1022.3999999761581},{""stimulus"":""blank"",""time"":1337.800000011921},{""stimulus"":""https://ziweizhang0304.github.io/Stats_learning_trig/img/Stim/FN_022_g.png"",""time"":1371},{""stimulus"":""blank"",""time"":1672.5},{""stimulus"":""https://ziweizhang0304.github.io/Stats_learning_trig/img/Stim/FN_015_g.png"",""time"":1701.800000011921},{""stimulus"":""blank"",""time"":2003.3999999761581},{""stimulus"":""https://ziweizhang0304.github.io/Stats_learning_trig/img/Stim/FN_004_g.png"",""time"":2053},{""stimulus"":""blank"",""time"":2355.5},{""stimulus"":""https://ziweizhang0304.github.io/Stats_learning_trig/img/Stim/FN_025_g.png"",""time"":2386.599999964237},{""stimulus"":""blank"",""time"":2700.300000011921},{""stimulus"":""https://ziweizhang0304.github.io/Stats_learning_trig/img/Stim/FN_003_g.png"",""time"":2721.699999988079},{""stimulus"":""blank"",""time"":3022.300000011921},{""stimulus"":""https://ziweizhang0304.github.io/Stats_learning_trig/img/Stim/FN_011_g.png"",""time"":3061.800000011921},{""stimulus"":""blank"",""time"":3370},{""stimulus"":""https://ziweizhang0304.github.io/Stats_learning_trig/img/Stim/FN_001_g.png"",""time"":3401.5},{""stimulus"":""blank"",""time"":3703.300000011921},{""stimulus"":""https://ziweizhang0304.github.io/Stats_learning_trig/img/Stim/FN_016_g.png"",""time"":3740.800000011921},{""stimulus"":""blank"",""time"":4052.599999964237},{""stimulus"":""https://ziweizhang0304.github.io/Stats_learning_trig/img/Stim/FN_017_g.png"",""time"":4084.800000011921},{""stimulus"":""blank"",""time"":4388.899999976158}]","[{""key_press"":32,""rt"":1709.4000000357628,""stimulus"":""https://ziweizhang0304.github.io/Stats_learning_trig/img/Stim/FN_015_g.png""}]","338.4000000357628","https://ziweizhang0304.github.io/Stats_learning_trig/img/Stim/FN_022_g.png","post_TD","17","1371","1709.4000000357628","fast","4","1","6102050090041d90dc5413f3","","","","","",""
"","image-keyboard-response","47","229042","0.0-5.0-17.0-0.0","872","","","https://ziweizhang0304.github.io/Stats_learning_trig/img/Stim/FN_021_g.png","13","","","","","","","","","","","","","","","","","",""
"","animation","48","233463","0.0-5.0-17.0-1.0","","","","","","[{""stimulus"":""https://ziweizhang0304.github.io/Stats_learning_trig/img/Stim/FN_008_g.png"",""time"":355.30000001192093},{""stimulus"":""blank"",""time"":657.3999999761581},{""stimulus"":""https://ziweizhang0304.github.io/Stats_learning_trig/img/Stim/FN_017_g.png"",""time"":691.3999999761581},{""stimulus"":""blank"",""time"":1007.1999999880791},{""stimulus"":""https://ziweizhang0304.github.io/Stats_learning_trig/img/Stim/FN_014_g.png"",""time"":1023.8999999761581},{""stimulus"":""blank"",""time"":1339.5999999642372},{""stimulus"":""https://ziweizhang0304.github.io/Stats_learning_trig/img/Stim/FN_011_g.png"",""time"":1361.3999999761581},{""stimulus"":""blank"",""time"":1673.5999999642372},{""stimulus"":""https://ziweizhang0304.github.io/Stats_learning_trig/img/Stim/FN_001_g.png"",""time"":1706.199999988079},{""stimulus"":""blank"",""time"":2022.300000011921},{""stimulus"":""https://ziweizhang0304.github.io/Stats_learning_trig/img/Stim/FN_019_g.png"",""time"":2053.300000011921},{""stimulus"":""blank"",""time"":2355.300000011921},{""stimulus"":""https://ziweizhang0304.github.io/Stats_learning_trig/img/Stim/FN_012_g.png"",""time"":2389.099999964237},{""stimulus"":""blank"",""time"":2691.5},{""stimulus"":""https://ziweizhang0304.github.io/Stats_learning_trig/img/Stim/FN_006_g.png"",""time"":2722.199999988079},{""stimulus"":""blank"",""time"":3023.399999976158},{""stimulus"":""https://ziweizhang0304.github.io/Stats_learning_trig/img/Stim/FN_021_g.png"",""time"":3071.399999976158},{""stimulus"":""blank"",""time"":3384.199999988079},{""stimulus"":""https://ziweizhang0304.github.io/Stats_learning_trig/img/Stim/FN_025_g.png"",""time"":3402.099999964237},{""stimulus"":""blank"",""time"":3712.399999976158},{""stimulus"":""https://ziweizhang0304.github.io/Stats_learning_trig/img/Stim/FN_003_g.png"",""time"":3745.699999988079},{""stimulus"":""blank"",""time"":4054.300000011921},{""stimulus"":""https://ziweizhang0304.github.io/Stats_learning_trig/img/Stim/FN_016_g.png"",""time"":4087.800000011921},{""stimulus"":""blank"",""time"":4397}]","[{""key_press"":32,""rt"":2052.5,""stimulus"":""blank""},{""key_press"":32,""rt"":3415.900000035763,""stimulus"":""https://ziweizhang0304.github.io/Stats_learning_trig/img/Stim/FN_025_g.png""}]","344.50000005960464","https://ziweizhang0304.github.io/Stats_learning_trig/img/Stim/FN_021_g.png","post_TD","18","3071.399999976158","3415.900000035763","slow","9","3","6102050090041d90dc5413f3","","","","","",""
"","image-keyboard-response","49","234718","0.0-5.0-18.0-0.0","1252.699999988079","","","https://ziweizhang0304.github.io/Stats_learning_trig/img/Stim/FN_021_g.png","13","","","","","","","","","","","","","","","","","",""
"","animation","50","239140","0.0-5.0-18.0-1.0","","","","","","[{""stimulus"":""https://ziweizhang0304.github.io/Stats_learning_trig/img/Stim/FN_019_g.png"",""time"":341.30000001192093},{""stimulus"":""blank"",""time"":646.3000000119209},{""stimulus"":""https://ziweizhang0304.github.io/Stats_learning_trig/img/Stim/FN_001_g.png"",""time"":682.1000000238419},{""stimulus"":""blank"",""time"":994.5},{""stimulus"":""https://ziweizhang0304.github.io/Stats_learning_trig/img/Stim/FN_008_g.png"",""time"":1021.3999999761581},{""stimulus"":""blank"",""time"":1326.6000000238419},{""stimulus"":""https://ziweizhang0304.github.io/Stats_learning_trig/img/Stim/FN_003_g.png"",""time"":1375.300000011921},{""stimulus"":""blank"",""time"":1676.300000011921},{""stimulus"":""https://ziweizhang0304.github.io/Stats_learning_trig/img/Stim/FN_012_g.png"",""time"":1707.699999988079},{""stimulus"":""blank"",""time"":2010.300000011921},{""stimulus"":""https://ziweizhang0304.github.io/Stats_learning_trig/img/Stim/FN_006_g.png"",""time"":2041.5},{""stimulus"":""blank"",""time"":2343.199999988079},{""stimulus"":""https://ziweizhang0304.github.io/Stats_learning_trig/img/Stim/FN_021_g.png"",""time"":2381.399999976158},{""stimulus"":""blank"",""time"":2692.199999988079},{""stimulus"":""https://ziweizhang0304.github.io/Stats_learning_trig/img/Stim/FN_025_g.png"",""time"":2723.800000011921},{""stimulus"":""blank"",""time"":3026.5},{""stimulus"":""https://ziweizhang0304.github.io/Stats_learning_trig/img/Stim/FN_011_g.png"",""time"":3061.300000011921},{""stimulus"":""blank"",""time"":3376},{""stimulus"":""https://ziweizhang0304.github.io/Stats_learning_trig/img/Stim/FN_016_g.png"",""time"":3401.699999988079},{""stimulus"":""blank"",""time"":3707.5},{""stimulus"":""https://ziweizhang0304.github.io/Stats_learning_trig/img/Stim/FN_014_g.png"",""time"":3741.100000023842},{""stimulus"":""blank"",""time"":4044.699999988079},{""stimulus"":""https://ziweizhang0304.github.io/Stats_learning_trig/img/Stim/FN_017_g.png"",""time"":4081.100000023842},{""stimulus"":""blank"",""time"":4390}]","[{""key_press"":32,""rt"":2737.2999999523163,""stimulus"":""https://ziweizhang0304.github.io/Stats_learning_trig/img/Stim/FN_025_g.png""}]","355.89999997615814","https://ziweizhang0304.github.io/Stats_learning_trig/img/Stim/FN_021_g.png","post_TD","19","2381.399999976158","2737.2999999523163","slow","7","3","6102050090041d90dc5413f3","","","","","",""
"","image-keyboard-response","51","239810","0.0-5.0-19.0-0.0","668.5999999642372","","","https://ziweizhang0304.github.io/Stats_learning_trig/img/Stim/FN_015_g.png","13","","","","","","","","","","","","","","","","","",""
"","animation","52","244235","0.0-5.0-19.0-1.0","","","","","","[{""stimulus"":""https://ziweizhang0304.github.io/Stats_learning_trig/img/Stim/FN_019_g.png"",""time"":342},{""stimulus"":""blank"",""time"":644.8999999761581},{""stimulus"":""https://ziweizhang0304.github.io/Stats_learning_trig/img/Stim/FN_016_g.png"",""time"":694.5999999642372},{""stimulus"":""blank"",""time"":995.5999999642372},{""stimulus"":""https://ziweizhang0304.github.io/Stats_learning_trig/img/Stim/FN_001_g.png"",""time"":1028.5999999642372},{""stimulus"":""blank"",""time"":1331.5},{""stimulus"":""https://ziweizhang0304.github.io/Stats_learning_trig/img/Stim/FN_014_g.png"",""time"":1361.0999999642372},{""stimulus"":""blank"",""time"":1663.3999999761581},{""stimulus"":""https://ziweizhang0304.github.io/Stats_learning_trig/img/Stim/FN_017_g.png"",""time"":1701.300000011921},{""stimulus"":""blank"",""time"":2011.800000011921},{""stimulus"":""https://ziweizhang0304.github.io/Stats_learning_trig/img/Stim/FN_022_g.png"",""time"":2043.300000011921},{""stimulus"":""blank"",""time"":2344.199999988079},{""stimulus"":""https://ziweizhang0304.github.io/Stats_learning_trig/img/Stim/FN_015_g.png"",""time"":2391},{""stimulus"":""blank"",""time"":2695.099999964237},{""stimulus"":""https://ziweizhang0304.github.io/Stats_learning_trig/img/Stim/FN_004_g.png"",""time"":2721.399999976158},{""stimulus"":""blank"",""time"":3031.300000011921},{""stimulus"":""https://ziweizhang0304.github.io/Stats_learning_trig/img/Stim/FN_025_g.png"",""time"":3061.099999964237},{""stimulus"":""blank"",""time"":3364.5},{""stimulus"":""https://ziweizhang0304.github.io/Stats_learning_trig/img/Stim/FN_003_g.png"",""time"":3401.300000011921},{""stimulus"":""blank"",""time"":3709.199999988079},{""stimulus"":""https://ziweizhang0304.github.io/Stats_learning_trig/img/Stim/FN_011_g.png"",""time"":3740.800000011921},{""stimulus"":""blank"",""time"":4043.699999988079},{""stimulus"":""https://ziweizhang0304.github.io/Stats_learning_trig/img/Stim/FN_008_g.png"",""time"":4090.300000011921},{""stimulus"":""blank"",""time"":4390.5}]","[{""key_press"":32,""rt"":2699.600000023842,""stimulus"":""blank""}]","308.60000002384186","https://ziweizhang0304.github.io/Stats_learning_trig/img/Stim/FN_015_g.png","post_TD","20","2391","2699.600000023842","fast","7","2","6102050090041d90dc5413f3","","","","","",""
"","image-keyboard-response","53","245032","0.0-5.0-20.0-0.0","794.8999999761581","","","https://ziweizhang0304.github.io/Stats_learning_trig/img/Stim/FN_004_g.png","13","","","","","","","","","","","","","","","","","",""
"","animation","54","249465","0.0-5.0-20.0-1.0","","","","","","[{""stimulus"":""https://ziweizhang0304.github.io/Stats_learning_trig/img/Stim/FN_019_g.png"",""time"":353.80000001192093},{""stimulus"":""blank"",""time"":654.6000000238419},{""stimulus"":""https://ziweizhang0304.github.io/Stats_learning_trig/img/Stim/FN_016_g.png"",""time"":681.5},{""stimulus"":""blank"",""time"":985.1000000238419},{""stimulus"":""https://ziweizhang0304.github.io/Stats_learning_trig/img/Stim/FN_001_g.png"",""time"":1033.800000011921},{""stimulus"":""blank"",""time"":1337.1000000238419},{""stimulus"":""https://ziweizhang0304.github.io/Stats_learning_trig/img/Stim/FN_014_g.png"",""time"":1369.5},{""stimulus"":""blank"",""time"":1671.199999988079},{""stimulus"":""https://ziweizhang0304.github.io/Stats_learning_trig/img/Stim/FN_017_g.png"",""time"":1701.8999999761581},{""stimulus"":""blank"",""time"":2017.5},{""stimulus"":""https://ziweizhang0304.github.io/Stats_learning_trig/img/Stim/FN_022_g.png"",""time"":2052.399999976158},{""stimulus"":""blank"",""time"":2361.199999988079},{""stimulus"":""https://ziweizhang0304.github.io/Stats_learning_trig/img/Stim/FN_015_g.png"",""time"":2380.899999976158},{""stimulus"":""blank"",""time"":2684.199999988079},{""stimulus"":""https://ziweizhang0304.github.io/Stats_learning_trig/img/Stim/FN_004_g.png"",""time"":2733.399999976158},{""stimulus"":""blank"",""time"":3034.699999988079},{""stimulus"":""https://ziweizhang0304.github.io/Stats_learning_trig/img/Stim/FN_025_g.png"",""time"":3067.100000023842},{""stimulus"":""blank"",""time"":3369},{""stimulus"":""https://ziweizhang0304.github.io/Stats_learning_trig/img/Stim/FN_003_g.png"",""time"":3400.800000011921},{""stimulus"":""blank"",""time"":3713.100000023842},{""stimulus"":""https://ziweizhang0304.github.io/Stats_learning_trig/img/Stim/FN_011_g.png"",""time"":3741.399999976158},{""stimulus"":""blank"",""time"":4050.600000023842},{""stimulus"":""https://ziweizhang0304.github.io/Stats_learning_trig/img/Stim/FN_008_g.png"",""time"":4082.699999988079},{""stimulus"":""blank"",""time"":4385.399999976158}]","[{""key_press"":32,""rt"":2282.5,""stimulus"":""https://ziweizhang0304.github.io/Stats_learning_trig/img/Stim/FN_022_g.png""},{""key_press"":32,""rt"":3617,""stimulus"":""https://ziweizhang0304.github.io/Stats_learning_trig/img/Stim/FN_003_g.png""}]","883.6000000238419","https://ziweizhang0304.github.io/Stats_learning_trig/img/Stim/FN_004_g.png","post_TD","21","2733.399999976158","3617","fast","8","3","6102050090041d90dc5413f3","","","","","",""
"","image-keyboard-response","55","250102","0.0-5.0-21.0-0.0","633.8999999761581","","","https://ziweizhang0304.github.io/Stats_learning_trig/img/Stim/FN_021_g.png","13","","","","","","","","","","","","","","","","","",""
"","animation","56","254524","0.0-5.0-21.0-1.0","","","","","","[{""stimulus"":""https://ziweizhang0304.github.io/Stats_learning_trig/img/Stim/FN_016_g.png"",""time"":345.89999997615814},{""stimulus"":""blank"",""time"":661.5999999642372},{""stimulus"":""https://ziweizhang0304.github.io/Stats_learning_trig/img/Stim/FN_001_g.png"",""time"":694},{""stimulus"":""blank"",""time"":995},{""stimulus"":""https://ziweizhang0304.github.io/Stats_learning_trig/img/Stim/FN_008_g.png"",""time"":1020.8000000119209},{""stimulus"":""blank"",""time"":1330.800000011921},{""stimulus"":""https://ziweizhang0304.github.io/Stats_learning_trig/img/Stim/FN_025_g.png"",""time"":1361.3999999761581},{""stimulus"":""blank"",""time"":1663},{""stimulus"":""https://ziweizhang0304.github.io/Stats_learning_trig/img/Stim/FN_011_g.png"",""time"":1710.3999999761581},{""stimulus"":""blank"",""time"":2012.8999999761581},{""stimulus"":""https://ziweizhang0304.github.io/Stats_learning_trig/img/Stim/FN_012_g.png"",""time"":2044.199999988079},{""stimulus"":""blank"",""time"":2344.800000011921},{""stimulus"":""https://ziweizhang0304.github.io/Stats_learning_trig/img/Stim/FN_006_g.png"",""time"":2380.800000011921},{""stimulus"":""blank"",""time"":2696.099999964237},{""stimulus"":""https://ziweizhang0304.github.io/Stats_learning_trig/img/Stim/FN_021_g.png"",""time"":2721.199999988079},{""stimulus"":""blank"",""time"":3026.5},{""stimulus"":""https://ziweizhang0304.github.io/Stats_learning_trig/img/Stim/FN_003_g.png"",""time"":3061},{""stimulus"":""blank"",""time"":3375.800000011921},{""stimulus"":""https://ziweizhang0304.github.io/Stats_learning_trig/img/Stim/FN_014_g.png"",""time"":3401.099999964237},{""stimulus"":""blank"",""time"":3708},{""stimulus"":""https://ziweizhang0304.github.io/Stats_learning_trig/img/Stim/FN_017_g.png"",""time"":3741},{""stimulus"":""blank"",""time"":4045.300000011921},{""stimulus"":""https://ziweizhang0304.github.io/Stats_learning_trig/img/Stim/FN_019_g.png"",""time"":4080.800000011921},{""stimulus"":""blank"",""time"":4391.300000011921}]","[{""key_press"":32,""rt"":3082.2000000476837,""stimulus"":""https://ziweizhang0304.github.io/Stats_learning_trig/img/Stim/FN_003_g.png""}]","361.00000005960464","https://ziweizhang0304.github.io/Stats_learning_trig/img/Stim/FN_021_g.png","post_TD","22","2721.199999988079","3082.2000000476837","slow","8","3","6102050090041d90dc5413f3","","","","","",""
"","image-keyboard-response","57","255392","0.0-5.0-22.0-0.0","865.5","","","https://ziweizhang0304.github.io/Stats_learning_trig/img/Stim/FN_006_g.png","13","","","","","","","","","","","","","","","","","",""
"","animation","58","259822","0.0-5.0-22.0-1.0","","","","","","[{""stimulus"":""https://ziweizhang0304.github.io/Stats_learning_trig/img/Stim/FN_016_g.png"",""time"":349},{""stimulus"":""blank"",""time"":651.1999999880791},{""stimulus"":""https://ziweizhang0304.github.io/Stats_learning_trig/img/Stim/FN_001_g.png"",""time"":681.6999999880791},{""stimulus"":""blank"",""time"":982.6999999880791},{""stimulus"":""https://ziweizhang0304.github.io/Stats_learning_trig/img/Stim/FN_008_g.png"",""time"":1032.0999999642372},{""stimulus"":""blank"",""time"":1333.7999999523163},{""stimulus"":""https://ziweizhang0304.github.io/Stats_learning_trig/img/Stim/FN_025_g.png"",""time"":1365.5999999642372},{""stimulus"":""blank"",""time"":1667},{""stimulus"":""https://ziweizhang0304.github.io/Stats_learning_trig/img/Stim/FN_011_g.png"",""time"":1701},{""stimulus"":""blank"",""time"":2016.5999999642372},{""stimulus"":""https://ziweizhang0304.github.io/Stats_learning_trig/img/Stim/FN_012_g.png"",""time"":2049.399999976158},{""stimulus"":""blank"",""time"":2350.399999976158},{""stimulus"":""https://ziweizhang0304.github.io/Stats_learning_trig/img/Stim/FN_006_g.png"",""time"":2381.2999999523163},{""stimulus"":""blank"",""time"":2684.099999964237},{""stimulus"":""https://ziweizhang0304.github.io/Stats_learning_trig/img/Stim/FN_021_g.png"",""time"":2722.599999964237},{""stimulus"":""blank"",""time"":3032.5},{""stimulus"":""https://ziweizhang0304.github.io/Stats_learning_trig/img/Stim/FN_003_g.png"",""time"":3063.7999999523163},{""stimulus"":""blank"",""time"":3366.199999988079},{""stimulus"":""https://ziweizhang0304.github.io/Stats_learning_trig/img/Stim/FN_014_g.png"",""time"":3413.599999964237},{""stimulus"":""blank"",""time"":3714.5},{""stimulus"":""https://ziweizhang0304.github.io/Stats_learning_trig/img/Stim/FN_017_g.png"",""time"":3746.699999988079},{""stimulus"":""blank"",""time"":4047.699999988079},{""stimulus"":""https://ziweizhang0304.github.io/Stats_learning_trig/img/Stim/FN_019_g.png"",""time"":4081.099999964237},{""stimulus"":""blank"",""time"":4382.299999952316}]","[{""key_press"":32,""rt"":2721.900000035763,""stimulus"":""blank""}]","340.6000000834465","https://ziweizhang0304.github.io/Stats_learning_trig/img/Stim/FN_006_g.png","post_TD","23","2381.2999999523163","2721.900000035763","slow","7","2","6102050090041d90dc5413f3","","","","","",""
"","image-keyboard-response","59","260639","0.0-5.0-23.0-0.0","814","","","https://ziweizhang0304.github.io/Stats_learning_trig/img/Stim/FN_022_g.png","13","","","","","","","","","","","","","","","","","",""
"","animation","60","265066","0.0-5.0-23.0-1.0","","","","","","[{""stimulus"":""https://ziweizhang0304.github.io/Stats_learning_trig/img/Stim/FN_019_g.png"",""time"":347.5},{""stimulus"":""blank"",""time"":649.3999999761581},{""stimulus"":""https://ziweizhang0304.github.io/Stats_learning_trig/img/Stim/FN_011_g.png"",""time"":681.1999999880791},{""stimulus"":""blank"",""time"":999.1999999880791},{""stimulus"":""https://ziweizhang0304.github.io/Stats_learning_trig/img/Stim/FN_014_g.png"",""time"":1021.3999999761581},{""stimulus"":""blank"",""time"":1330.5},{""stimulus"":""https://ziweizhang0304.github.io/Stats_learning_trig/img/Stim/FN_025_g.png"",""time"":1362},{""stimulus"":""blank"",""time"":1664.3999999761581},{""stimulus"":""https://ziweizhang0304.github.io/Stats_learning_trig/img/Stim/FN_022_g.png"",""time"":1701.5},{""stimulus"":""blank"",""time"":2013.699999988079},{""stimulus"":""https://ziweizhang0304.github.io/Stats_learning_trig/img/Stim/FN_015_g.png"",""time"":2045},{""stimulus"":""blank"",""time"":2348.399999976158},{""stimulus"":""https://ziweizhang0304.github.io/Stats_learning_trig/img/Stim/FN_004_g.png"",""time"":2381.699999988079},{""stimulus"":""blank"",""time"":2712.300000011921},{""stimulus"":""https://ziweizhang0304.github.io/Stats_learning_trig/img/Stim/FN_003_g.png"",""time"":2729.099999964237},{""stimulus"":""blank"",""time"":3044.899999976158},{""stimulus"":""https://ziweizhang0304.github.io/Stats_learning_trig/img/Stim/FN_001_g.png"",""time"":3062.099999964237},{""stimulus"":""blank"",""time"":3362.599999964237},{""stimulus"":""https://ziweizhang0304.github.io/Stats_learning_trig/img/Stim/FN_016_g.png"",""time"":3410.199999988079},{""stimulus"":""blank"",""time"":3713.5},{""stimulus"":""https://ziweizhang0304.github.io/Stats_learning_trig/img/Stim/FN_008_g.png"",""time"":3744.800000011921},{""stimulus"":""blank"",""time"":4047.099999964237},{""stimulus"":""https://ziweizhang0304.github.io/Stats_learning_trig/img/Stim/FN_017_g.png"",""time"":4080.800000011921},{""stimulus"":""blank"",""time"":4394}]","[{""key_press"":32,""rt"":2047.8999999761581,""stimulus"":""https://ziweizhang0304.github.io/Stats_learning_trig/img/Stim/FN_015_g.png""}]","346.39999997615814","https://ziweizhang0304.github.io/Stats_learning_trig/img/Stim/FN_022_g.png","post_TD","24","1701.5","2047.8999999761581","fast","5","1","6102050090041d90dc5413f3","5beae","","","","",""
"","survey-text","61","278121","0.0-6.0","13041.800000011921","","","","","","","","","","","","","","","","","","{""Q0"":""unfocused my eyes ""}","","","",""
"","survey-text","62","302874","0.0-7.0","24750.200000047684","","","","","","","","","","","","","","","","","","{""[object Object]"":""some were angled and some were curved. there was also differences in how much the shapes were shaded ""}","","","",""
"","instructions","63","320024","0.0-8.0","17148.900000035763","","[{""page_index"":0,""viewing_time"":17148.5}]","","","","","","","","","","","","","","","","","","","",""
"","free-sort","64","339591","0.0-9.0","19565.399999976158","","","","","","","","","post_drag","","","","fast","","","","","","[{""src"":""https://ziweizhang0304.github.io/Stats_learning_trig/img/Stim/FN_015_g.png"",""x"":475,""y"":0},{""src"":""https://ziweizhang0304.github.io/Stats_learning_trig/img/Stim/FN_022_g.png"",""x"":-225,""y"":50},{""src"":""https://ziweizhang0304.github.io/Stats_learning_trig/img/Stim/FN_004_g.png"",""x"":475,""y"":50}]","[{""src"":""https://ziweizhang0304.github.io/Stats_learning_trig/img/Stim/FN_022_g.png"",""x"":66,""y"":10},{""src"":""https://ziweizhang0304.github.io/Stats_learning_trig/img/Stim/FN_004_g.png"",""x"":127,""y"":14},{""src"":""https://ziweizhang0304.github.io/Stats_learning_trig/img/Stim/FN_015_g.png"",""x"":191,""y"":9}]","[{""src"":""https://ziweizhang0304.github.io/Stats_learning_trig/img/Stim/FN_015_g.png"",""x"":191,""y"":9},{""src"":""https://ziweizhang0304.github.io/Stats_learning_trig/img/Stim/FN_022_g.png"",""x"":66,""y"":10},{""src"":""https://ziweizhang0304.github.io/Stats_learning_trig/img/Stim/FN_004_g.png"",""x"":127,""y"":14}]",""
"","free-sort","65","347478","0.0-10.0","7884.800000011921","","","","","","","","","post_drag","","","","slow","","","","","","[{""src"":""https://ziweizhang0304.github.io/Stats_learning_trig/img/Stim/FN_021_g.png"",""x"":475,""y"":0},{""src"":""https://ziweizhang0304.github.io/Stats_learning_trig/img/Stim/FN_012_g.png"",""x"":-225,""y"":50},{""src"":""https://ziweizhang0304.github.io/Stats_learning_trig/img/Stim/FN_006_g.png"",""x"":475,""y"":50}]","[{""src"":""https://ziweizhang0304.github.io/Stats_learning_trig/img/Stim/FN_012_g.png"",""x"":63,""y"":30},{""src"":""https://ziweizhang0304.github.io/Stats_learning_trig/img/Stim/FN_006_g.png"",""x"":139,""y"":19},{""src"":""https://ziweizhang0304.github.io/Stats_learning_trig/img/Stim/FN_021_g.png"",""x"":221,""y"":27}]","[{""src"":""https://ziweizhang0304.github.io/Stats_learning_trig/img/Stim/FN_021_g.png"",""x"":221,""y"":27},{""src"":""https://ziweizhang0304.github.io/Stats_learning_trig/img/Stim/FN_012_g.png"",""x"":63,""y"":30},{""src"":""https://ziweizhang0304.github.io/Stats_learning_trig/img/Stim/FN_006_g.png"",""x"":139,""y"":19}]",""
"","survey-multi-choice","66","358212","0.0-11.0","10730.600000023842","","","","","","","","","","","","","","","","6102050090041d90dc5413f3","","{""awareness"":""No"",""attention_check"":""Press SPACEBAR to a target""}","","","","[0,1]"
