"success","trial_type","trial_index","time_elapsed","internal_node_id","rt","url","view_history","stimulus","key_press","animation_sequence","response","TD_rt","TD_target","test_part","TD_trial_number","onset","offset","attention_state","TD_target_position","TD_within_triplet_counter","participant","yoke_participant","responses","init_locations","moves","final_locations","question_order"
"true","fullscreen","0","2432","0.0-0.0","","","","","","","","","","","","","","","","","","","","","","",""
"","external-html","1","5872","0.0-1.0","3249.699999988079","https://ziweizhang0304.github.io/Stats_learning_trig/content/consent.html","","","","","","","","","","","","","","","","","","","","",""
"","instructions","2","16962","0.0-2.0","11089","","[{""page_index"":0,""viewing_time"":1101.2000000029802},{""page_index"":1,""viewing_time"":6205.79999999702},{""page_index"":2,""viewing_time"":2510},{""page_index"":3,""viewing_time"":1271.1000000089407}]","","","","","","","","","","","","","","","","","","","",""
"","image-keyboard-response","3","22614","0.0-3.0-0.0-0.0","5650.399999991059","","","https://ziweizhang0304.github.io/Stats_learning_trig/img/Stim/FN_007_g.png","13","","","","","","","","","","","","","","","","","",""
"","animation","4","27037","0.0-3.0-0.0-1.0","","","","","","[{""stimulus"":""https://ziweizhang0304.github.io/Stats_learning_trig/img/Stim/FN_008_g.png"",""time"":365.5},{""stimulus"":""blank"",""time"":676.2999999970198},{""stimulus"":""https://ziweizhang0304.github.io/Stats_learning_trig/img/Stim/FN_024_g.png"",""time"":681.5999999940395},{""stimulus"":""blank"",""time"":983.5},{""stimulus"":""https://ziweizhang0304.github.io/Stats_learning_trig/img/Stim/FN_015_g.png"",""time"":1021.5999999940395},{""stimulus"":""blank"",""time"":1325.5},{""stimulus"":""https://ziweizhang0304.github.io/Stats_learning_trig/img/Stim/FN_025_g.png"",""time"":1361.0999999940395},{""stimulus"":""blank"",""time"":1666.5999999940395},{""stimulus"":""https://ziweizhang0304.github.io/Stats_learning_trig/img/Stim/FN_011_g.png"",""time"":1711.2999999970198},{""stimulus"":""blank"",""time"":2020.5},{""stimulus"":""https://ziweizhang0304.github.io/Stats_learning_trig/img/Stim/FN_010_g.png"",""time"":2041.2999999970198},{""stimulus"":""blank"",""time"":2346.2999999970198},{""stimulus"":""https://ziweizhang0304.github.io/Stats_learning_trig/img/Stim/FN_009_g.png"",""time"":2392.2999999970198},{""stimulus"":""blank"",""time"":2692.5999999940395},{""stimulus"":""https://ziweizhang0304.github.io/Stats_learning_trig/img/Stim/FN_023_g.png"",""time"":2723},{""stimulus"":""blank"",""time"":3034.8999999910593},{""stimulus"":""https://ziweizhang0304.github.io/Stats_learning_trig/img/Stim/FN_014_g.png"",""time"":3061.5},{""stimulus"":""blank"",""time"":3375.5999999940395},{""stimulus"":""https://ziweizhang0304.github.io/Stats_learning_trig/img/Stim/FN_007_g.png"",""time"":3401.3999999910593},{""stimulus"":""blank"",""time"":3716.0999999940395},{""stimulus"":""https://ziweizhang0304.github.io/Stats_learning_trig/img/Stim/FN_003_g.png"",""time"":3741.5},{""stimulus"":""blank"",""time"":4042.699999988079},{""stimulus"":""https://ziweizhang0304.github.io/Stats_learning_trig/img/Stim/FN_020_g.png"",""time"":4089.199999988079},{""stimulus"":""blank"",""time"":4401.29999999702}]","[{""key_press"":32,""rt"":3902.7999999970198,""stimulus"":""https://ziweizhang0304.github.io/Stats_learning_trig/img/Stim/FN_003_g.png""}]","501.40000000596046","https://ziweizhang0304.github.io/Stats_learning_trig/img/Stim/FN_007_g.png","post_prac","","","","","","","","","","","","",""
"","html-keyboard-response","5","30950","0.0-3.0-0.0-2.0","3909.4000000059605","","","<p>Your reaction time for this trial was 501.4 ms.</p><p>Remember that you should only press the SPACEBAR when you see the shape presented at the beginning of the trial. </b> </p><p>Press enter to move on.</p>","13","","","","","","","","","","","","","","","","","",""
"","image-keyboard-response","6","32518","0.0-3.0-1.0-0.0","1566.6000000089407","","","https://ziweizhang0304.github.io/Stats_learning_trig/img/Stim/FN_008_g.png","13","","","","","","","","","","","","","","","","","",""
"","animation","7","36939","0.0-3.0-1.0-1.0","","","","","","[{""stimulus"":""https://ziweizhang0304.github.io/Stats_learning_trig/img/Stim/FN_025_g.png"",""time"":348.79999999701977},{""stimulus"":""blank"",""time"":657},{""stimulus"":""https://ziweizhang0304.github.io/Stats_learning_trig/img/Stim/FN_020_g.png"",""time"":681.5},{""stimulus"":""blank"",""time"":986.5},{""stimulus"":""https://ziweizhang0304.github.io/Stats_learning_trig/img/Stim/FN_015_g.png"",""time"":1021.4000000059605},{""stimulus"":""blank"",""time"":1326.7999999970198},{""stimulus"":""https://ziweizhang0304.github.io/Stats_learning_trig/img/Stim/FN_008_g.png"",""time"":1361.4000000059605},{""stimulus"":""blank"",""time"":1670.4000000059605},{""stimulus"":""https://ziweizhang0304.github.io/Stats_learning_trig/img/Stim/FN_007_g.png"",""time"":1702.2999999970198},{""stimulus"":""blank"",""time"":2013.2000000029802},{""stimulus"":""https://ziweizhang0304.github.io/Stats_learning_trig/img/Stim/FN_011_g.png"",""time"":2042.5999999940395},{""stimulus"":""blank"",""time"":2347.5999999940395},{""stimulus"":""https://ziweizhang0304.github.io/Stats_learning_trig/img/Stim/FN_009_g.png"",""time"":2381.2000000029802},{""stimulus"":""blank"",""time"":2691.2000000029802},{""stimulus"":""https://ziweizhang0304.github.io/Stats_learning_trig/img/Stim/FN_023_g.png"",""time"":2723.5},{""stimulus"":""blank"",""time"":3032.2999999970198},{""stimulus"":""https://ziweizhang0304.github.io/Stats_learning_trig/img/Stim/FN_024_g.png"",""time"":3062.7000000029802},{""stimulus"":""blank"",""time"":3375.2999999970198},{""stimulus"":""https://ziweizhang0304.github.io/Stats_learning_trig/img/Stim/FN_003_g.png"",""time"":3402.4000000059605},{""stimulus"":""blank"",""time"":3716.0999999940395},{""stimulus"":""https://ziweizhang0304.github.io/Stats_learning_trig/img/Stim/FN_010_g.png"",""time"":3741.7999999970198},{""stimulus"":""blank"",""time"":4042.2000000029802},{""stimulus"":""https://ziweizhang0304.github.io/Stats_learning_trig/img/Stim/FN_014_g.png"",""time"":4089.5},{""stimulus"":""blank"",""time"":4399.4000000059605}]","[{""key_press"":32,""rt"":1806.6000000089407,""stimulus"":""https://ziweizhang0304.github.io/Stats_learning_trig/img/Stim/FN_007_g.png""}]","445.20000000298023","https://ziweizhang0304.github.io/Stats_learning_trig/img/Stim/FN_008_g.png","post_prac","","","","","","","","","","","","",""
"","html-keyboard-response","8","40630","0.0-3.0-1.0-2.0","3688","","","<p>Your reaction time for this trial was 445.2 ms.</p><p>Remember that you should only press the SPACEBAR when you see the shape presented at the beginning of the trial. </b> </p><p>Press enter to move on.</p>","13","","","","","","","","","","","","","","","","","",""
"","image-keyboard-response","9","41462","0.0-3.0-2.0-0.0","831.6000000089407","","","https://ziweizhang0304.github.io/Stats_learning_trig/img/Stim/FN_005_g.png","13","","","","","","","","","","","","","","","","","",""
"","animation","10","45884","0.0-3.0-2.0-1.0","","","","","","[{""stimulus"":""https://ziweizhang0304.github.io/Stats_learning_trig/img/Stim/FN_010_g.png"",""time"":349.09999999403954},{""stimulus"":""blank"",""time"":660.8999999910593},{""stimulus"":""https://ziweizhang0304.github.io/Stats_learning_trig/img/Stim/FN_025_g.png"",""time"":681},{""stimulus"":""blank"",""time"":987.3999999910593},{""stimulus"":""https://ziweizhang0304.github.io/Stats_learning_trig/img/Stim/FN_024_g.png"",""time"":1034.5},{""stimulus"":""blank"",""time"":1336.5999999940395},{""stimulus"":""https://ziweizhang0304.github.io/Stats_learning_trig/img/Stim/FN_023_g.png"",""time"":1361.0999999940395},{""stimulus"":""blank"",""time"":1661.5999999940395},{""stimulus"":""https://ziweizhang0304.github.io/Stats_learning_trig/img/Stim/FN_003_g.png"",""time"":1709},{""stimulus"":""blank"",""time"":2014.7999999970198},{""stimulus"":""https://ziweizhang0304.github.io/Stats_learning_trig/img/Stim/FN_015_g.png"",""time"":2042.2999999970198},{""stimulus"":""blank"",""time"":2342.5},{""stimulus"":""https://ziweizhang0304.github.io/Stats_learning_trig/img/Stim/FN_005_g.png"",""time"":2381.5},{""stimulus"":""blank"",""time"":2695.5},{""stimulus"":""https://ziweizhang0304.github.io/Stats_learning_trig/img/Stim/FN_004_g.png"",""time"":2722.2999999970198},{""stimulus"":""blank"",""time"":3036.699999988079},{""stimulus"":""https://ziweizhang0304.github.io/Stats_learning_trig/img/Stim/FN_016_g.png"",""time"":3062},{""stimulus"":""blank"",""time"":3363.699999988079},{""stimulus"":""https://ziweizhang0304.github.io/Stats_learning_trig/img/Stim/FN_009_g.png"",""time"":3400.7999999970198},{""stimulus"":""blank"",""time"":3701.8999999910593},{""stimulus"":""https://ziweizhang0304.github.io/Stats_learning_trig/img/Stim/FN_014_g.png"",""time"":3748.7999999970198},{""stimulus"":""blank"",""time"":4060.0999999940395},{""stimulus"":""https://ziweizhang0304.github.io/Stats_learning_trig/img/Stim/FN_020_g.png"",""time"":4091.2999999970198},{""stimulus"":""blank"",""time"":4399.5999999940395}]","[{""key_press"":32,""rt"":2814.0999999940395,""stimulus"":""https://ziweizhang0304.github.io/Stats_learning_trig/img/Stim/FN_004_g.png""}]","432.59999999403954","https://ziweizhang0304.github.io/Stats_learning_trig/img/Stim/FN_005_g.png","post_prac","","","","","","","","","","","","",""
"","html-keyboard-response","11","46614","0.0-3.0-2.0-2.0","727.3000000119209","","","<p>Your reaction time for this trial was 432.6 ms.</p><p>Remember that you should only press the SPACEBAR when you see the shape presented at the beginning of the trial. </b> </p><p>Press enter to move on.</p>","13","","","","","","","","","","","","","","","","","",""
"","instructions","12","48973","0.0-4.0","2359.5","","[{""page_index"":0,""viewing_time"":2359.3999999910593}]","","","","","","","","","","","","","","","","","","","",""
"","image-keyboard-response","13","50231","0.0-5.0-0.0-0.0","1257.0999999940395","","","https://ziweizhang0304.github.io/Stats_learning_trig/img/Stim/FN_004_g.png","13","","","","","","","","","","","","","","","","","",""
"","animation","14","54654","0.0-5.0-0.0-1.0","","","","","","[{""stimulus"":""https://ziweizhang0304.github.io/Stats_learning_trig/img/Stim/FN_024_g.png"",""time"":351},{""stimulus"":""blank"",""time"":651.4000000059605},{""stimulus"":""https://ziweizhang0304.github.io/Stats_learning_trig/img/Stim/FN_023_g.png"",""time"":681.2000000029802},{""stimulus"":""blank"",""time"":982.2000000029802},{""stimulus"":""https://ziweizhang0304.github.io/Stats_learning_trig/img/Stim/FN_010_g.png"",""time"":1021.2000000029802},{""stimulus"":""blank"",""time"":1325},{""stimulus"":""https://ziweizhang0304.github.io/Stats_learning_trig/img/Stim/FN_005_g.png"",""time"":1371.2999999970198},{""stimulus"":""blank"",""time"":1682.5},{""stimulus"":""https://ziweizhang0304.github.io/Stats_learning_trig/img/Stim/FN_004_g.png"",""time"":1701.0999999940395},{""stimulus"":""blank"",""time"":2008.7000000029802},{""stimulus"":""https://ziweizhang0304.github.io/Stats_learning_trig/img/Stim/FN_016_g.png"",""time"":2041.2000000029802},{""stimulus"":""blank"",""time"":2349.5999999940395},{""stimulus"":""https://ziweizhang0304.github.io/Stats_learning_trig/img/Stim/FN_009_g.png"",""time"":2380.7999999970198},{""stimulus"":""blank"",""time"":2689.9000000059605},{""stimulus"":""https://ziweizhang0304.github.io/Stats_learning_trig/img/Stim/FN_003_g.png"",""time"":2720.9000000059605},{""stimulus"":""blank"",""time"":3029.5},{""stimulus"":""https://ziweizhang0304.github.io/Stats_learning_trig/img/Stim/FN_014_g.png"",""time"":3061.5999999940395},{""stimulus"":""blank"",""time"":3370.9000000059605},{""stimulus"":""https://ziweizhang0304.github.io/Stats_learning_trig/img/Stim/FN_020_g.png"",""time"":3401.9000000059605},{""stimulus"":""blank"",""time"":3704.9000000059605},{""stimulus"":""https://ziweizhang0304.github.io/Stats_learning_trig/img/Stim/FN_025_g.png"",""time"":3741.0999999940395},{""stimulus"":""blank"",""time"":4043.9000000059605},{""stimulus"":""https://ziweizhang0304.github.io/Stats_learning_trig/img/Stim/FN_015_g.png"",""time"":4084.4000000059605},{""stimulus"":""blank"",""time"":4394.0999999940395}]","[{""key_press"":32,""rt"":2140.2000000029802,""stimulus"":""https://ziweizhang0304.github.io/Stats_learning_trig/img/Stim/FN_016_g.png""}]","439.1000000089407","https://ziweizhang0304.github.io/Stats_learning_trig/img/Stim/FN_004_g.png","post_TD","1","1701.0999999940395","2140.2000000029802","slow","5","2","5d88e9d13e9a6e0001084e80","","","","","",""
"","image-keyboard-response","15","56230","0.0-5.0-1.0-0.0","1574.2000000029802","","","https://ziweizhang0304.github.io/Stats_learning_trig/img/Stim/FN_011_g.png","13","","","","","","","","","","","","","","","","","",""
"","animation","16","60661","0.0-5.0-1.0-1.0","","","","","","[{""stimulus"":""https://ziweizhang0304.github.io/Stats_learning_trig/img/Stim/FN_025_g.png"",""time"":344.09999999403954},{""stimulus"":""blank"",""time"":654.5},{""stimulus"":""https://ziweizhang0304.github.io/Stats_learning_trig/img/Stim/FN_020_g.png"",""time"":682.7000000029802},{""stimulus"":""blank"",""time"":987.7999999970198},{""stimulus"":""https://ziweizhang0304.github.io/Stats_learning_trig/img/Stim/FN_015_g.png"",""time"":1034.2999999970198},{""stimulus"":""blank"",""time"":1336.7000000029802},{""stimulus"":""https://ziweizhang0304.github.io/Stats_learning_trig/img/Stim/FN_008_g.png"",""time"":1360.9000000059605},{""stimulus"":""blank"",""time"":1676},{""stimulus"":""https://ziweizhang0304.github.io/Stats_learning_trig/img/Stim/FN_007_g.png"",""time"":1702.4000000059605},{""stimulus"":""blank"",""time"":2014.2999999970198},{""stimulus"":""https://ziweizhang0304.github.io/Stats_learning_trig/img/Stim/FN_011_g.png"",""time"":2041.7999999970198},{""stimulus"":""blank"",""time"":2356.7000000029802},{""stimulus"":""https://ziweizhang0304.github.io/Stats_learning_trig/img/Stim/FN_009_g.png"",""time"":2381.2999999970198},{""stimulus"":""blank"",""time"":2683.4000000059605},{""stimulus"":""https://ziweizhang0304.github.io/Stats_learning_trig/img/Stim/FN_023_g.png"",""time"":2729},{""stimulus"":""blank"",""time"":3038.5999999940395},{""stimulus"":""https://ziweizhang0304.github.io/Stats_learning_trig/img/Stim/FN_024_g.png"",""time"":3061.2999999970198},{""stimulus"":""blank"",""time"":3377.2999999970198},{""stimulus"":""https://ziweizhang0304.github.io/Stats_learning_trig/img/Stim/FN_003_g.png"",""time"":3401.5999999940395},{""stimulus"":""blank"",""time"":3709},{""stimulus"":""https://ziweizhang0304.github.io/Stats_learning_trig/img/Stim/FN_010_g.png"",""time"":3741.2000000029802},{""stimulus"":""blank"",""time"":4047.9000000059605},{""stimulus"":""https://ziweizhang0304.github.io/Stats_learning_trig/img/Stim/FN_014_g.png"",""time"":4081.2999999970198},{""stimulus"":""blank"",""time"":4386.29999999702}]","[{""key_press"":32,""rt"":2542.7999999970198,""stimulus"":""https://ziweizhang0304.github.io/Stats_learning_trig/img/Stim/FN_009_g.png""}]","501","https://ziweizhang0304.github.io/Stats_learning_trig/img/Stim/FN_011_g.png","post_TD","2","2041.7999999970198","2542.7999999970198","fast","6","3","5d88e9d13e9a6e0001084e80","","","","","",""
"","image-keyboard-response","17","62296","0.0-5.0-2.0-0.0","1632.5","","","https://ziweizhang0304.github.io/Stats_learning_trig/img/Stim/FN_008_g.png","13","","","","","","","","","","","","","","","","","",""
"","animation","18","66717","0.0-5.0-2.0-1.0","","","","","","[{""stimulus"":""https://ziweizhang0304.github.io/Stats_learning_trig/img/Stim/FN_003_g.png"",""time"":350.79999999701977},{""stimulus"":""blank"",""time"":661.5},{""stimulus"":""https://ziweizhang0304.github.io/Stats_learning_trig/img/Stim/FN_024_g.png"",""time"":681.3999999910593},{""stimulus"":""blank"",""time"":998.5},{""stimulus"":""https://ziweizhang0304.github.io/Stats_learning_trig/img/Stim/FN_025_g.png"",""time"":1021.7999999970198},{""stimulus"":""blank"",""time"":1322.3999999910593},{""stimulus"":""https://ziweizhang0304.github.io/Stats_learning_trig/img/Stim/FN_015_g.png"",""time"":1368.0999999940395},{""stimulus"":""blank"",""time"":1678.5999999940395},{""stimulus"":""https://ziweizhang0304.github.io/Stats_learning_trig/img/Stim/FN_014_g.png"",""time"":1709.8999999910593},{""stimulus"":""blank"",""time"":2018},{""stimulus"":""https://ziweizhang0304.github.io/Stats_learning_trig/img/Stim/FN_008_g.png"",""time"":2041.5},{""stimulus"":""blank"",""time"":2344.0999999940395},{""stimulus"":""https://ziweizhang0304.github.io/Stats_learning_trig/img/Stim/FN_007_g.png"",""time"":2385},{""stimulus"":""blank"",""time"":2690.2999999970198},{""stimulus"":""https://ziweizhang0304.github.io/Stats_learning_trig/img/Stim/FN_011_g.png"",""time"":2722.8999999910593},{""stimulus"":""blank"",""time"":3023.5},{""stimulus"":""https://ziweizhang0304.github.io/Stats_learning_trig/img/Stim/FN_009_g.png"",""time"":3065},{""stimulus"":""blank"",""time"":3378.699999988079},{""stimulus"":""https://ziweizhang0304.github.io/Stats_learning_trig/img/Stim/FN_023_g.png"",""time"":3410.5999999940395},{""stimulus"":""blank"",""time"":3718.0999999940395},{""stimulus"":""https://ziweizhang0304.github.io/Stats_learning_trig/img/Stim/FN_010_g.png"",""time"":3741.0999999940395},{""stimulus"":""blank"",""time"":4043.0999999940395},{""stimulus"":""https://ziweizhang0304.github.io/Stats_learning_trig/img/Stim/FN_020_g.png"",""time"":4081.0999999940395},{""stimulus"":""blank"",""time"":4383.5}]","[{""key_press"":32,""rt"":2444,""stimulus"":""https://ziweizhang0304.github.io/Stats_learning_trig/img/Stim/FN_007_g.png""}]","402.5","https://ziweizhang0304.github.io/Stats_learning_trig/img/Stim/FN_008_g.png","post_TD","3","2041.5","2444","fast","6","1","5d88e9d13e9a6e0001084e80","","","","","",""
"","image-keyboard-response","19","72455","0.0-5.0-3.0-0.0","5736.79999999702","","","https://ziweizhang0304.github.io/Stats_learning_trig/img/Stim/FN_007_g.png","13","","","","","","","","","","","","","","","","","",""
"","animation","20","76886","0.0-5.0-3.0-1.0","","","","","","[{""stimulus"":""https://ziweizhang0304.github.io/Stats_learning_trig/img/Stim/FN_025_g.png"",""time"":354.80000001192093},{""stimulus"":""blank"",""time"":665.3000000119209},{""stimulus"":""https://ziweizhang0304.github.io/Stats_learning_trig/img/Stim/FN_020_g.png"",""time"":681.2000000029802},{""stimulus"":""blank"",""time"":990.2000000029802},{""stimulus"":""https://ziweizhang0304.github.io/Stats_learning_trig/img/Stim/FN_015_g.png"",""time"":1021.3000000119209},{""stimulus"":""blank"",""time"":1327.9000000059605},{""stimulus"":""https://ziweizhang0304.github.io/Stats_learning_trig/img/Stim/FN_008_g.png"",""time"":1362.300000011921},{""stimulus"":""blank"",""time"":1672.6000000089407},{""stimulus"":""https://ziweizhang0304.github.io/Stats_learning_trig/img/Stim/FN_007_g.png"",""time"":1704.5},{""stimulus"":""blank"",""time"":2011.800000011921},{""stimulus"":""https://ziweizhang0304.github.io/Stats_learning_trig/img/Stim/FN_011_g.png"",""time"":2042.6000000089407},{""stimulus"":""blank"",""time"":2344.800000011921},{""stimulus"":""https://ziweizhang0304.github.io/Stats_learning_trig/img/Stim/FN_009_g.png"",""time"":2391.2000000029802},{""stimulus"":""blank"",""time"":2699.5},{""stimulus"":""https://ziweizhang0304.github.io/Stats_learning_trig/img/Stim/FN_023_g.png"",""time"":2720.800000011921},{""stimulus"":""blank"",""time"":3023.1000000089407},{""stimulus"":""https://ziweizhang0304.github.io/Stats_learning_trig/img/Stim/FN_024_g.png"",""time"":3062.2000000029802},{""stimulus"":""blank"",""time"":3364.4000000059605},{""stimulus"":""https://ziweizhang0304.github.io/Stats_learning_trig/img/Stim/FN_003_g.png"",""time"":3411.800000011921},{""stimulus"":""blank"",""time"":3721.9000000059605},{""stimulus"":""https://ziweizhang0304.github.io/Stats_learning_trig/img/Stim/FN_010_g.png"",""time"":3741.2000000029802},{""stimulus"":""blank"",""time"":4041.800000011921},{""stimulus"":""https://ziweizhang0304.github.io/Stats_learning_trig/img/Stim/FN_014_g.png"",""time"":4081.2000000029802},{""stimulus"":""blank"",""time"":4384}]","[{""key_press"":32,""rt"":2156.2999999970198,""stimulus"":""https://ziweizhang0304.github.io/Stats_learning_trig/img/Stim/FN_011_g.png""}]","451.79999999701977","https://ziweizhang0304.github.io/Stats_learning_trig/img/Stim/FN_007_g.png","post_TD","4","1704.5","2156.2999999970198","fast","5","2","5d88e9d13e9a6e0001084e80","","","","","",""
"","image-keyboard-response","21","78006","0.0-5.0-4.0-0.0","1118.5","","","https://ziweizhang0304.github.io/Stats_learning_trig/img/Stim/FN_007_g.png","13","","","","","","","","","","","","","","","","","",""
"","animation","22","82427","0.0-5.0-4.0-1.0","","","","","","[{""stimulus"":""https://ziweizhang0304.github.io/Stats_learning_trig/img/Stim/FN_003_g.png"",""time"":355.59999999403954},{""stimulus"":""blank"",""time"":667.2999999970198},{""stimulus"":""https://ziweizhang0304.github.io/Stats_learning_trig/img/Stim/FN_024_g.png"",""time"":681.5},{""stimulus"":""blank"",""time"":991.8999999910593},{""stimulus"":""https://ziweizhang0304.github.io/Stats_learning_trig/img/Stim/FN_025_g.png"",""time"":1021.2000000029802},{""stimulus"":""blank"",""time"":1330.5},{""stimulus"":""https://ziweizhang0304.github.io/Stats_learning_trig/img/Stim/FN_015_g.png"",""time"":1361.8999999910593},{""stimulus"":""blank"",""time"":1664.2000000029802},{""stimulus"":""https://ziweizhang0304.github.io/Stats_learning_trig/img/Stim/FN_014_g.png"",""time"":1713},{""stimulus"":""blank"",""time"":2021},{""stimulus"":""https://ziweizhang0304.github.io/Stats_learning_trig/img/Stim/FN_008_g.png"",""time"":2041.3999999910593},{""stimulus"":""blank"",""time"":2348.0999999940395},{""stimulus"":""https://ziweizhang0304.github.io/Stats_learning_trig/img/Stim/FN_007_g.png"",""time"":2381.2000000029802},{""stimulus"":""blank"",""time"":2690.5},{""stimulus"":""https://ziweizhang0304.github.io/Stats_learning_trig/img/Stim/FN_011_g.png"",""time"":2721},{""stimulus"":""blank"",""time"":3027.0999999940395},{""stimulus"":""https://ziweizhang0304.github.io/Stats_learning_trig/img/Stim/FN_009_g.png"",""time"":3061.7000000029802},{""stimulus"":""blank"",""time"":3368.3999999910593},{""stimulus"":""https://ziweizhang0304.github.io/Stats_learning_trig/img/Stim/FN_023_g.png"",""time"":3416.0999999940395},{""stimulus"":""blank"",""time"":3724.2000000029802},{""stimulus"":""https://ziweizhang0304.github.io/Stats_learning_trig/img/Stim/FN_010_g.png"",""time"":3742.5999999940395},{""stimulus"":""blank"",""time"":4054},{""stimulus"":""https://ziweizhang0304.github.io/Stats_learning_trig/img/Stim/FN_020_g.png"",""time"":4082.0999999940395},{""stimulus"":""blank"",""time"":4392.899999991059}]","[{""key_press"":32,""rt"":2798.5,""stimulus"":""https://ziweizhang0304.github.io/Stats_learning_trig/img/Stim/FN_011_g.png""}]","417.29999999701977","https://ziweizhang0304.github.io/Stats_learning_trig/img/Stim/FN_007_g.png","post_TD","5","2381.2000000029802","2798.5","fast","7","2","5d88e9d13e9a6e0001084e80","","","","","",""
"","image-keyboard-response","23","83223","0.0-5.0-5.0-0.0","794.2999999970198","","","https://ziweizhang0304.github.io/Stats_learning_trig/img/Stim/FN_016_g.png","13","","","","","","","","","","","","","","","","","",""
"","animation","24","87645","0.0-5.0-5.0-1.0","","","","","","[{""stimulus"":""https://ziweizhang0304.github.io/Stats_learning_trig/img/Stim/FN_015_g.png"",""time"":350.90000000596046},{""stimulus"":""blank"",""time"":659.7000000029802},{""stimulus"":""https://ziweizhang0304.github.io/Stats_learning_trig/img/Stim/FN_014_g.png"",""time"":690.9000000059605},{""stimulus"":""blank"",""time"":998.7000000029802},{""stimulus"":""https://ziweizhang0304.github.io/Stats_learning_trig/img/Stim/FN_003_g.png"",""time"":1021},{""stimulus"":""blank"",""time"":1324},{""stimulus"":""https://ziweizhang0304.github.io/Stats_learning_trig/img/Stim/FN_025_g.png"",""time"":1361.2000000029802},{""stimulus"":""blank"",""time"":1664.7000000029802},{""stimulus"":""https://ziweizhang0304.github.io/Stats_learning_trig/img/Stim/FN_010_g.png"",""time"":1700.7999999970198},{""stimulus"":""blank"",""time"":2006.5999999940395},{""stimulus"":""https://ziweizhang0304.github.io/Stats_learning_trig/img/Stim/FN_005_g.png"",""time"":2042.7000000029802},{""stimulus"":""blank"",""time"":2349.7000000029802},{""stimulus"":""https://ziweizhang0304.github.io/Stats_learning_trig/img/Stim/FN_004_g.png"",""time"":2381.2999999970198},{""stimulus"":""blank"",""time"":2691},{""stimulus"":""https://ziweizhang0304.github.io/Stats_learning_trig/img/Stim/FN_016_g.png"",""time"":2722.4000000059605},{""stimulus"":""blank"",""time"":3035},{""stimulus"":""https://ziweizhang0304.github.io/Stats_learning_trig/img/Stim/FN_009_g.png"",""time"":3062.0999999940395},{""stimulus"":""blank"",""time"":3375.7999999970198},{""stimulus"":""https://ziweizhang0304.github.io/Stats_learning_trig/img/Stim/FN_023_g.png"",""time"":3402.0999999940395},{""stimulus"":""blank"",""time"":3713.5},{""stimulus"":""https://ziweizhang0304.github.io/Stats_learning_trig/img/Stim/FN_024_g.png"",""time"":3741.2000000029802},{""stimulus"":""blank"",""time"":4045.5},{""stimulus"":""https://ziweizhang0304.github.io/Stats_learning_trig/img/Stim/FN_020_g.png"",""time"":4091.7999999970198},{""stimulus"":""blank"",""time"":4405.29999999702}]","[{""key_press"":32,""rt"":3054.6000000089407,""stimulus"":""blank""}]","332.20000000298023","https://ziweizhang0304.github.io/Stats_learning_trig/img/Stim/FN_016_g.png","post_TD","6","2722.4000000059605","3054.6000000089407","slow","8","3","5d88e9d13e9a6e0001084e80","","","","","",""
"","image-keyboard-response","25","88678","0.0-5.0-6.0-0.0","1028.5999999940395","","","https://ziweizhang0304.github.io/Stats_learning_trig/img/Stim/FN_016_g.png","13","","","","","","","","","","","","","","","","","",""
"","animation","26","93101","0.0-5.0-6.0-1.0","","","","","","[{""stimulus"":""https://ziweizhang0304.github.io/Stats_learning_trig/img/Stim/FN_014_g.png"",""time"":352.79999999701977},{""stimulus"":""blank"",""time"":662.7999999970198},{""stimulus"":""https://ziweizhang0304.github.io/Stats_learning_trig/img/Stim/FN_020_g.png"",""time"":682.2000000029802},{""stimulus"":""blank"",""time"":986.9000000059605},{""stimulus"":""https://ziweizhang0304.github.io/Stats_learning_trig/img/Stim/FN_025_g.png"",""time"":1032.7000000029802},{""stimulus"":""blank"",""time"":1342.4000000059605},{""stimulus"":""https://ziweizhang0304.github.io/Stats_learning_trig/img/Stim/FN_009_g.png"",""time"":1362.9000000059605},{""stimulus"":""blank"",""time"":1665.6000000089407},{""stimulus"":""https://ziweizhang0304.github.io/Stats_learning_trig/img/Stim/FN_005_g.png"",""time"":1712.9000000059605},{""stimulus"":""blank"",""time"":2019.4000000059605},{""stimulus"":""https://ziweizhang0304.github.io/Stats_learning_trig/img/Stim/FN_004_g.png"",""time"":2041.6000000089407},{""stimulus"":""blank"",""time"":2357.6000000089407},{""stimulus"":""https://ziweizhang0304.github.io/Stats_learning_trig/img/Stim/FN_016_g.png"",""time"":2382.7999999970198},{""stimulus"":""blank"",""time"":2684.2999999970198},{""stimulus"":""https://ziweizhang0304.github.io/Stats_learning_trig/img/Stim/FN_023_g.png"",""time"":2731.6000000089407},{""stimulus"":""blank"",""time"":3040.1000000089407},{""stimulus"":""https://ziweizhang0304.github.io/Stats_learning_trig/img/Stim/FN_024_g.png"",""time"":3060.7000000029802},{""stimulus"":""blank"",""time"":3365.9000000059605},{""stimulus"":""https://ziweizhang0304.github.io/Stats_learning_trig/img/Stim/FN_003_g.png"",""time"":3401.6000000089407},{""stimulus"":""blank"",""time"":3708.4000000059605},{""stimulus"":""https://ziweizhang0304.github.io/Stats_learning_trig/img/Stim/FN_010_g.png"",""time"":3754.6000000089407},{""stimulus"":""blank"",""time"":4066.1000000089407},{""stimulus"":""https://ziweizhang0304.github.io/Stats_learning_trig/img/Stim/FN_015_g.png"",""time"":4081.5},{""stimulus"":""blank"",""time"":4390.100000008941}]","[{""key_press"":32,""rt"":2765.7000000029802,""stimulus"":""https://ziweizhang0304.github.io/Stats_learning_trig/img/Stim/FN_023_g.png""}]","382.90000000596046","https://ziweizhang0304.github.io/Stats_learning_trig/img/Stim/FN_016_g.png","post_TD","7","2382.7999999970198","2765.7000000029802","slow","7","3","5d88e9d13e9a6e0001084e80","","","","","",""
"","image-keyboard-response","27","94214","0.0-5.0-7.0-0.0","1108.1000000089407","","","https://ziweizhang0304.github.io/Stats_learning_trig/img/Stim/FN_005_g.png","13","","","","","","","","","","","","","","","","","",""
"","animation","28","98635","0.0-5.0-7.0-1.0","","","","","","[{""stimulus"":""https://ziweizhang0304.github.io/Stats_learning_trig/img/Stim/FN_014_g.png"",""time"":352.80000001192093},{""stimulus"":""blank"",""time"":666.8000000119209},{""stimulus"":""https://ziweizhang0304.github.io/Stats_learning_trig/img/Stim/FN_020_g.png"",""time"":681},{""stimulus"":""blank"",""time"":982.2000000029802},{""stimulus"":""https://ziweizhang0304.github.io/Stats_learning_trig/img/Stim/FN_025_g.png"",""time"":1022.5},{""stimulus"":""blank"",""time"":1324.5},{""stimulus"":""https://ziweizhang0304.github.io/Stats_learning_trig/img/Stim/FN_009_g.png"",""time"":1361.9000000059605},{""stimulus"":""blank"",""time"":1664.800000011921},{""stimulus"":""https://ziweizhang0304.github.io/Stats_learning_trig/img/Stim/FN_005_g.png"",""time"":1700.800000011921},{""stimulus"":""blank"",""time"":2007.6000000089407},{""stimulus"":""https://ziweizhang0304.github.io/Stats_learning_trig/img/Stim/FN_004_g.png"",""time"":2055.1000000089407},{""stimulus"":""blank"",""time"":2364.800000011921},{""stimulus"":""https://ziweizhang0304.github.io/Stats_learning_trig/img/Stim/FN_016_g.png"",""time"":2382.5},{""stimulus"":""blank"",""time"":2689.1000000089407},{""stimulus"":""https://ziweizhang0304.github.io/Stats_learning_trig/img/Stim/FN_023_g.png"",""time"":2721.4000000059605},{""stimulus"":""blank"",""time"":3030.7000000029802},{""stimulus"":""https://ziweizhang0304.github.io/Stats_learning_trig/img/Stim/FN_024_g.png"",""time"":3063},{""stimulus"":""blank"",""time"":3369.9000000059605},{""stimulus"":""https://ziweizhang0304.github.io/Stats_learning_trig/img/Stim/FN_003_g.png"",""time"":3402},{""stimulus"":""blank"",""time"":3713.6000000089407},{""stimulus"":""https://ziweizhang0304.github.io/Stats_learning_trig/img/Stim/FN_010_g.png"",""time"":3740.7000000029802},{""stimulus"":""blank"",""time"":4051.800000011921},{""stimulus"":""https://ziweizhang0304.github.io/Stats_learning_trig/img/Stim/FN_015_g.png"",""time"":4082},{""stimulus"":""blank"",""time"":4392.5}]","[{""key_press"":32,""rt"":2110.6000000089407,""stimulus"":""https://ziweizhang0304.github.io/Stats_learning_trig/img/Stim/FN_004_g.png""}]","409.79999999701977","https://ziweizhang0304.github.io/Stats_learning_trig/img/Stim/FN_005_g.png","post_TD","8","1700.800000011921","2110.6000000089407","slow","5","1","5d88e9d13e9a6e0001084e80","","","","","",""
"","image-keyboard-response","29","99174","0.0-5.0-8.0-0.0","533.9000000059605","","","https://ziweizhang0304.github.io/Stats_learning_trig/img/Stim/FN_011_g.png","13","","","","","","","","","","","","","","","","","",""
"","animation","30","103595","0.0-5.0-8.0-1.0","","","","","","[{""stimulus"":""https://ziweizhang0304.github.io/Stats_learning_trig/img/Stim/FN_023_g.png"",""time"":352.6000000089407},{""stimulus"":""blank"",""time"":659.3000000119209},{""stimulus"":""https://ziweizhang0304.github.io/Stats_learning_trig/img/Stim/FN_015_g.png"",""time"":681.6000000089407},{""stimulus"":""blank"",""time"":989.9000000059605},{""stimulus"":""https://ziweizhang0304.github.io/Stats_learning_trig/img/Stim/FN_020_g.png"",""time"":1022.5},{""stimulus"":""blank"",""time"":1329.5},{""stimulus"":""https://ziweizhang0304.github.io/Stats_learning_trig/img/Stim/FN_010_g.png"",""time"":1362.2000000029802},{""stimulus"":""blank"",""time"":1664},{""stimulus"":""https://ziweizhang0304.github.io/Stats_learning_trig/img/Stim/FN_014_g.png"",""time"":1701.2000000029802},{""stimulus"":""blank"",""time"":2014.1000000089407},{""stimulus"":""https://ziweizhang0304.github.io/Stats_learning_trig/img/Stim/FN_025_g.png"",""time"":2041.5},{""stimulus"":""blank"",""time"":2353.300000011921},{""stimulus"":""https://ziweizhang0304.github.io/Stats_learning_trig/img/Stim/FN_008_g.png"",""time"":2385.9000000059605},{""stimulus"":""blank"",""time"":2697.2000000029802},{""stimulus"":""https://ziweizhang0304.github.io/Stats_learning_trig/img/Stim/FN_007_g.png"",""time"":2721.1000000089407},{""stimulus"":""blank"",""time"":3025.4000000059605},{""stimulus"":""https://ziweizhang0304.github.io/Stats_learning_trig/img/Stim/FN_011_g.png"",""time"":3060.9000000059605},{""stimulus"":""blank"",""time"":3375.9000000059605},{""stimulus"":""https://ziweizhang0304.github.io/Stats_learning_trig/img/Stim/FN_009_g.png"",""time"":3400.6000000089407},{""stimulus"":""blank"",""time"":3703.9000000059605},{""stimulus"":""https://ziweizhang0304.github.io/Stats_learning_trig/img/Stim/FN_024_g.png"",""time"":3743.5},{""stimulus"":""blank"",""time"":4058.4000000059605},{""stimulus"":""https://ziweizhang0304.github.io/Stats_learning_trig/img/Stim/FN_003_g.png"",""time"":4091},{""stimulus"":""blank"",""time"":4399.4000000059605}]","[{""key_press"":32,""rt"":1007.1000000089407,""stimulus"":""blank""},{""key_press"":32,""rt"":3726.9000000059605,""stimulus"":""blank""}]","666","https://ziweizhang0304.github.io/Stats_learning_trig/img/Stim/FN_011_g.png","post_TD","9","3060.9000000059605","3726.9000000059605","fast","9","3","5d88e9d13e9a6e0001084e80","","","","","",""
"","image-keyboard-response","31","104246","0.0-5.0-9.0-0.0","647.7000000029802","","","https://ziweizhang0304.github.io/Stats_learning_trig/img/Stim/FN_004_g.png","13","","","","","","","","","","","","","","","","","",""
"","animation","32","108669","0.0-5.0-9.0-1.0","","","","","","[{""stimulus"":""https://ziweizhang0304.github.io/Stats_learning_trig/img/Stim/FN_015_g.png"",""time"":354.5},{""stimulus"":""blank"",""time"":655},{""stimulus"":""https://ziweizhang0304.github.io/Stats_learning_trig/img/Stim/FN_014_g.png"",""time"":681.1999999880791},{""stimulus"":""blank"",""time"":996.1999999880791},{""stimulus"":""https://ziweizhang0304.github.io/Stats_learning_trig/img/Stim/FN_003_g.png"",""time"":1021.2999999970198},{""stimulus"":""blank"",""time"":1334.699999988079},{""stimulus"":""https://ziweizhang0304.github.io/Stats_learning_trig/img/Stim/FN_025_g.png"",""time"":1366},{""stimulus"":""blank"",""time"":1674.8999999910593},{""stimulus"":""https://ziweizhang0304.github.io/Stats_learning_trig/img/Stim/FN_010_g.png"",""time"":1701},{""stimulus"":""blank"",""time"":2016.199999988079},{""stimulus"":""https://ziweizhang0304.github.io/Stats_learning_trig/img/Stim/FN_005_g.png"",""time"":2042.5},{""stimulus"":""blank"",""time"":2357.199999988079},{""stimulus"":""https://ziweizhang0304.github.io/Stats_learning_trig/img/Stim/FN_004_g.png"",""time"":2381},{""stimulus"":""blank"",""time"":2696.3999999910593},{""stimulus"":""https://ziweizhang0304.github.io/Stats_learning_trig/img/Stim/FN_016_g.png"",""time"":2720.699999988079},{""stimulus"":""blank"",""time"":3022.0999999940395},{""stimulus"":""https://ziweizhang0304.github.io/Stats_learning_trig/img/Stim/FN_009_g.png"",""time"":3062},{""stimulus"":""blank"",""time"":3374.0999999940395},{""stimulus"":""https://ziweizhang0304.github.io/Stats_learning_trig/img/Stim/FN_023_g.png"",""time"":3402.199999988079},{""stimulus"":""blank"",""time"":3715.3999999910593},{""stimulus"":""https://ziweizhang0304.github.io/Stats_learning_trig/img/Stim/FN_024_g.png"",""time"":3740.699999988079},{""stimulus"":""blank"",""time"":4053.199999988079},{""stimulus"":""https://ziweizhang0304.github.io/Stats_learning_trig/img/Stim/FN_020_g.png"",""time"":4084.5},{""stimulus"":""blank"",""time"":4394.0999999940395}]","[{""key_press"":32,""rt"":2877.4000000059605,""stimulus"":""https://ziweizhang0304.github.io/Stats_learning_trig/img/Stim/FN_016_g.png""}]","496.40000000596046","https://ziweizhang0304.github.io/Stats_learning_trig/img/Stim/FN_004_g.png","post_TD","10","2381","2877.4000000059605","slow","7","2","5d88e9d13e9a6e0001084e80","","","","","",""
"","image-keyboard-response","33","109045","0.0-5.0-10.0-0.0","374.70000000298023","","","https://ziweizhang0304.github.io/Stats_learning_trig/img/Stim/FN_005_g.png","13","","","","","","","","","","","","","","","","","",""
"","animation","34","113468","0.0-5.0-10.0-1.0","","","","","","[{""stimulus"":""https://ziweizhang0304.github.io/Stats_learning_trig/img/Stim/FN_010_g.png"",""time"":343.09999999403954},{""stimulus"":""blank"",""time"":658.1999999880791},{""stimulus"":""https://ziweizhang0304.github.io/Stats_learning_trig/img/Stim/FN_025_g.png"",""time"":688.5999999940395},{""stimulus"":""blank"",""time"":997.2999999970198},{""stimulus"":""https://ziweizhang0304.github.io/Stats_learning_trig/img/Stim/FN_024_g.png"",""time"":1021.5},{""stimulus"":""blank"",""time"":1323},{""stimulus"":""https://ziweizhang0304.github.io/Stats_learning_trig/img/Stim/FN_023_g.png"",""time"":1369.2999999970198},{""stimulus"":""blank"",""time"":1674.5999999940395},{""stimulus"":""https://ziweizhang0304.github.io/Stats_learning_trig/img/Stim/FN_003_g.png"",""time"":1706.3999999910593},{""stimulus"":""blank"",""time"":2013.8999999910593},{""stimulus"":""https://ziweizhang0304.github.io/Stats_learning_trig/img/Stim/FN_015_g.png"",""time"":2040.5999999940395},{""stimulus"":""blank"",""time"":2353.8999999910593},{""stimulus"":""https://ziweizhang0304.github.io/Stats_learning_trig/img/Stim/FN_005_g.png"",""time"":2381.5},{""stimulus"":""blank"",""time"":2685.699999988079},{""stimulus"":""https://ziweizhang0304.github.io/Stats_learning_trig/img/Stim/FN_004_g.png"",""time"":2733.2999999970198},{""stimulus"":""blank"",""time"":3044.2999999970198},{""stimulus"":""https://ziweizhang0304.github.io/Stats_learning_trig/img/Stim/FN_016_g.png"",""time"":3060.699999988079},{""stimulus"":""blank"",""time"":3369.7999999970198},{""stimulus"":""https://ziweizhang0304.github.io/Stats_learning_trig/img/Stim/FN_009_g.png"",""time"":3401.0999999940395},{""stimulus"":""blank"",""time"":3710.2999999970198},{""stimulus"":""https://ziweizhang0304.github.io/Stats_learning_trig/img/Stim/FN_014_g.png"",""time"":3742.0999999940395},{""stimulus"":""blank"",""time"":4045.699999988079},{""stimulus"":""https://ziweizhang0304.github.io/Stats_learning_trig/img/Stim/FN_020_g.png"",""time"":4082.7999999970198},{""stimulus"":""blank"",""time"":4395.5}]","[{""key_press"":32,""rt"":2830,""stimulus"":""https://ziweizhang0304.github.io/Stats_learning_trig/img/Stim/FN_004_g.png""}]","448.5","https://ziweizhang0304.github.io/Stats_learning_trig/img/Stim/FN_005_g.png","post_TD","11","2381.5","2830","slow","7","1","5d88e9d13e9a6e0001084e80","","","","","",""
"","image-keyboard-response","35","114054","0.0-5.0-11.0-0.0","584.3000000119209","","","https://ziweizhang0304.github.io/Stats_learning_trig/img/Stim/FN_007_g.png","13","","","","","","","","","","","","","","","","","",""
"","animation","36","118475","0.0-5.0-11.0-1.0","","","","","","[{""stimulus"":""https://ziweizhang0304.github.io/Stats_learning_trig/img/Stim/FN_023_g.png"",""time"":346.79999999701977},{""stimulus"":""blank"",""time"":654.0999999940395},{""stimulus"":""https://ziweizhang0304.github.io/Stats_learning_trig/img/Stim/FN_015_g.png"",""time"":680.7000000029802},{""stimulus"":""blank"",""time"":991.5999999940395},{""stimulus"":""https://ziweizhang0304.github.io/Stats_learning_trig/img/Stim/FN_020_g.png"",""time"":1021.2000000029802},{""stimulus"":""blank"",""time"":1329.5999999940395},{""stimulus"":""https://ziweizhang0304.github.io/Stats_learning_trig/img/Stim/FN_010_g.png"",""time"":1362.5},{""stimulus"":""blank"",""time"":1670.7000000029802},{""stimulus"":""https://ziweizhang0304.github.io/Stats_learning_trig/img/Stim/FN_014_g.png"",""time"":1701.7999999970198},{""stimulus"":""blank"",""time"":2007.7000000029802},{""stimulus"":""https://ziweizhang0304.github.io/Stats_learning_trig/img/Stim/FN_025_g.png"",""time"":2041.4000000059605},{""stimulus"":""blank"",""time"":2346.7000000029802},{""stimulus"":""https://ziweizhang0304.github.io/Stats_learning_trig/img/Stim/FN_008_g.png"",""time"":2382.4000000059605},{""stimulus"":""blank"",""time"":2684.0999999940395},{""stimulus"":""https://ziweizhang0304.github.io/Stats_learning_trig/img/Stim/FN_007_g.png"",""time"":2722.2999999970198},{""stimulus"":""blank"",""time"":3038.4000000059605},{""stimulus"":""https://ziweizhang0304.github.io/Stats_learning_trig/img/Stim/FN_011_g.png"",""time"":3062.0999999940395},{""stimulus"":""blank"",""time"":3376.7999999970198},{""stimulus"":""https://ziweizhang0304.github.io/Stats_learning_trig/img/Stim/FN_009_g.png"",""time"":3408.5},{""stimulus"":""blank"",""time"":3717.7000000029802},{""stimulus"":""https://ziweizhang0304.github.io/Stats_learning_trig/img/Stim/FN_024_g.png"",""time"":3740.9000000059605},{""stimulus"":""blank"",""time"":4047.7999999970198},{""stimulus"":""https://ziweizhang0304.github.io/Stats_learning_trig/img/Stim/FN_003_g.png"",""time"":4095.2000000029802},{""stimulus"":""blank"",""time"":4403.70000000298}]","[{""key_press"":32,""rt"":1775.300000011921,""stimulus"":""https://ziweizhang0304.github.io/Stats_learning_trig/img/Stim/FN_014_g.png""},{""key_press"":32,""rt"":3134.300000011921,""stimulus"":""https://ziweizhang0304.github.io/Stats_learning_trig/img/Stim/FN_011_g.png""}]","412.00000001490116","https://ziweizhang0304.github.io/Stats_learning_trig/img/Stim/FN_007_g.png","post_TD","12","2722.2999999970198","3134.300000011921","fast","8","2","5d88e9d13e9a6e0001084e80","","","","","",""
"","image-keyboard-response","37","118853","0.0-5.0-12.0-0.0","376.69999998807907","","","https://ziweizhang0304.github.io/Stats_learning_trig/img/Stim/FN_008_g.png","13","","","","","","","","","","","","","","","","","",""
"","animation","38","123275","0.0-5.0-12.0-1.0","","","","","","[{""stimulus"":""https://ziweizhang0304.github.io/Stats_learning_trig/img/Stim/FN_025_g.png"",""time"":354.5},{""stimulus"":""blank"",""time"":664.8000000119209},{""stimulus"":""https://ziweizhang0304.github.io/Stats_learning_trig/img/Stim/FN_020_g.png"",""time"":680.6000000089407},{""stimulus"":""blank"",""time"":997.1000000089407},{""stimulus"":""https://ziweizhang0304.github.io/Stats_learning_trig/img/Stim/FN_015_g.png"",""time"":1021.4000000059605},{""stimulus"":""blank"",""time"":1327.2000000029802},{""stimulus"":""https://ziweizhang0304.github.io/Stats_learning_trig/img/Stim/FN_008_g.png"",""time"":1361.7000000029802},{""stimulus"":""blank"",""time"":1665.800000011921},{""stimulus"":""https://ziweizhang0304.github.io/Stats_learning_trig/img/Stim/FN_007_g.png"",""time"":1713.2000000029802},{""stimulus"":""blank"",""time"":2019.7000000029802},{""stimulus"":""https://ziweizhang0304.github.io/Stats_learning_trig/img/Stim/FN_011_g.png"",""time"":2040.5},{""stimulus"":""blank"",""time"":2346.2000000029802},{""stimulus"":""https://ziweizhang0304.github.io/Stats_learning_trig/img/Stim/FN_009_g.png"",""time"":2392.5},{""stimulus"":""blank"",""time"":2700.7000000029802},{""stimulus"":""https://ziweizhang0304.github.io/Stats_learning_trig/img/Stim/FN_023_g.png"",""time"":2721.2000000029802},{""stimulus"":""blank"",""time"":3026.6000000089407},{""stimulus"":""https://ziweizhang0304.github.io/Stats_learning_trig/img/Stim/FN_024_g.png"",""time"":3060.800000011921},{""stimulus"":""blank"",""time"":3362.1000000089407},{""stimulus"":""https://ziweizhang0304.github.io/Stats_learning_trig/img/Stim/FN_003_g.png"",""time"":3409.2000000029802},{""stimulus"":""blank"",""time"":3717},{""stimulus"":""https://ziweizhang0304.github.io/Stats_learning_trig/img/Stim/FN_010_g.png"",""time"":3741.6000000089407},{""stimulus"":""blank"",""time"":4053.300000011921},{""stimulus"":""https://ziweizhang0304.github.io/Stats_learning_trig/img/Stim/FN_014_g.png"",""time"":4080.5},{""stimulus"":""blank"",""time"":4397}]","[{""key_press"":32,""rt"":1823.2000000029802,""stimulus"":""https://ziweizhang0304.github.io/Stats_learning_trig/img/Stim/FN_007_g.png""}]","461.5","https://ziweizhang0304.github.io/Stats_learning_trig/img/Stim/FN_008_g.png","post_TD","13","1361.7000000029802","1823.2000000029802","fast","4","1","5d88e9d13e9a6e0001084e80","","","","","",""
"","image-keyboard-response","39","123685","0.0-5.0-13.0-0.0","408","","","https://ziweizhang0304.github.io/Stats_learning_trig/img/Stim/FN_011_g.png","13","","","","","","","","","","","","","","","","","",""
"","animation","40","128107","0.0-5.0-13.0-1.0","","","","","","[{""stimulus"":""https://ziweizhang0304.github.io/Stats_learning_trig/img/Stim/FN_023_g.png"",""time"":356},{""stimulus"":""blank"",""time"":671.7000000029802},{""stimulus"":""https://ziweizhang0304.github.io/Stats_learning_trig/img/Stim/FN_024_g.png"",""time"":681},{""stimulus"":""blank"",""time"":993.5999999940395},{""stimulus"":""https://ziweizhang0304.github.io/Stats_learning_trig/img/Stim/FN_003_g.png"",""time"":1020.8999999910593},{""stimulus"":""blank"",""time"":1331.0999999940395},{""stimulus"":""https://ziweizhang0304.github.io/Stats_learning_trig/img/Stim/FN_014_g.png"",""time"":1362},{""stimulus"":""blank"",""time"":1675.5999999940395},{""stimulus"":""https://ziweizhang0304.github.io/Stats_learning_trig/img/Stim/FN_008_g.png"",""time"":1701.8999999910593},{""stimulus"":""blank"",""time"":2014.0999999940395},{""stimulus"":""https://ziweizhang0304.github.io/Stats_learning_trig/img/Stim/FN_007_g.png"",""time"":2041},{""stimulus"":""blank"",""time"":2354.5999999940395},{""stimulus"":""https://ziweizhang0304.github.io/Stats_learning_trig/img/Stim/FN_011_g.png"",""time"":2380.7999999970198},{""stimulus"":""blank"",""time"":2691.2000000029802},{""stimulus"":""https://ziweizhang0304.github.io/Stats_learning_trig/img/Stim/FN_009_g.png"",""time"":2721.0999999940395},{""stimulus"":""blank"",""time"":3032.2000000029802},{""stimulus"":""https://ziweizhang0304.github.io/Stats_learning_trig/img/Stim/FN_010_g.png"",""time"":3060.7999999970198},{""stimulus"":""blank"",""time"":3369.5999999940395},{""stimulus"":""https://ziweizhang0304.github.io/Stats_learning_trig/img/Stim/FN_020_g.png"",""time"":3406.2000000029802},{""stimulus"":""blank"",""time"":3708.0999999940395},{""stimulus"":""https://ziweizhang0304.github.io/Stats_learning_trig/img/Stim/FN_025_g.png"",""time"":3741.7000000029802},{""stimulus"":""blank"",""time"":4051.2999999970198},{""stimulus"":""https://ziweizhang0304.github.io/Stats_learning_trig/img/Stim/FN_015_g.png"",""time"":4081.3999999910593},{""stimulus"":""blank"",""time"":4389.0999999940395}]","[{""key_press"":32,""rt"":2816.1000000089407,""stimulus"":""https://ziweizhang0304.github.io/Stats_learning_trig/img/Stim/FN_009_g.png""}]","435.30000001192093","https://ziweizhang0304.github.io/Stats_learning_trig/img/Stim/FN_011_g.png","post_TD","14","2380.7999999970198","2816.1000000089407","fast","7","3","5d88e9d13e9a6e0001084e80","","","","","",""
"","image-keyboard-response","41","128742","0.0-5.0-14.0-0.0","633.2000000029802","","","https://ziweizhang0304.github.io/Stats_learning_trig/img/Stim/FN_005_g.png","13","","","","","","","","","","","","","","","","","",""
"","animation","42","133164","0.0-5.0-14.0-1.0","","","","","","[{""stimulus"":""https://ziweizhang0304.github.io/Stats_learning_trig/img/Stim/FN_024_g.png"",""time"":353.19999998807907},{""stimulus"":""blank"",""time"":664.6999999880791},{""stimulus"":""https://ziweizhang0304.github.io/Stats_learning_trig/img/Stim/FN_023_g.png"",""time"":681.0999999940395},{""stimulus"":""blank"",""time"":987.5},{""stimulus"":""https://ziweizhang0304.github.io/Stats_learning_trig/img/Stim/FN_010_g.png"",""time"":1021.3999999910593},{""stimulus"":""blank"",""time"":1334.7999999970198},{""stimulus"":""https://ziweizhang0304.github.io/Stats_learning_trig/img/Stim/FN_005_g.png"",""time"":1362.5999999940395},{""stimulus"":""blank"",""time"":1672.5},{""stimulus"":""https://ziweizhang0304.github.io/Stats_learning_trig/img/Stim/FN_004_g.png"",""time"":1701.7999999970198},{""stimulus"":""blank"",""time"":2010.5999999940395},{""stimulus"":""https://ziweizhang0304.github.io/Stats_learning_trig/img/Stim/FN_016_g.png"",""time"":2040.699999988079},{""stimulus"":""blank"",""time"":2351.8999999910593},{""stimulus"":""https://ziweizhang0304.github.io/Stats_learning_trig/img/Stim/FN_009_g.png"",""time"":2382.3999999910593},{""stimulus"":""blank"",""time"":2688.7999999970198},{""stimulus"":""https://ziweizhang0304.github.io/Stats_learning_trig/img/Stim/FN_003_g.png"",""time"":2722.0999999940395},{""stimulus"":""blank"",""time"":3030.2999999970198},{""stimulus"":""https://ziweizhang0304.github.io/Stats_learning_trig/img/Stim/FN_014_g.png"",""time"":3075.7999999970198},{""stimulus"":""blank"",""time"":3387.8999999910593},{""stimulus"":""https://ziweizhang0304.github.io/Stats_learning_trig/img/Stim/FN_020_g.png"",""time"":3401.3999999910593},{""stimulus"":""blank"",""time"":3702.3999999910593},{""stimulus"":""https://ziweizhang0304.github.io/Stats_learning_trig/img/Stim/FN_025_g.png"",""time"":3742.3999999910593},{""stimulus"":""blank"",""time"":4049},{""stimulus"":""https://ziweizhang0304.github.io/Stats_learning_trig/img/Stim/FN_015_g.png"",""time"":4081.5999999940395},{""stimulus"":""blank"",""time"":4387}]","[{""key_press"":32,""rt"":1742.1000000089407,""stimulus"":""https://ziweizhang0304.github.io/Stats_learning_trig/img/Stim/FN_004_g.png""}]","379.50000001490116","https://ziweizhang0304.github.io/Stats_learning_trig/img/Stim/FN_005_g.png","post_TD","15","1362.5999999940395","1742.1000000089407","slow","4","1","5d88e9d13e9a6e0001084e80","","","","","",""
"","image-keyboard-response","43","133654","0.0-5.0-15.0-0.0","488.29999999701977","","","https://ziweizhang0304.github.io/Stats_learning_trig/img/Stim/FN_008_g.png","13","","","","","","","","","","","","","","","","","",""
"","animation","44","138076","0.0-5.0-15.0-1.0","","","","","","[{""stimulus"":""https://ziweizhang0304.github.io/Stats_learning_trig/img/Stim/FN_023_g.png"",""time"":351.3999999910593},{""stimulus"":""blank"",""time"":663.5999999940395},{""stimulus"":""https://ziweizhang0304.github.io/Stats_learning_trig/img/Stim/FN_024_g.png"",""time"":681.8999999910593},{""stimulus"":""blank"",""time"":989.5},{""stimulus"":""https://ziweizhang0304.github.io/Stats_learning_trig/img/Stim/FN_003_g.png"",""time"":1021.5},{""stimulus"":""blank"",""time"":1329},{""stimulus"":""https://ziweizhang0304.github.io/Stats_learning_trig/img/Stim/FN_014_g.png"",""time"":1362.3999999910593},{""stimulus"":""blank"",""time"":1663.699999988079},{""stimulus"":""https://ziweizhang0304.github.io/Stats_learning_trig/img/Stim/FN_008_g.png"",""time"":1709.8999999910593},{""stimulus"":""blank"",""time"":2017},{""stimulus"":""https://ziweizhang0304.github.io/Stats_learning_trig/img/Stim/FN_007_g.png"",""time"":2042.0999999940395},{""stimulus"":""blank"",""time"":2356.2999999970198},{""stimulus"":""https://ziweizhang0304.github.io/Stats_learning_trig/img/Stim/FN_011_g.png"",""time"":2382.5},{""stimulus"":""blank"",""time"":2698.2999999970198},{""stimulus"":""https://ziweizhang0304.github.io/Stats_learning_trig/img/Stim/FN_009_g.png"",""time"":2720.5999999940395},{""stimulus"":""blank"",""time"":3026.0999999940395},{""stimulus"":""https://ziweizhang0304.github.io/Stats_learning_trig/img/Stim/FN_010_g.png"",""time"":3072.699999988079},{""stimulus"":""blank"",""time"":3382.3999999910593},{""stimulus"":""https://ziweizhang0304.github.io/Stats_learning_trig/img/Stim/FN_020_g.png"",""time"":3402.199999988079},{""stimulus"":""blank"",""time"":3711.199999988079},{""stimulus"":""https://ziweizhang0304.github.io/Stats_learning_trig/img/Stim/FN_025_g.png"",""time"":3742.699999988079},{""stimulus"":""blank"",""time"":4046.2999999970198},{""stimulus"":""https://ziweizhang0304.github.io/Stats_learning_trig/img/Stim/FN_015_g.png"",""time"":4080.8999999910593},{""stimulus"":""blank"",""time"":4383.5999999940395}]","[{""key_press"":32,""rt"":2094.4000000059605,""stimulus"":""https://ziweizhang0304.github.io/Stats_learning_trig/img/Stim/FN_007_g.png""}]","384.50000001490116","https://ziweizhang0304.github.io/Stats_learning_trig/img/Stim/FN_008_g.png","post_TD","16","1709.8999999910593","2094.4000000059605","fast","5","1","5d88e9d13e9a6e0001084e80","","","","","",""
"","image-keyboard-response","45","138439","0.0-5.0-16.0-0.0","361.30000001192093","","","https://ziweizhang0304.github.io/Stats_learning_trig/img/Stim/FN_016_g.png","13","","","","","","","","","","","","","","","","","",""
"","animation","46","142870","0.0-5.0-16.0-1.0","","","","","","[{""stimulus"":""https://ziweizhang0304.github.io/Stats_learning_trig/img/Stim/FN_024_g.png"",""time"":346.20000000298023},{""stimulus"":""blank"",""time"":653.9000000059605},{""stimulus"":""https://ziweizhang0304.github.io/Stats_learning_trig/img/Stim/FN_023_g.png"",""time"":681.7000000029802},{""stimulus"":""blank"",""time"":990.5},{""stimulus"":""https://ziweizhang0304.github.io/Stats_learning_trig/img/Stim/FN_010_g.png"",""time"":1021.8000000119209},{""stimulus"":""blank"",""time"":1329.9000000059605},{""stimulus"":""https://ziweizhang0304.github.io/Stats_learning_trig/img/Stim/FN_005_g.png"",""time"":1362},{""stimulus"":""blank"",""time"":1665.1000000089407},{""stimulus"":""https://ziweizhang0304.github.io/Stats_learning_trig/img/Stim/FN_004_g.png"",""time"":1701.9000000059605},{""stimulus"":""blank"",""time"":2007.300000011921},{""stimulus"":""https://ziweizhang0304.github.io/Stats_learning_trig/img/Stim/FN_016_g.png"",""time"":2040.4000000059605},{""stimulus"":""blank"",""time"":2348.7000000029802},{""stimulus"":""https://ziweizhang0304.github.io/Stats_learning_trig/img/Stim/FN_009_g.png"",""time"":2381},{""stimulus"":""blank"",""time"":2681.7000000029802},{""stimulus"":""https://ziweizhang0304.github.io/Stats_learning_trig/img/Stim/FN_003_g.png"",""time"":2720.9000000059605},{""stimulus"":""blank"",""time"":3031.4000000059605},{""stimulus"":""https://ziweizhang0304.github.io/Stats_learning_trig/img/Stim/FN_014_g.png"",""time"":3061.9000000059605},{""stimulus"":""blank"",""time"":3377},{""stimulus"":""https://ziweizhang0304.github.io/Stats_learning_trig/img/Stim/FN_020_g.png"",""time"":3407.6000000089407},{""stimulus"":""blank"",""time"":3717.1000000089407},{""stimulus"":""https://ziweizhang0304.github.io/Stats_learning_trig/img/Stim/FN_025_g.png"",""time"":3741.9000000059605},{""stimulus"":""blank"",""time"":4054.6000000089407},{""stimulus"":""https://ziweizhang0304.github.io/Stats_learning_trig/img/Stim/FN_015_g.png"",""time"":4081.2000000029802},{""stimulus"":""blank"",""time"":4384.100000008941}]","[{""key_press"":32,""rt"":2461.2000000029802,""stimulus"":""https://ziweizhang0304.github.io/Stats_learning_trig/img/Stim/FN_009_g.png""}]","420.79999999701977","https://ziweizhang0304.github.io/Stats_learning_trig/img/Stim/FN_016_g.png","post_TD","17","2040.4000000059605","2461.2000000029802","slow","6","3","5d88e9d13e9a6e0001084e80","","","","","",""
"","image-keyboard-response","47","143436","0.0-5.0-17.0-0.0","563.3999999910593","","","https://ziweizhang0304.github.io/Stats_learning_trig/img/Stim/FN_004_g.png","13","","","","","","","","","","","","","","","","","",""
"","animation","48","147868","0.0-5.0-17.0-1.0","","","","","","[{""stimulus"":""https://ziweizhang0304.github.io/Stats_learning_trig/img/Stim/FN_010_g.png"",""time"":354.69999998807907},{""stimulus"":""blank"",""time"":656.7999999970198},{""stimulus"":""https://ziweizhang0304.github.io/Stats_learning_trig/img/Stim/FN_025_g.png"",""time"":681.7999999970198},{""stimulus"":""blank"",""time"":992.5},{""stimulus"":""https://ziweizhang0304.github.io/Stats_learning_trig/img/Stim/FN_024_g.png"",""time"":1022},{""stimulus"":""blank"",""time"":1338.699999988079},{""stimulus"":""https://ziweizhang0304.github.io/Stats_learning_trig/img/Stim/FN_023_g.png"",""time"":1361.7999999970198},{""stimulus"":""blank"",""time"":1665.5},{""stimulus"":""https://ziweizhang0304.github.io/Stats_learning_trig/img/Stim/FN_003_g.png"",""time"":1701.2999999970198},{""stimulus"":""blank"",""time"":2006.2999999970198},{""stimulus"":""https://ziweizhang0304.github.io/Stats_learning_trig/img/Stim/FN_015_g.png"",""time"":2052.5999999940395},{""stimulus"":""blank"",""time"":2361.3999999910593},{""stimulus"":""https://ziweizhang0304.github.io/Stats_learning_trig/img/Stim/FN_005_g.png"",""time"":2381.699999988079},{""stimulus"":""blank"",""time"":2689.0999999940395},{""stimulus"":""https://ziweizhang0304.github.io/Stats_learning_trig/img/Stim/FN_004_g.png"",""time"":2721.5999999940395},{""stimulus"":""blank"",""time"":3026.199999988079},{""stimulus"":""https://ziweizhang0304.github.io/Stats_learning_trig/img/Stim/FN_016_g.png"",""time"":3073.199999988079},{""stimulus"":""blank"",""time"":3380.3999999910593},{""stimulus"":""https://ziweizhang0304.github.io/Stats_learning_trig/img/Stim/FN_009_g.png"",""time"":3400.7999999970198},{""stimulus"":""blank"",""time"":3706.699999988079},{""stimulus"":""https://ziweizhang0304.github.io/Stats_learning_trig/img/Stim/FN_014_g.png"",""time"":3741.7999999970198},{""stimulus"":""blank"",""time"":4059},{""stimulus"":""https://ziweizhang0304.github.io/Stats_learning_trig/img/Stim/FN_020_g.png"",""time"":4081.199999988079},{""stimulus"":""blank"",""time"":4385}]","[{""key_press"":32,""rt"":3111.7999999970198,""stimulus"":""https://ziweizhang0304.github.io/Stats_learning_trig/img/Stim/FN_016_g.png""}]","390.20000000298023","https://ziweizhang0304.github.io/Stats_learning_trig/img/Stim/FN_004_g.png","post_TD","18","2721.5999999940395","3111.7999999970198","slow","8","2","5d88e9d13e9a6e0001084e80","","","","","",""
"","image-keyboard-response","49","148838","0.0-5.0-18.0-0.0","968.4000000059605","","","https://ziweizhang0304.github.io/Stats_learning_trig/img/Stim/FN_004_g.png","13","","","","","","","","","","","","","","","","","",""
"","animation","50","153261","0.0-5.0-18.0-1.0","","","","","","[{""stimulus"":""https://ziweizhang0304.github.io/Stats_learning_trig/img/Stim/FN_014_g.png"",""time"":350.40000000596046},{""stimulus"":""blank"",""time"":658.2999999970198},{""stimulus"":""https://ziweizhang0304.github.io/Stats_learning_trig/img/Stim/FN_020_g.png"",""time"":681},{""stimulus"":""blank"",""time"":992.2000000029802},{""stimulus"":""https://ziweizhang0304.github.io/Stats_learning_trig/img/Stim/FN_025_g.png"",""time"":1021},{""stimulus"":""blank"",""time"":1326},{""stimulus"":""https://ziweizhang0304.github.io/Stats_learning_trig/img/Stim/FN_009_g.png"",""time"":1372.5},{""stimulus"":""blank"",""time"":1677.2999999970198},{""stimulus"":""https://ziweizhang0304.github.io/Stats_learning_trig/img/Stim/FN_005_g.png"",""time"":1700.6000000089407},{""stimulus"":""blank"",""time"":2001.9000000059605},{""stimulus"":""https://ziweizhang0304.github.io/Stats_learning_trig/img/Stim/FN_004_g.png"",""time"":2047.2000000029802},{""stimulus"":""blank"",""time"":2357.7000000029802},{""stimulus"":""https://ziweizhang0304.github.io/Stats_learning_trig/img/Stim/FN_016_g.png"",""time"":2381.6000000089407},{""stimulus"":""blank"",""time"":2694.6000000089407},{""stimulus"":""https://ziweizhang0304.github.io/Stats_learning_trig/img/Stim/FN_023_g.png"",""time"":2720.7999999970198},{""stimulus"":""blank"",""time"":3030.6000000089407},{""stimulus"":""https://ziweizhang0304.github.io/Stats_learning_trig/img/Stim/FN_024_g.png"",""time"":3061.1000000089407},{""stimulus"":""blank"",""time"":3372.4000000059605},{""stimulus"":""https://ziweizhang0304.github.io/Stats_learning_trig/img/Stim/FN_003_g.png"",""time"":3401.9000000059605},{""stimulus"":""blank"",""time"":3715.1000000089407},{""stimulus"":""https://ziweizhang0304.github.io/Stats_learning_trig/img/Stim/FN_010_g.png"",""time"":3741.7000000029802},{""stimulus"":""blank"",""time"":4051.7000000029802},{""stimulus"":""https://ziweizhang0304.github.io/Stats_learning_trig/img/Stim/FN_015_g.png"",""time"":4081.9000000059605},{""stimulus"":""blank"",""time"":4390.9000000059605}]","[{""key_press"":32,""rt"":2479.199999988079,""stimulus"":""https://ziweizhang0304.github.io/Stats_learning_trig/img/Stim/FN_016_g.png""}]","431.99999998509884","https://ziweizhang0304.github.io/Stats_learning_trig/img/Stim/FN_004_g.png","post_TD","19","2047.2000000029802","2479.199999988079","slow","6","2","5d88e9d13e9a6e0001084e80","","","","","",""
"","image-keyboard-response","51","154470","0.0-5.0-19.0-0.0","1208","","","https://ziweizhang0304.github.io/Stats_learning_trig/img/Stim/FN_007_g.png","13","","","","","","","","","","","","","","","","","",""
"","animation","52","158893","0.0-5.0-19.0-1.0","","","","","","[{""stimulus"":""https://ziweizhang0304.github.io/Stats_learning_trig/img/Stim/FN_023_g.png"",""time"":347},{""stimulus"":""blank"",""time"":648.5},{""stimulus"":""https://ziweizhang0304.github.io/Stats_learning_trig/img/Stim/FN_024_g.png"",""time"":682.2000000029802},{""stimulus"":""blank"",""time"":983.0999999940395},{""stimulus"":""https://ziweizhang0304.github.io/Stats_learning_trig/img/Stim/FN_003_g.png"",""time"":1031.5},{""stimulus"":""blank"",""time"":1345.5},{""stimulus"":""https://ziweizhang0304.github.io/Stats_learning_trig/img/Stim/FN_014_g.png"",""time"":1361.5},{""stimulus"":""blank"",""time"":1666.7000000029802},{""stimulus"":""https://ziweizhang0304.github.io/Stats_learning_trig/img/Stim/FN_008_g.png"",""time"":1701.4000000059605},{""stimulus"":""blank"",""time"":2008.5999999940395},{""stimulus"":""https://ziweizhang0304.github.io/Stats_learning_trig/img/Stim/FN_007_g.png"",""time"":2040.7000000029802},{""stimulus"":""blank"",""time"":2353.4000000059605},{""stimulus"":""https://ziweizhang0304.github.io/Stats_learning_trig/img/Stim/FN_011_g.png"",""time"":2381.4000000059605},{""stimulus"":""blank"",""time"":2695.5},{""stimulus"":""https://ziweizhang0304.github.io/Stats_learning_trig/img/Stim/FN_009_g.png"",""time"":2720.7999999970198},{""stimulus"":""blank"",""time"":3027.0999999940395},{""stimulus"":""https://ziweizhang0304.github.io/Stats_learning_trig/img/Stim/FN_010_g.png"",""time"":3069.5999999940395},{""stimulus"":""blank"",""time"":3370.0999999940395},{""stimulus"":""https://ziweizhang0304.github.io/Stats_learning_trig/img/Stim/FN_020_g.png"",""time"":3402.0999999940395},{""stimulus"":""blank"",""time"":3711.0999999940395},{""stimulus"":""https://ziweizhang0304.github.io/Stats_learning_trig/img/Stim/FN_025_g.png"",""time"":3740.5},{""stimulus"":""blank"",""time"":4050.9000000059605},{""stimulus"":""https://ziweizhang0304.github.io/Stats_learning_trig/img/Stim/FN_015_g.png"",""time"":4081.7999999970198},{""stimulus"":""blank"",""time"":4390.79999999702}]","[{""key_press"":32,""rt"":2509.5,""stimulus"":""https://ziweizhang0304.github.io/Stats_learning_trig/img/Stim/FN_011_g.png""}]","468.79999999701977","https://ziweizhang0304.github.io/Stats_learning_trig/img/Stim/FN_007_g.png","post_TD","20","2040.7000000029802","2509.5","fast","6","2","5d88e9d13e9a6e0001084e80","","","","","",""
"","image-keyboard-response","53","159766","0.0-5.0-20.0-0.0","871.4000000059605","","","https://ziweizhang0304.github.io/Stats_learning_trig/img/Stim/FN_008_g.png","13","","","","","","","","","","","","","","","","","",""
"","animation","54","164188","0.0-5.0-20.0-1.0","","","","","","[{""stimulus"":""https://ziweizhang0304.github.io/Stats_learning_trig/img/Stim/FN_023_g.png"",""time"":343.40000000596046},{""stimulus"":""blank"",""time"":645},{""stimulus"":""https://ziweizhang0304.github.io/Stats_learning_trig/img/Stim/FN_015_g.png"",""time"":692.5},{""stimulus"":""blank"",""time"":1004},{""stimulus"":""https://ziweizhang0304.github.io/Stats_learning_trig/img/Stim/FN_020_g.png"",""time"":1022.4000000059605},{""stimulus"":""blank"",""time"":1329.7000000029802},{""stimulus"":""https://ziweizhang0304.github.io/Stats_learning_trig/img/Stim/FN_010_g.png"",""time"":1360.7999999970198},{""stimulus"":""blank"",""time"":1672.2999999970198},{""stimulus"":""https://ziweizhang0304.github.io/Stats_learning_trig/img/Stim/FN_014_g.png"",""time"":1701.5},{""stimulus"":""blank"",""time"":2013.9000000059605},{""stimulus"":""https://ziweizhang0304.github.io/Stats_learning_trig/img/Stim/FN_025_g.png"",""time"":2041.5},{""stimulus"":""blank"",""time"":2352.0999999940395},{""stimulus"":""https://ziweizhang0304.github.io/Stats_learning_trig/img/Stim/FN_008_g.png"",""time"":2381.2999999970198},{""stimulus"":""blank"",""time"":2690.7999999970198},{""stimulus"":""https://ziweizhang0304.github.io/Stats_learning_trig/img/Stim/FN_007_g.png"",""time"":2721},{""stimulus"":""blank"",""time"":3022.7000000029802},{""stimulus"":""https://ziweizhang0304.github.io/Stats_learning_trig/img/Stim/FN_011_g.png"",""time"":3069.0999999940395},{""stimulus"":""blank"",""time"":3378.2000000029802},{""stimulus"":""https://ziweizhang0304.github.io/Stats_learning_trig/img/Stim/FN_009_g.png"",""time"":3401.9000000059605},{""stimulus"":""blank"",""time"":3717.5},{""stimulus"":""https://ziweizhang0304.github.io/Stats_learning_trig/img/Stim/FN_024_g.png"",""time"":3740.7999999970198},{""stimulus"":""blank"",""time"":4041.7000000029802},{""stimulus"":""https://ziweizhang0304.github.io/Stats_learning_trig/img/Stim/FN_003_g.png"",""time"":4088.2000000029802},{""stimulus"":""blank"",""time"":4393.5999999940395}]","[{""key_press"":32,""rt"":2765.6000000089407,""stimulus"":""https://ziweizhang0304.github.io/Stats_learning_trig/img/Stim/FN_007_g.png""}]","384.30000001192093","https://ziweizhang0304.github.io/Stats_learning_trig/img/Stim/FN_008_g.png","post_TD","21","2381.2999999970198","2765.6000000089407","fast","7","1","5d88e9d13e9a6e0001084e80","","","","","",""
"","image-keyboard-response","55","164790","0.0-5.0-21.0-0.0","599","","","https://ziweizhang0304.github.io/Stats_learning_trig/img/Stim/FN_011_g.png","13","","","","","","","","","","","","","","","","","",""
"","animation","56","169211","0.0-5.0-21.0-1.0","","","","","","[{""stimulus"":""https://ziweizhang0304.github.io/Stats_learning_trig/img/Stim/FN_003_g.png"",""time"":356.59999999403954},{""stimulus"":""blank"",""time"":669.0999999940395},{""stimulus"":""https://ziweizhang0304.github.io/Stats_learning_trig/img/Stim/FN_024_g.png"",""time"":681.2000000029802},{""stimulus"":""blank"",""time"":996.4000000059605},{""stimulus"":""https://ziweizhang0304.github.io/Stats_learning_trig/img/Stim/FN_025_g.png"",""time"":1021.2000000029802},{""stimulus"":""blank"",""time"":1336},{""stimulus"":""https://ziweizhang0304.github.io/Stats_learning_trig/img/Stim/FN_015_g.png"",""time"":1367.7000000029802},{""stimulus"":""blank"",""time"":1677.2999999970198},{""stimulus"":""https://ziweizhang0304.github.io/Stats_learning_trig/img/Stim/FN_014_g.png"",""time"":1701},{""stimulus"":""blank"",""time"":2003.0999999940395},{""stimulus"":""https://ziweizhang0304.github.io/Stats_learning_trig/img/Stim/FN_008_g.png"",""time"":2050.2999999970198},{""stimulus"":""blank"",""time"":2357},{""stimulus"":""https://ziweizhang0304.github.io/Stats_learning_trig/img/Stim/FN_007_g.png"",""time"":2382.4000000059605},{""stimulus"":""blank"",""time"":2696.4000000059605},{""stimulus"":""https://ziweizhang0304.github.io/Stats_learning_trig/img/Stim/FN_011_g.png"",""time"":2721.7000000029802},{""stimulus"":""blank"",""time"":3029.7000000029802},{""stimulus"":""https://ziweizhang0304.github.io/Stats_learning_trig/img/Stim/FN_009_g.png"",""time"":3061.5999999940395},{""stimulus"":""blank"",""time"":3368.5999999940395},{""stimulus"":""https://ziweizhang0304.github.io/Stats_learning_trig/img/Stim/FN_023_g.png"",""time"":3401.7000000029802},{""stimulus"":""blank"",""time"":3705.2000000029802},{""stimulus"":""https://ziweizhang0304.github.io/Stats_learning_trig/img/Stim/FN_010_g.png"",""time"":3741.4000000059605},{""stimulus"":""blank"",""time"":4045},{""stimulus"":""https://ziweizhang0304.github.io/Stats_learning_trig/img/Stim/FN_020_g.png"",""time"":4092.5999999940395},{""stimulus"":""blank"",""time"":4412.5999999940395}]","[{""key_press"":32,""rt"":3375.5,""stimulus"":""blank""}]","653.7999999970198","https://ziweizhang0304.github.io/Stats_learning_trig/img/Stim/FN_011_g.png","post_TD","22","2721.7000000029802","3375.5","fast","8","3","5d88e9d13e9a6e0001084e80","","","","","",""
"","image-keyboard-response","57","170919","0.0-5.0-22.0-0.0","1704.5999999940395","","","https://ziweizhang0304.github.io/Stats_learning_trig/img/Stim/FN_005_g.png","13","","","","","","","","","","","","","","","","","",""
"","animation","58","175340","0.0-5.0-22.0-1.0","","","","","","[{""stimulus"":""https://ziweizhang0304.github.io/Stats_learning_trig/img/Stim/FN_015_g.png"",""time"":347.8999999910593},{""stimulus"":""blank"",""time"":649.5999999940395},{""stimulus"":""https://ziweizhang0304.github.io/Stats_learning_trig/img/Stim/FN_014_g.png"",""time"":680.8999999910593},{""stimulus"":""blank"",""time"":982},{""stimulus"":""https://ziweizhang0304.github.io/Stats_learning_trig/img/Stim/FN_003_g.png"",""time"":1021.5999999940395},{""stimulus"":""blank"",""time"":1334.0999999940395},{""stimulus"":""https://ziweizhang0304.github.io/Stats_learning_trig/img/Stim/FN_025_g.png"",""time"":1361.5},{""stimulus"":""blank"",""time"":1667.3999999910593},{""stimulus"":""https://ziweizhang0304.github.io/Stats_learning_trig/img/Stim/FN_010_g.png"",""time"":1702.199999988079},{""stimulus"":""blank"",""time"":2018.199999988079},{""stimulus"":""https://ziweizhang0304.github.io/Stats_learning_trig/img/Stim/FN_005_g.png"",""time"":2041.5},{""stimulus"":""blank"",""time"":2348.8999999910593},{""stimulus"":""https://ziweizhang0304.github.io/Stats_learning_trig/img/Stim/FN_004_g.png"",""time"":2381.699999988079},{""stimulus"":""blank"",""time"":2685.2999999970198},{""stimulus"":""https://ziweizhang0304.github.io/Stats_learning_trig/img/Stim/FN_016_g.png"",""time"":2721.5},{""stimulus"":""blank"",""time"":3035.2999999970198},{""stimulus"":""https://ziweizhang0304.github.io/Stats_learning_trig/img/Stim/FN_009_g.png"",""time"":3060.7999999970198},{""stimulus"":""blank"",""time"":3362.699999988079},{""stimulus"":""https://ziweizhang0304.github.io/Stats_learning_trig/img/Stim/FN_023_g.png"",""time"":3409.0999999940395},{""stimulus"":""blank"",""time"":3710},{""stimulus"":""https://ziweizhang0304.github.io/Stats_learning_trig/img/Stim/FN_024_g.png"",""time"":3741},{""stimulus"":""blank"",""time"":4051.7999999970198},{""stimulus"":""https://ziweizhang0304.github.io/Stats_learning_trig/img/Stim/FN_020_g.png"",""time"":4081.8999999910593},{""stimulus"":""blank"",""time"":4383.0999999940395}]","[{""key_press"":32,""rt"":2477.2999999970198,""stimulus"":""https://ziweizhang0304.github.io/Stats_learning_trig/img/Stim/FN_004_g.png""}]","435.79999999701977","https://ziweizhang0304.github.io/Stats_learning_trig/img/Stim/FN_005_g.png","post_TD","23","2041.5","2477.2999999970198","slow","6","1","5d88e9d13e9a6e0001084e80","","","","","",""
"","image-keyboard-response","59","176470","0.0-5.0-23.0-0.0","1126.5","","","https://ziweizhang0304.github.io/Stats_learning_trig/img/Stim/FN_016_g.png","13","","","","","","","","","","","","","","","","","",""
"","animation","60","180892","0.0-5.0-23.0-1.0","","","","","","[{""stimulus"":""https://ziweizhang0304.github.io/Stats_learning_trig/img/Stim/FN_010_g.png"",""time"":350.6000000089407},{""stimulus"":""blank"",""time"":659.7000000029802},{""stimulus"":""https://ziweizhang0304.github.io/Stats_learning_trig/img/Stim/FN_025_g.png"",""time"":680.9000000059605},{""stimulus"":""blank"",""time"":996},{""stimulus"":""https://ziweizhang0304.github.io/Stats_learning_trig/img/Stim/FN_024_g.png"",""time"":1021.5},{""stimulus"":""blank"",""time"":1327.4000000059605},{""stimulus"":""https://ziweizhang0304.github.io/Stats_learning_trig/img/Stim/FN_023_g.png"",""time"":1360.7999999970198},{""stimulus"":""blank"",""time"":1674.4000000059605},{""stimulus"":""https://ziweizhang0304.github.io/Stats_learning_trig/img/Stim/FN_003_g.png"",""time"":1701.7000000029802},{""stimulus"":""blank"",""time"":2006.1000000089407},{""stimulus"":""https://ziweizhang0304.github.io/Stats_learning_trig/img/Stim/FN_015_g.png"",""time"":2042.2000000029802},{""stimulus"":""blank"",""time"":2348.4000000059605},{""stimulus"":""https://ziweizhang0304.github.io/Stats_learning_trig/img/Stim/FN_005_g.png"",""time"":2393.9000000059605},{""stimulus"":""blank"",""time"":2698.4000000059605},{""stimulus"":""https://ziweizhang0304.github.io/Stats_learning_trig/img/Stim/FN_004_g.png"",""time"":2721.7000000029802},{""stimulus"":""blank"",""time"":3023.1000000089407},{""stimulus"":""https://ziweizhang0304.github.io/Stats_learning_trig/img/Stim/FN_016_g.png"",""time"":3070.1000000089407},{""stimulus"":""blank"",""time"":3372.2999999970198},{""stimulus"":""https://ziweizhang0304.github.io/Stats_learning_trig/img/Stim/FN_009_g.png"",""time"":3401.2999999970198},{""stimulus"":""blank"",""time"":3714.6000000089407},{""stimulus"":""https://ziweizhang0304.github.io/Stats_learning_trig/img/Stim/FN_014_g.png"",""time"":3741.1000000089407},{""stimulus"":""blank"",""time"":4056.9000000059605},{""stimulus"":""https://ziweizhang0304.github.io/Stats_learning_trig/img/Stim/FN_020_g.png"",""time"":4081.6000000089407},{""stimulus"":""blank"",""time"":4396.9000000059605}]","[{""key_press"":32,""rt"":3406.5999999940395,""stimulus"":""https://ziweizhang0304.github.io/Stats_learning_trig/img/Stim/FN_009_g.png""}]","336.49999998509884","https://ziweizhang0304.github.io/Stats_learning_trig/img/Stim/FN_016_g.png","post_TD","24","3070.1000000089407","3406.5999999940395","slow","9","3","5d88e9d13e9a6e0001084e80","a1b8d","","","","",""
"","survey-text","61","190793","0.0-6.0","9870.29999999702","","","","","","","","","","","","","","","","","","{""Q0"":""No strategies were used""}","","","",""
"","survey-text","62","197872","0.0-7.0","7076.5","","","","","","","","","","","","","","","","","","{""[object Object]"":""Not that I'm aware of ""}","","","",""
"","instructions","63","199665","0.0-8.0","1792.5999999940395","","[{""page_index"":0,""viewing_time"":1792.2999999970198}]","","","","","","","","","","","","","","","","","","","",""
"","free-sort","64","211617","0.0-9.0","11949.70000000298","","","","","","","","","post_drag","","","","fast","","","","","","[{""src"":""https://ziweizhang0304.github.io/Stats_learning_trig/img/Stim/FN_007_g.png"",""x"":475,""y"":0},{""src"":""https://ziweizhang0304.github.io/Stats_learning_trig/img/Stim/FN_011_g.png"",""x"":-225,""y"":50},{""src"":""https://ziweizhang0304.github.io/Stats_learning_trig/img/Stim/FN_008_g.png"",""x"":475,""y"":50}]","[{""src"":""https://ziweizhang0304.github.io/Stats_learning_trig/img/Stim/FN_011_g.png"",""x"":114,""y"":12},{""src"":""https://ziweizhang0304.github.io/Stats_learning_trig/img/Stim/FN_007_g.png"",""x"":145,""y"":18},{""src"":""https://ziweizhang0304.github.io/Stats_learning_trig/img/Stim/FN_008_g.png"",""x"":175,""y"":23}]","[{""src"":""https://ziweizhang0304.github.io/Stats_learning_trig/img/Stim/FN_007_g.png"",""x"":145,""y"":18},{""src"":""https://ziweizhang0304.github.io/Stats_learning_trig/img/Stim/FN_011_g.png"",""x"":114,""y"":12},{""src"":""https://ziweizhang0304.github.io/Stats_learning_trig/img/Stim/FN_008_g.png"",""x"":175,""y"":23}]",""
"","free-sort","65","219272","0.0-10.0","7653.600000008941","","","","","","","","","post_drag","","","","slow","","","","","","[{""src"":""https://ziweizhang0304.github.io/Stats_learning_trig/img/Stim/FN_016_g.png"",""x"":475,""y"":0},{""src"":""https://ziweizhang0304.github.io/Stats_learning_trig/img/Stim/FN_004_g.png"",""x"":-225,""y"":50},{""src"":""https://ziweizhang0304.github.io/Stats_learning_trig/img/Stim/FN_005_g.png"",""x"":475,""y"":50}]","[{""src"":""https://ziweizhang0304.github.io/Stats_learning_trig/img/Stim/FN_004_g.png"",""x"":37,""y"":20},{""src"":""https://ziweizhang0304.github.io/Stats_learning_trig/img/Stim/FN_016_g.png"",""x"":135,""y"":18},{""src"":""https://ziweizhang0304.github.io/Stats_learning_trig/img/Stim/FN_005_g.png"",""x"":222,""y"":17}]","[{""src"":""https://ziweizhang0304.github.io/Stats_learning_trig/img/Stim/FN_016_g.png"",""x"":135,""y"":18},{""src"":""https://ziweizhang0304.github.io/Stats_learning_trig/img/Stim/FN_004_g.png"",""x"":37,""y"":20},{""src"":""https://ziweizhang0304.github.io/Stats_learning_trig/img/Stim/FN_005_g.png"",""x"":222,""y"":17}]",""
"","survey-multi-choice","66","228503","0.0-11.0","9226.29999999702","","","","","","","","","","","","","","","","5d88e9d13e9a6e0001084e80","","{""awareness"":""No"",""attention_check"":""Press SPACEBAR to a target""}","","","","[0,1]"
