"success","trial_type","trial_index","time_elapsed","internal_node_id","rt","url","view_history","stimulus","key_press","animation_sequence","response","TD_rt","TD_target","test_part","TD_trial_number","onset","offset","attention_state","TD_target_position","TD_within_triplet_counter","participant","yoke_participant","responses","init_locations","moves","final_locations","question_order"
"true","fullscreen","0","8431","0.0-0.0","","","","","","","","","","","","","","","","","","","","","","",""
"","external-html","1","12369","0.0-1.0","3853.1999999284744","https://ziweizhang0304.github.io/Stats_learning_trig/content/consent.html","","","","","","","","","","","","","","","","","","","","",""
"","instructions","2","29935","0.0-2.0","17564.899999976158","","[{""page_index"":0,""viewing_time"":1610.1000000238419},{""page_index"":1,""viewing_time"":9346.5},{""page_index"":2,""viewing_time"":5519.100000023842},{""page_index"":3,""viewing_time"":1088.5999999046326}]","","","","","","","","","","","","","","","","","","","",""
"","image-keyboard-response","3","34762","0.0-3.0-0.0-0.0","4825.899999976158","","","https://ziweizhang0304.github.io/Stats_learning_trig/img/Stim/FN_012_g.png","13","","","","","","","","","","","","","","","","","",""
"","animation","4","39197","0.0-3.0-0.0-1.0","","","","","","[{""stimulus"":""https://ziweizhang0304.github.io/Stats_learning_trig/img/Stim/FN_007_g.png"",""time"":358.60000002384186},{""stimulus"":""blank"",""time"":659.8999999761581},{""stimulus"":""https://ziweizhang0304.github.io/Stats_learning_trig/img/Stim/FN_011_g.png"",""time"":689.1000000238419},{""stimulus"":""blank"",""time"":998.6000000238419},{""stimulus"":""https://ziweizhang0304.github.io/Stats_learning_trig/img/Stim/FN_013_g.png"",""time"":1031},{""stimulus"":""blank"",""time"":1341},{""stimulus"":""https://ziweizhang0304.github.io/Stats_learning_trig/img/Stim/FN_024_g.png"",""time"":1372.2000000476837},{""stimulus"":""blank"",""time"":1672.8999999761581},{""stimulus"":""https://ziweizhang0304.github.io/Stats_learning_trig/img/Stim/FN_004_g.png"",""time"":1704.6000000238419},{""stimulus"":""blank"",""time"":2016.2999999523163},{""stimulus"":""https://ziweizhang0304.github.io/Stats_learning_trig/img/Stim/FN_006_g.png"",""time"":2053.899999976158},{""stimulus"":""blank"",""time"":2355.5},{""stimulus"":""https://ziweizhang0304.github.io/Stats_learning_trig/img/Stim/FN_012_g.png"",""time"":2386},{""stimulus"":""blank"",""time"":2688},{""stimulus"":""https://ziweizhang0304.github.io/Stats_learning_trig/img/Stim/FN_003_g.png"",""time"":2720.600000023842},{""stimulus"":""blank"",""time"":3035.100000023842},{""stimulus"":""https://ziweizhang0304.github.io/Stats_learning_trig/img/Stim/FN_015_g.png"",""time"":3071},{""stimulus"":""blank"",""time"":3373.100000023842},{""stimulus"":""https://ziweizhang0304.github.io/Stats_learning_trig/img/Stim/FN_026_g.png"",""time"":3406.600000023842},{""stimulus"":""blank"",""time"":3720.5},{""stimulus"":""https://ziweizhang0304.github.io/Stats_learning_trig/img/Stim/FN_019_g.png"",""time"":3758.2000000476837},{""stimulus"":""blank"",""time"":4059.2999999523163},{""stimulus"":""https://ziweizhang0304.github.io/Stats_learning_trig/img/Stim/FN_005_g.png"",""time"":4094.5},{""stimulus"":""blank"",""time"":4406.899999976158}]","[{""key_press"":32,""rt"":2808.7999999523163,""stimulus"":""https://ziweizhang0304.github.io/Stats_learning_trig/img/Stim/FN_003_g.png""}]","422.7999999523163","https://ziweizhang0304.github.io/Stats_learning_trig/img/Stim/FN_012_g.png","post_prac","","","","","","","","","","","","",""
"","html-keyboard-response","5","43557","0.0-3.0-0.0-2.0","4355.5","","","<p>Your reaction time for this trial was 422.8 ms.</p><p>Remember that you should only press the SPACEBAR when you see the shape presented at the beginning of the trial. </b> </p><p>Press enter to move on.</p>","13","","","","","","","","","","","","","","","","","",""
"","image-keyboard-response","6","47443","0.0-3.0-1.0-0.0","3885.1999999284744","","","https://ziweizhang0304.github.io/Stats_learning_trig/img/Stim/FN_026_g.png","13","","","","","","","","","","","","","","","","","",""
"","animation","7","51865","0.0-3.0-1.0-1.0","","","","","","[{""stimulus"":""https://ziweizhang0304.github.io/Stats_learning_trig/img/Stim/FN_013_g.png"",""time"":354.39999997615814},{""stimulus"":""blank"",""time"":654.6000000238419},{""stimulus"":""https://ziweizhang0304.github.io/Stats_learning_trig/img/Stim/FN_024_g.png"",""time"":690.2999999523163},{""stimulus"":""blank"",""time"":995.1999999284744},{""stimulus"":""https://ziweizhang0304.github.io/Stats_learning_trig/img/Stim/FN_006_g.png"",""time"":1027.1000000238419},{""stimulus"":""blank"",""time"":1339.8999999761581},{""stimulus"":""https://ziweizhang0304.github.io/Stats_learning_trig/img/Stim/FN_019_g.png"",""time"":1362.2999999523163},{""stimulus"":""blank"",""time"":1671.5},{""stimulus"":""https://ziweizhang0304.github.io/Stats_learning_trig/img/Stim/FN_026_g.png"",""time"":1709.5},{""stimulus"":""blank"",""time"":2009.6000000238419},{""stimulus"":""https://ziweizhang0304.github.io/Stats_learning_trig/img/Stim/FN_012_g.png"",""time"":2046.1000000238419},{""stimulus"":""blank"",""time"":2357.100000023842},{""stimulus"":""https://ziweizhang0304.github.io/Stats_learning_trig/img/Stim/FN_007_g.png"",""time"":2392.899999976158},{""stimulus"":""blank"",""time"":2696.399999976158},{""stimulus"":""https://ziweizhang0304.github.io/Stats_learning_trig/img/Stim/FN_005_g.png"",""time"":2733.100000023842},{""stimulus"":""blank"",""time"":3044.600000023842},{""stimulus"":""https://ziweizhang0304.github.io/Stats_learning_trig/img/Stim/FN_011_g.png"",""time"":3061},{""stimulus"":""blank"",""time"":3372.6999999284744},{""stimulus"":""https://ziweizhang0304.github.io/Stats_learning_trig/img/Stim/FN_003_g.png"",""time"":3403.7999999523163},{""stimulus"":""blank"",""time"":3712.2999999523163},{""stimulus"":""https://ziweizhang0304.github.io/Stats_learning_trig/img/Stim/FN_015_g.png"",""time"":3743.6999999284744},{""stimulus"":""blank"",""time"":4044.6999999284744},{""stimulus"":""https://ziweizhang0304.github.io/Stats_learning_trig/img/Stim/FN_004_g.png"",""time"":4095.6999999284744},{""stimulus"":""blank"",""time"":4414.399999976158}]","[{""key_press"":32,""rt"":2102.7999999523163,""stimulus"":""https://ziweizhang0304.github.io/Stats_learning_trig/img/Stim/FN_012_g.png""}]","393.2999999523163","https://ziweizhang0304.github.io/Stats_learning_trig/img/Stim/FN_026_g.png","post_prac","","","","","","","","","","","","",""
"","html-keyboard-response","8","54309","0.0-3.0-1.0-2.0","2442","","","<p>Your reaction time for this trial was 393.3 ms.</p><p>Remember that you should only press the SPACEBAR when you see the shape presented at the beginning of the trial. </b> </p><p>Press enter to move on.</p>","13","","","","","","","","","","","","","","","","","",""
"","image-keyboard-response","9","55332","0.0-3.0-2.0-0.0","1023","","","https://ziweizhang0304.github.io/Stats_learning_trig/img/Stim/FN_021_g.png","13","","","","","","","","","","","","","","","","","",""
"","animation","10","59754","0.0-3.0-2.0-1.0","","","","","","[{""stimulus"":""https://ziweizhang0304.github.io/Stats_learning_trig/img/Stim/FN_003_g.png"",""time"":353.2999999523163},{""stimulus"":""blank"",""time"":664.7999999523163},{""stimulus"":""https://ziweizhang0304.github.io/Stats_learning_trig/img/Stim/FN_004_g.png"",""time"":696.0999999046326},{""stimulus"":""blank"",""time"":1001.5},{""stimulus"":""https://ziweizhang0304.github.io/Stats_learning_trig/img/Stim/FN_013_g.png"",""time"":1036.5},{""stimulus"":""blank"",""time"":1337.5},{""stimulus"":""https://ziweizhang0304.github.io/Stats_learning_trig/img/Stim/FN_019_g.png"",""time"":1364.1999999284744},{""stimulus"":""blank"",""time"":1669},{""stimulus"":""https://ziweizhang0304.github.io/Stats_learning_trig/img/Stim/FN_015_g.png"",""time"":1704.1999999284744},{""stimulus"":""blank"",""time"":2015.8999999761581},{""stimulus"":""https://ziweizhang0304.github.io/Stats_learning_trig/img/Stim/FN_006_g.png"",""time"":2052.6999999284744},{""stimulus"":""blank"",""time"":2354.899999976158},{""stimulus"":""https://ziweizhang0304.github.io/Stats_learning_trig/img/Stim/FN_023_g.png"",""time"":2392.6999999284744},{""stimulus"":""blank"",""time"":2702.6999999284744},{""stimulus"":""https://ziweizhang0304.github.io/Stats_learning_trig/img/Stim/FN_020_g.png"",""time"":2721.0999999046326},{""stimulus"":""blank"",""time"":3042.1999999284744},{""stimulus"":""https://ziweizhang0304.github.io/Stats_learning_trig/img/Stim/FN_021_g.png"",""time"":3061.2999999523163},{""stimulus"":""blank"",""time"":3374.0999999046326},{""stimulus"":""https://ziweizhang0304.github.io/Stats_learning_trig/img/Stim/FN_005_g.png"",""time"":3401.5},{""stimulus"":""blank"",""time"":3709.5999999046326},{""stimulus"":""https://ziweizhang0304.github.io/Stats_learning_trig/img/Stim/FN_011_g.png"",""time"":3746.7999999523163},{""stimulus"":""blank"",""time"":4059.1999999284744},{""stimulus"":""https://ziweizhang0304.github.io/Stats_learning_trig/img/Stim/FN_024_g.png"",""time"":4094.399999976158},{""stimulus"":""blank"",""time"":4407.599999904633}]","[{""key_press"":32,""rt"":3398.9000000953674,""stimulus"":""blank""}]","337.60000014305115","https://ziweizhang0304.github.io/Stats_learning_trig/img/Stim/FN_021_g.png","post_prac","","","","","","","","","","","","",""
"","html-keyboard-response","11","61341","0.0-3.0-2.0-2.0","1586.3999999761581","","","<p>Your reaction time for this trial was 337.6 ms.</p><p>Remember that you should only press the SPACEBAR when you see the shape presented at the beginning of the trial. </b> </p><p>Press enter to move on.</p>","13","","","","","","","","","","","","","","","","","",""
"","instructions","12","63046","0.0-4.0","1704.7000000476837","","[{""page_index"":0,""viewing_time"":1704.3999999761581}]","","","","","","","","","","","","","","","","","","","",""
"","image-keyboard-response","13","64465","0.0-5.0-0.0-0.0","1418.4000000953674","","","https://ziweizhang0304.github.io/Stats_learning_trig/img/Stim/FN_026_g.png","13","","","","","","","","","","","","","","","","","",""
"","animation","14","68887","0.0-5.0-0.0-1.0","","","","","","[{""stimulus"":""https://ziweizhang0304.github.io/Stats_learning_trig/img/Stim/FN_013_g.png"",""time"":355.5},{""stimulus"":""blank"",""time"":670.8000000715256},{""stimulus"":""https://ziweizhang0304.github.io/Stats_learning_trig/img/Stim/FN_011_g.png"",""time"":686.2000000476837},{""stimulus"":""blank"",""time"":996.1000000238419},{""stimulus"":""https://ziweizhang0304.github.io/Stats_learning_trig/img/Stim/FN_003_g.png"",""time"":1020.5},{""stimulus"":""blank"",""time"":1328.2000000476837},{""stimulus"":""https://ziweizhang0304.github.io/Stats_learning_trig/img/Stim/FN_026_g.png"",""time"":1360.5},{""stimulus"":""blank"",""time"":1670},{""stimulus"":""https://ziweizhang0304.github.io/Stats_learning_trig/img/Stim/FN_012_g.png"",""time"":1701.2000000476837},{""stimulus"":""blank"",""time"":2003.7000000476837},{""stimulus"":""https://ziweizhang0304.github.io/Stats_learning_trig/img/Stim/FN_007_g.png"",""time"":2052.100000023842},{""stimulus"":""blank"",""time"":2358},{""stimulus"":""https://ziweizhang0304.github.io/Stats_learning_trig/img/Stim/FN_019_g.png"",""time"":2390.2000000476837},{""stimulus"":""blank"",""time"":2704.7000000476837},{""stimulus"":""https://ziweizhang0304.github.io/Stats_learning_trig/img/Stim/FN_005_g.png"",""time"":2721.100000023842},{""stimulus"":""blank"",""time"":3027.399999976158},{""stimulus"":""https://ziweizhang0304.github.io/Stats_learning_trig/img/Stim/FN_006_g.png"",""time"":3064.899999976158},{""stimulus"":""blank"",""time"":3375.5},{""stimulus"":""https://ziweizhang0304.github.io/Stats_learning_trig/img/Stim/FN_024_g.png"",""time"":3412.2000000476837},{""stimulus"":""blank"",""time"":3729.399999976158},{""stimulus"":""https://ziweizhang0304.github.io/Stats_learning_trig/img/Stim/FN_015_g.png"",""time"":3741},{""stimulus"":""blank"",""time"":4046.3000000715256},{""stimulus"":""https://ziweizhang0304.github.io/Stats_learning_trig/img/Stim/FN_004_g.png"",""time"":4093.7000000476837},{""stimulus"":""blank"",""time"":4409.399999976158}]","[{""key_press"":32,""rt"":1695,""stimulus"":""blank""}]","334.5","https://ziweizhang0304.github.io/Stats_learning_trig/img/Stim/FN_026_g.png","post_TD","1","1360.5","1695","slow","4","1","5cabc2ee9c7620001214f395","","","","","",""
"","image-keyboard-response","15","70832","0.0-5.0-1.0-0.0","1943.0999999046326","","","https://ziweizhang0304.github.io/Stats_learning_trig/img/Stim/FN_007_g.png","13","","","","","","","","","","","","","","","","","",""
"","animation","16","75258","0.0-5.0-1.0-1.0","","","","","","[{""stimulus"":""https://ziweizhang0304.github.io/Stats_learning_trig/img/Stim/FN_013_g.png"",""time"":343.10000002384186},{""stimulus"":""blank"",""time"":649.4000000953674},{""stimulus"":""https://ziweizhang0304.github.io/Stats_learning_trig/img/Stim/FN_005_g.png"",""time"":693},{""stimulus"":""blank"",""time"":1004.3000000715256},{""stimulus"":""https://ziweizhang0304.github.io/Stats_learning_trig/img/Stim/FN_006_g.png"",""time"":1022.3000000715256},{""stimulus"":""blank"",""time"":1336.5},{""stimulus"":""https://ziweizhang0304.github.io/Stats_learning_trig/img/Stim/FN_003_g.png"",""time"":1374.6000000238419},{""stimulus"":""blank"",""time"":1675.8000000715256},{""stimulus"":""https://ziweizhang0304.github.io/Stats_learning_trig/img/Stim/FN_024_g.png"",""time"":1712.3000000715256},{""stimulus"":""blank"",""time"":2024.1000000238419},{""stimulus"":""https://ziweizhang0304.github.io/Stats_learning_trig/img/Stim/FN_026_g.png"",""time"":2059.7000000476837},{""stimulus"":""blank"",""time"":2377.7000000476837},{""stimulus"":""https://ziweizhang0304.github.io/Stats_learning_trig/img/Stim/FN_012_g.png"",""time"":2381.2000000476837},{""stimulus"":""blank"",""time"":2681.8000000715256},{""stimulus"":""https://ziweizhang0304.github.io/Stats_learning_trig/img/Stim/FN_007_g.png"",""time"":2727.100000023842},{""stimulus"":""blank"",""time"":3042.3000000715256},{""stimulus"":""https://ziweizhang0304.github.io/Stats_learning_trig/img/Stim/FN_019_g.png"",""time"":3065},{""stimulus"":""blank"",""time"":3380.2000000476837},{""stimulus"":""https://ziweizhang0304.github.io/Stats_learning_trig/img/Stim/FN_011_g.png"",""time"":3400.9000000953674},{""stimulus"":""blank"",""time"":3701.9000000953674},{""stimulus"":""https://ziweizhang0304.github.io/Stats_learning_trig/img/Stim/FN_015_g.png"",""time"":3740.9000000953674},{""stimulus"":""blank"",""time"":4041.600000023842},{""stimulus"":""https://ziweizhang0304.github.io/Stats_learning_trig/img/Stim/FN_004_g.png"",""time"":4081.100000023842},{""stimulus"":""blank"",""time"":4383.100000023842}]","[{""key_press"":32,""rt"":3102.899999976158,""stimulus"":""https://ziweizhang0304.github.io/Stats_learning_trig/img/Stim/FN_019_g.png""}]","375.7999999523163","https://ziweizhang0304.github.io/Stats_learning_trig/img/Stim/FN_007_g.png","post_TD","2","2727.100000023842","3102.899999976158","slow","8","3","5cabc2ee9c7620001214f395","","","","","",""
"","image-keyboard-response","17","76408","0.0-5.0-2.0-0.0","1148.5","","","https://ziweizhang0304.github.io/Stats_learning_trig/img/Stim/FN_007_g.png","13","","","","","","","","","","","","","","","","","",""
"","animation","18","80829","0.0-5.0-2.0-1.0","","","","","","[{""stimulus"":""https://ziweizhang0304.github.io/Stats_learning_trig/img/Stim/FN_013_g.png"",""time"":353.60000002384186},{""stimulus"":""blank"",""time"":669.2999999523163},{""stimulus"":""https://ziweizhang0304.github.io/Stats_learning_trig/img/Stim/FN_011_g.png"",""time"":680.8999999761581},{""stimulus"":""blank"",""time"":986.2999999523163},{""stimulus"":""https://ziweizhang0304.github.io/Stats_learning_trig/img/Stim/FN_003_g.png"",""time"":1031.6000000238419},{""stimulus"":""blank"",""time"":1333},{""stimulus"":""https://ziweizhang0304.github.io/Stats_learning_trig/img/Stim/FN_026_g.png"",""time"":1365.3999999761581},{""stimulus"":""blank"",""time"":1672.3999999761581},{""stimulus"":""https://ziweizhang0304.github.io/Stats_learning_trig/img/Stim/FN_012_g.png"",""time"":1710.1000000238419},{""stimulus"":""blank"",""time"":2011.1000000238419},{""stimulus"":""https://ziweizhang0304.github.io/Stats_learning_trig/img/Stim/FN_007_g.png"",""time"":2053.899999976158},{""stimulus"":""blank"",""time"":2358.7999999523163},{""stimulus"":""https://ziweizhang0304.github.io/Stats_learning_trig/img/Stim/FN_019_g.png"",""time"":2393.5},{""stimulus"":""blank"",""time"":2712.899999976158},{""stimulus"":""https://ziweizhang0304.github.io/Stats_learning_trig/img/Stim/FN_005_g.png"",""time"":2720.600000023842},{""stimulus"":""blank"",""time"":3029.5},{""stimulus"":""https://ziweizhang0304.github.io/Stats_learning_trig/img/Stim/FN_006_g.png"",""time"":3066.100000023842},{""stimulus"":""blank"",""time"":3377.6999999284744},{""stimulus"":""https://ziweizhang0304.github.io/Stats_learning_trig/img/Stim/FN_024_g.png"",""time"":3415.399999976158},{""stimulus"":""blank"",""time"":3716.600000023842},{""stimulus"":""https://ziweizhang0304.github.io/Stats_learning_trig/img/Stim/FN_015_g.png"",""time"":3754.5},{""stimulus"":""blank"",""time"":4056.399999976158},{""stimulus"":""https://ziweizhang0304.github.io/Stats_learning_trig/img/Stim/FN_004_g.png"",""time"":4081.100000023842},{""stimulus"":""blank"",""time"":4384.5}]","[{""key_press"":32,""rt"":2473.399999976158,""stimulus"":""https://ziweizhang0304.github.io/Stats_learning_trig/img/Stim/FN_019_g.png""}]","419.5","https://ziweizhang0304.github.io/Stats_learning_trig/img/Stim/FN_007_g.png","post_TD","3","2053.899999976158","2473.399999976158","slow","6","3","5cabc2ee9c7620001214f395","","","","","",""
"","image-keyboard-response","19","83984","0.0-5.0-3.0-0.0","3153.7000000476837","","","https://ziweizhang0304.github.io/Stats_learning_trig/img/Stim/FN_023_g.png","13","","","","","","","","","","","","","","","","","",""
"","animation","20","88410","0.0-5.0-3.0-1.0","","","","","","[{""stimulus"":""https://ziweizhang0304.github.io/Stats_learning_trig/img/Stim/FN_003_g.png"",""time"":353.60000002384186},{""stimulus"":""blank"",""time"":669.2999999523163},{""stimulus"":""https://ziweizhang0304.github.io/Stats_learning_trig/img/Stim/FN_004_g.png"",""time"":681.1000000238419},{""stimulus"":""blank"",""time"":985.6000000238419},{""stimulus"":""https://ziweizhang0304.github.io/Stats_learning_trig/img/Stim/FN_013_g.png"",""time"":1034.6000000238419},{""stimulus"":""blank"",""time"":1349.8999999761581},{""stimulus"":""https://ziweizhang0304.github.io/Stats_learning_trig/img/Stim/FN_019_g.png"",""time"":1361.1000000238419},{""stimulus"":""blank"",""time"":1672},{""stimulus"":""https://ziweizhang0304.github.io/Stats_learning_trig/img/Stim/FN_015_g.png"",""time"":1703.5},{""stimulus"":""blank"",""time"":2012.7999999523163},{""stimulus"":""https://ziweizhang0304.github.io/Stats_learning_trig/img/Stim/FN_006_g.png"",""time"":2040.8999999761581},{""stimulus"":""blank"",""time"":2356.399999976158},{""stimulus"":""https://ziweizhang0304.github.io/Stats_learning_trig/img/Stim/FN_023_g.png"",""time"":2393.7999999523163},{""stimulus"":""blank"",""time"":2704.600000023842},{""stimulus"":""https://ziweizhang0304.github.io/Stats_learning_trig/img/Stim/FN_020_g.png"",""time"":2720.6999999284744},{""stimulus"":""blank"",""time"":3021.1999999284744},{""stimulus"":""https://ziweizhang0304.github.io/Stats_learning_trig/img/Stim/FN_021_g.png"",""time"":3074.5},{""stimulus"":""blank"",""time"":3390.399999976158},{""stimulus"":""https://ziweizhang0304.github.io/Stats_learning_trig/img/Stim/FN_005_g.png"",""time"":3407.5},{""stimulus"":""blank"",""time"":3723},{""stimulus"":""https://ziweizhang0304.github.io/Stats_learning_trig/img/Stim/FN_011_g.png"",""time"":3745.100000023842},{""stimulus"":""blank"",""time"":4062.1999999284744},{""stimulus"":""https://ziweizhang0304.github.io/Stats_learning_trig/img/Stim/FN_024_g.png"",""time"":4095.1999999284744},{""stimulus"":""blank"",""time"":4410.199999928474}]","[{""key_press"":32,""rt"":2774.6999999284744,""stimulus"":""https://ziweizhang0304.github.io/Stats_learning_trig/img/Stim/FN_020_g.png""}]","380.89999997615814","https://ziweizhang0304.github.io/Stats_learning_trig/img/Stim/FN_023_g.png","post_TD","4","2393.7999999523163","2774.6999999284744","fast","7","1","5cabc2ee9c7620001214f395","","","","","",""
"","image-keyboard-response","21","90110","0.0-5.0-4.0-0.0","1697.4000000953674","","","https://ziweizhang0304.github.io/Stats_learning_trig/img/Stim/FN_023_g.png","13","","","","","","","","","","","","","","","","","",""
"","animation","22","94538","0.0-5.0-4.0-1.0","","","","","","[{""stimulus"":""https://ziweizhang0304.github.io/Stats_learning_trig/img/Stim/FN_019_g.png"",""time"":346},{""stimulus"":""blank"",""time"":658.7999999523163},{""stimulus"":""https://ziweizhang0304.github.io/Stats_learning_trig/img/Stim/FN_015_g.png"",""time"":689.5999999046326},{""stimulus"":""blank"",""time"":1001.8999999761581},{""stimulus"":""https://ziweizhang0304.github.io/Stats_learning_trig/img/Stim/FN_005_g.png"",""time"":1023.1999999284744},{""stimulus"":""blank"",""time"":1345.5999999046326},{""stimulus"":""https://ziweizhang0304.github.io/Stats_learning_trig/img/Stim/FN_013_g.png"",""time"":1361.3999999761581},{""stimulus"":""blank"",""time"":1662.0999999046326},{""stimulus"":""https://ziweizhang0304.github.io/Stats_learning_trig/img/Stim/FN_023_g.png"",""time"":1715.1999999284744},{""stimulus"":""blank"",""time"":2026.2999999523163},{""stimulus"":""https://ziweizhang0304.github.io/Stats_learning_trig/img/Stim/FN_020_g.png"",""time"":2041.1999999284744},{""stimulus"":""blank"",""time"":2348.899999976158},{""stimulus"":""https://ziweizhang0304.github.io/Stats_learning_trig/img/Stim/FN_021_g.png"",""time"":2381.0999999046326},{""stimulus"":""blank"",""time"":2697},{""stimulus"":""https://ziweizhang0304.github.io/Stats_learning_trig/img/Stim/FN_011_g.png"",""time"":2733.5999999046326},{""stimulus"":""blank"",""time"":3050.0999999046326},{""stimulus"":""https://ziweizhang0304.github.io/Stats_learning_trig/img/Stim/FN_006_g.png"",""time"":3061.5999999046326},{""stimulus"":""blank"",""time"":3362.0999999046326},{""stimulus"":""https://ziweizhang0304.github.io/Stats_learning_trig/img/Stim/FN_003_g.png"",""time"":3407.5},{""stimulus"":""blank"",""time"":3714.5},{""stimulus"":""https://ziweizhang0304.github.io/Stats_learning_trig/img/Stim/FN_024_g.png"",""time"":3752.0999999046326},{""stimulus"":""blank"",""time"":4052.1999999284744},{""stimulus"":""https://ziweizhang0304.github.io/Stats_learning_trig/img/Stim/FN_004_g.png"",""time"":4081.0999999046326},{""stimulus"":""blank"",""time"":4383.899999976158}]","[{""key_press"":32,""rt"":2109,""stimulus"":""https://ziweizhang0304.github.io/Stats_learning_trig/img/Stim/FN_020_g.png""}]","393.8000000715256","https://ziweizhang0304.github.io/Stats_learning_trig/img/Stim/FN_023_g.png","post_TD","5","1715.1999999284744","2109","fast","5","1","5cabc2ee9c7620001214f395","","","","","",""
"","image-keyboard-response","23","95943","0.0-5.0-5.0-0.0","1403.0999999046326","","","https://ziweizhang0304.github.io/Stats_learning_trig/img/Stim/FN_020_g.png","13","","","","","","","","","","","","","","","","","",""
"","animation","24","100370","0.0-5.0-5.0-1.0","","","","","","[{""stimulus"":""https://ziweizhang0304.github.io/Stats_learning_trig/img/Stim/FN_003_g.png"",""time"":347.3000000715256},{""stimulus"":""blank"",""time"":648.1000000238419},{""stimulus"":""https://ziweizhang0304.github.io/Stats_learning_trig/img/Stim/FN_011_g.png"",""time"":694.3000000715256},{""stimulus"":""blank"",""time"":1001},{""stimulus"":""https://ziweizhang0304.github.io/Stats_learning_trig/img/Stim/FN_004_g.png"",""time"":1032.4000000953674},{""stimulus"":""blank"",""time"":1333.2000000476837},{""stimulus"":""https://ziweizhang0304.github.io/Stats_learning_trig/img/Stim/FN_023_g.png"",""time"":1365.8000000715256},{""stimulus"":""blank"",""time"":1671.5},{""stimulus"":""https://ziweizhang0304.github.io/Stats_learning_trig/img/Stim/FN_020_g.png"",""time"":1706.7000000476837},{""stimulus"":""blank"",""time"":2026.2000000476837},{""stimulus"":""https://ziweizhang0304.github.io/Stats_learning_trig/img/Stim/FN_021_g.png"",""time"":2041.2000000476837},{""stimulus"":""blank"",""time"":2343.100000023842},{""stimulus"":""https://ziweizhang0304.github.io/Stats_learning_trig/img/Stim/FN_019_g.png"",""time"":2395.600000023842},{""stimulus"":""blank"",""time"":2706.4000000953674},{""stimulus"":""https://ziweizhang0304.github.io/Stats_learning_trig/img/Stim/FN_005_g.png"",""time"":2721},{""stimulus"":""blank"",""time"":3028.100000023842},{""stimulus"":""https://ziweizhang0304.github.io/Stats_learning_trig/img/Stim/FN_006_g.png"",""time"":3075.9000000953674},{""stimulus"":""blank"",""time"":3391.100000023842},{""stimulus"":""https://ziweizhang0304.github.io/Stats_learning_trig/img/Stim/FN_024_g.png"",""time"":3406.600000023842},{""stimulus"":""blank"",""time"":3708},{""stimulus"":""https://ziweizhang0304.github.io/Stats_learning_trig/img/Stim/FN_015_g.png"",""time"":3750.2000000476837},{""stimulus"":""blank"",""time"":4062.5},{""stimulus"":""https://ziweizhang0304.github.io/Stats_learning_trig/img/Stim/FN_013_g.png"",""time"":4088.100000023842},{""stimulus"":""blank"",""time"":4395.400000095367}]","[{""key_press"":32,""rt"":2035.6000000238419,""stimulus"":""blank""}]","328.89999997615814","https://ziweizhang0304.github.io/Stats_learning_trig/img/Stim/FN_020_g.png","post_TD","6","1706.7000000476837","2035.6000000238419","fast","5","2","5cabc2ee9c7620001214f395","","","","","",""
"","image-keyboard-response","25","101104","0.0-5.0-6.0-0.0","732.6000000238419","","","https://ziweizhang0304.github.io/Stats_learning_trig/img/Stim/FN_012_g.png","13","","","","","","","","","","","","","","","","","",""
"","animation","26","105524","0.0-5.0-6.0-1.0","","","","","","[{""stimulus"":""https://ziweizhang0304.github.io/Stats_learning_trig/img/Stim/FN_024_g.png"",""time"":352.7000000476837},{""stimulus"":""blank"",""time"":653},{""stimulus"":""https://ziweizhang0304.github.io/Stats_learning_trig/img/Stim/FN_003_g.png"",""time"":689.2000000476837},{""stimulus"":""blank"",""time"":991.7999999523163},{""stimulus"":""https://ziweizhang0304.github.io/Stats_learning_trig/img/Stim/FN_004_g.png"",""time"":1033.2000000476837},{""stimulus"":""blank"",""time"":1339.3999999761581},{""stimulus"":""https://ziweizhang0304.github.io/Stats_learning_trig/img/Stim/FN_011_g.png"",""time"":1377.2000000476837},{""stimulus"":""blank"",""time"":1677.7000000476837},{""stimulus"":""https://ziweizhang0304.github.io/Stats_learning_trig/img/Stim/FN_013_g.png"",""time"":1713.2999999523163},{""stimulus"":""blank"",""time"":2025},{""stimulus"":""https://ziweizhang0304.github.io/Stats_learning_trig/img/Stim/FN_015_g.png"",""time"":2040.7000000476837},{""stimulus"":""blank"",""time"":2341.7000000476837},{""stimulus"":""https://ziweizhang0304.github.io/Stats_learning_trig/img/Stim/FN_026_g.png"",""time"":2395.100000023842},{""stimulus"":""blank"",""time"":2696.399999976158},{""stimulus"":""https://ziweizhang0304.github.io/Stats_learning_trig/img/Stim/FN_012_g.png"",""time"":2734},{""stimulus"":""blank"",""time"":3044.2999999523163},{""stimulus"":""https://ziweizhang0304.github.io/Stats_learning_trig/img/Stim/FN_007_g.png"",""time"":3060.7999999523163},{""stimulus"":""blank"",""time"":3382.7000000476837},{""stimulus"":""https://ziweizhang0304.github.io/Stats_learning_trig/img/Stim/FN_019_g.png"",""time"":3411.399999976158},{""stimulus"":""blank"",""time"":3715.899999976158},{""stimulus"":""https://ziweizhang0304.github.io/Stats_learning_trig/img/Stim/FN_005_g.png"",""time"":3744.600000023842},{""stimulus"":""blank"",""time"":4047.100000023842},{""stimulus"":""https://ziweizhang0304.github.io/Stats_learning_trig/img/Stim/FN_006_g.png"",""time"":4084.7999999523163},{""stimulus"":""blank"",""time"":4386}]","[{""key_press"":32,""rt"":3072.2000000476837,""stimulus"":""https://ziweizhang0304.github.io/Stats_learning_trig/img/Stim/FN_007_g.png""}]","338.2000000476837","https://ziweizhang0304.github.io/Stats_learning_trig/img/Stim/FN_012_g.png","post_TD","7","2734","3072.2000000476837","slow","8","2","5cabc2ee9c7620001214f395","","","","","",""
"","image-keyboard-response","27","106328","0.0-5.0-7.0-0.0","802.2999999523163","","","https://ziweizhang0304.github.io/Stats_learning_trig/img/Stim/FN_020_g.png","13","","","","","","","","","","","","","","","","","",""
"","animation","28","110752","0.0-5.0-7.0-1.0","","","","","","[{""stimulus"":""https://ziweizhang0304.github.io/Stats_learning_trig/img/Stim/FN_019_g.png"",""time"":342.39999997615814},{""stimulus"":""blank"",""time"":643.6000000238419},{""stimulus"":""https://ziweizhang0304.github.io/Stats_learning_trig/img/Stim/FN_015_g.png"",""time"":690.7999999523163},{""stimulus"":""blank"",""time"":997.3999999761581},{""stimulus"":""https://ziweizhang0304.github.io/Stats_learning_trig/img/Stim/FN_005_g.png"",""time"":1029.5},{""stimulus"":""blank"",""time"":1345.1000000238419},{""stimulus"":""https://ziweizhang0304.github.io/Stats_learning_trig/img/Stim/FN_013_g.png"",""time"":1361},{""stimulus"":""blank"",""time"":1668.6000000238419},{""stimulus"":""https://ziweizhang0304.github.io/Stats_learning_trig/img/Stim/FN_023_g.png"",""time"":1704},{""stimulus"":""blank"",""time"":2016.8999999761581},{""stimulus"":""https://ziweizhang0304.github.io/Stats_learning_trig/img/Stim/FN_020_g.png"",""time"":2043.7999999523163},{""stimulus"":""blank"",""time"":2348.600000023842},{""stimulus"":""https://ziweizhang0304.github.io/Stats_learning_trig/img/Stim/FN_021_g.png"",""time"":2384.7000000476837},{""stimulus"":""blank"",""time"":2685.899999976158},{""stimulus"":""https://ziweizhang0304.github.io/Stats_learning_trig/img/Stim/FN_011_g.png"",""time"":2731.2999999523163},{""stimulus"":""blank"",""time"":3033.7000000476837},{""stimulus"":""https://ziweizhang0304.github.io/Stats_learning_trig/img/Stim/FN_006_g.png"",""time"":3062.7000000476837},{""stimulus"":""blank"",""time"":3372.7000000476837},{""stimulus"":""https://ziweizhang0304.github.io/Stats_learning_trig/img/Stim/FN_003_g.png"",""time"":3405.399999976158},{""stimulus"":""blank"",""time"":3720.5},{""stimulus"":""https://ziweizhang0304.github.io/Stats_learning_trig/img/Stim/FN_024_g.png"",""time"":3758.2000000476837},{""stimulus"":""blank"",""time"":4066.899999976158},{""stimulus"":""https://ziweizhang0304.github.io/Stats_learning_trig/img/Stim/FN_004_g.png"",""time"":4082.399999976158},{""stimulus"":""blank"",""time"":4392.100000023842}]","[{""key_press"":32,""rt"":2384.7999999523163,""stimulus"":""https://ziweizhang0304.github.io/Stats_learning_trig/img/Stim/FN_021_g.png""}]","341","https://ziweizhang0304.github.io/Stats_learning_trig/img/Stim/FN_020_g.png","post_TD","8","2043.7999999523163","2384.7999999523163","fast","6","2","5cabc2ee9c7620001214f395","","","","","",""
"","image-keyboard-response","29","111621","0.0-5.0-8.0-0.0","867.8999999761581","","","https://ziweizhang0304.github.io/Stats_learning_trig/img/Stim/FN_021_g.png","13","","","","","","","","","","","","","","","","","",""
"","animation","30","116050","0.0-5.0-8.0-1.0","","","","","","[{""stimulus"":""https://ziweizhang0304.github.io/Stats_learning_trig/img/Stim/FN_015_g.png"",""time"":346.7000000476837},{""stimulus"":""blank"",""time"":662.5},{""stimulus"":""https://ziweizhang0304.github.io/Stats_learning_trig/img/Stim/FN_011_g.png"",""time"":695.6000000238419},{""stimulus"":""blank"",""time"":1001.6000000238419},{""stimulus"":""https://ziweizhang0304.github.io/Stats_learning_trig/img/Stim/FN_005_g.png"",""time"":1035.3999999761581},{""stimulus"":""blank"",""time"":1349.3999999761581},{""stimulus"":""https://ziweizhang0304.github.io/Stats_learning_trig/img/Stim/FN_004_g.png"",""time"":1365.1000000238419},{""stimulus"":""blank"",""time"":1666},{""stimulus"":""https://ziweizhang0304.github.io/Stats_learning_trig/img/Stim/FN_006_g.png"",""time"":1703.1000000238419},{""stimulus"":""blank"",""time"":2004.3999999761581},{""stimulus"":""https://ziweizhang0304.github.io/Stats_learning_trig/img/Stim/FN_023_g.png"",""time"":2040.7000000476837},{""stimulus"":""blank"",""time"":2354.5},{""stimulus"":""https://ziweizhang0304.github.io/Stats_learning_trig/img/Stim/FN_020_g.png"",""time"":2391.3000000715256},{""stimulus"":""blank"",""time"":2693.100000023842},{""stimulus"":""https://ziweizhang0304.github.io/Stats_learning_trig/img/Stim/FN_021_g.png"",""time"":2721.3000000715256},{""stimulus"":""blank"",""time"":3021.600000023842},{""stimulus"":""https://ziweizhang0304.github.io/Stats_learning_trig/img/Stim/FN_019_g.png"",""time"":3061},{""stimulus"":""blank"",""time"":3367.7000000476837},{""stimulus"":""https://ziweizhang0304.github.io/Stats_learning_trig/img/Stim/FN_003_g.png"",""time"":3403.5},{""stimulus"":""blank"",""time"":3704.399999976158},{""stimulus"":""https://ziweizhang0304.github.io/Stats_learning_trig/img/Stim/FN_024_g.png"",""time"":3755.8000000715256},{""stimulus"":""blank"",""time"":4066.7000000476837},{""stimulus"":""https://ziweizhang0304.github.io/Stats_learning_trig/img/Stim/FN_013_g.png"",""time"":4082.600000023842},{""stimulus"":""blank"",""time"":4383}]","[{""key_press"":32,""rt"":3054.399999976158,""stimulus"":""blank""}]","333.09999990463257","https://ziweizhang0304.github.io/Stats_learning_trig/img/Stim/FN_021_g.png","post_TD","9","2721.3000000715256","3054.399999976158","fast","8","3","5cabc2ee9c7620001214f395","","","","","",""
"","image-keyboard-response","31","116701","0.0-5.0-9.0-0.0","649.1999999284744","","","https://ziweizhang0304.github.io/Stats_learning_trig/img/Stim/FN_012_g.png","13","","","","","","","","","","","","","","","","","",""
"","animation","32","121123","0.0-5.0-9.0-1.0","","","","","","[{""stimulus"":""https://ziweizhang0304.github.io/Stats_learning_trig/img/Stim/FN_013_g.png"",""time"":347.8000000715256},{""stimulus"":""blank"",""time"":656.5},{""stimulus"":""https://ziweizhang0304.github.io/Stats_learning_trig/img/Stim/FN_005_g.png"",""time"":691.6000000238419},{""stimulus"":""blank"",""time"":1002.3000000715256},{""stimulus"":""https://ziweizhang0304.github.io/Stats_learning_trig/img/Stim/FN_006_g.png"",""time"":1020.6000000238419},{""stimulus"":""blank"",""time"":1335.5},{""stimulus"":""https://ziweizhang0304.github.io/Stats_learning_trig/img/Stim/FN_003_g.png"",""time"":1373.9000000953674},{""stimulus"":""blank"",""time"":1683.3000000715256},{""stimulus"":""https://ziweizhang0304.github.io/Stats_learning_trig/img/Stim/FN_024_g.png"",""time"":1721.3000000715256},{""stimulus"":""blank"",""time"":2022.2000000476837},{""stimulus"":""https://ziweizhang0304.github.io/Stats_learning_trig/img/Stim/FN_026_g.png"",""time"":2040.9000000953674},{""stimulus"":""blank"",""time"":2354.2000000476837},{""stimulus"":""https://ziweizhang0304.github.io/Stats_learning_trig/img/Stim/FN_012_g.png"",""time"":2385.600000023842},{""stimulus"":""blank"",""time"":2701.7000000476837},{""stimulus"":""https://ziweizhang0304.github.io/Stats_learning_trig/img/Stim/FN_007_g.png"",""time"":2721.600000023842},{""stimulus"":""blank"",""time"":3023.8000000715256},{""stimulus"":""https://ziweizhang0304.github.io/Stats_learning_trig/img/Stim/FN_019_g.png"",""time"":3075.600000023842},{""stimulus"":""blank"",""time"":3388.2000000476837},{""stimulus"":""https://ziweizhang0304.github.io/Stats_learning_trig/img/Stim/FN_011_g.png"",""time"":3401.2000000476837},{""stimulus"":""blank"",""time"":3703.600000023842},{""stimulus"":""https://ziweizhang0304.github.io/Stats_learning_trig/img/Stim/FN_015_g.png"",""time"":3741.3000000715256},{""stimulus"":""blank"",""time"":4045.100000023842},{""stimulus"":""https://ziweizhang0304.github.io/Stats_learning_trig/img/Stim/FN_004_g.png"",""time"":4092.2000000476837},{""stimulus"":""blank"",""time"":4405.900000095367}]","[{""key_press"":32,""rt"":2721.3000000715256,""stimulus"":""blank""}]","335.7000000476837","https://ziweizhang0304.github.io/Stats_learning_trig/img/Stim/FN_012_g.png","post_TD","10","2385.600000023842","2721.3000000715256","slow","7","2","5cabc2ee9c7620001214f395","","","","","",""
"","image-keyboard-response","33","121718","0.0-5.0-10.0-0.0","593.7999999523163","","","https://ziweizhang0304.github.io/Stats_learning_trig/img/Stim/FN_007_g.png","13","","","","","","","","","","","","","","","","","",""
"","animation","34","126148","0.0-5.0-10.0-1.0","","","","","","[{""stimulus"":""https://ziweizhang0304.github.io/Stats_learning_trig/img/Stim/FN_024_g.png"",""time"":345.7000000476837},{""stimulus"":""blank"",""time"":646.6000000238419},{""stimulus"":""https://ziweizhang0304.github.io/Stats_learning_trig/img/Stim/FN_003_g.png"",""time"":681.8999999761581},{""stimulus"":""blank"",""time"":993.6000000238419},{""stimulus"":""https://ziweizhang0304.github.io/Stats_learning_trig/img/Stim/FN_004_g.png"",""time"":1029.3999999761581},{""stimulus"":""blank"",""time"":1343.8999999761581},{""stimulus"":""https://ziweizhang0304.github.io/Stats_learning_trig/img/Stim/FN_011_g.png"",""time"":1374.3999999761581},{""stimulus"":""blank"",""time"":1694},{""stimulus"":""https://ziweizhang0304.github.io/Stats_learning_trig/img/Stim/FN_013_g.png"",""time"":1700.8000000715256},{""stimulus"":""blank"",""time"":2004.2000000476837},{""stimulus"":""https://ziweizhang0304.github.io/Stats_learning_trig/img/Stim/FN_015_g.png"",""time"":2054.2000000476837},{""stimulus"":""blank"",""time"":2363.899999976158},{""stimulus"":""https://ziweizhang0304.github.io/Stats_learning_trig/img/Stim/FN_026_g.png"",""time"":2380.7000000476837},{""stimulus"":""blank"",""time"":2684.2000000476837},{""stimulus"":""https://ziweizhang0304.github.io/Stats_learning_trig/img/Stim/FN_012_g.png"",""time"":2724.3000000715256},{""stimulus"":""blank"",""time"":3033.899999976158},{""stimulus"":""https://ziweizhang0304.github.io/Stats_learning_trig/img/Stim/FN_007_g.png"",""time"":3074.3000000715256},{""stimulus"":""blank"",""time"":3380.899999976158},{""stimulus"":""https://ziweizhang0304.github.io/Stats_learning_trig/img/Stim/FN_019_g.png"",""time"":3417.600000023842},{""stimulus"":""blank"",""time"":3729.5},{""stimulus"":""https://ziweizhang0304.github.io/Stats_learning_trig/img/Stim/FN_005_g.png"",""time"":3741},{""stimulus"":""blank"",""time"":4056.600000023842},{""stimulus"":""https://ziweizhang0304.github.io/Stats_learning_trig/img/Stim/FN_006_g.png"",""time"":4088.100000023842},{""stimulus"":""blank"",""time"":4398}]","[{""key_press"":32,""rt"":3443.100000023842,""stimulus"":""https://ziweizhang0304.github.io/Stats_learning_trig/img/Stim/FN_019_g.png""}]","368.7999999523163","https://ziweizhang0304.github.io/Stats_learning_trig/img/Stim/FN_007_g.png","post_TD","11","3074.3000000715256","3443.100000023842","slow","9","3","5cabc2ee9c7620001214f395","","","","","",""
"","image-keyboard-response","35","126599","0.0-5.0-11.0-0.0","450.2999999523163","","","https://ziweizhang0304.github.io/Stats_learning_trig/img/Stim/FN_026_g.png","13","","","","","","","","","","","","","","","","","",""
"","animation","36","131028","0.0-5.0-11.0-1.0","","","","","","[{""stimulus"":""https://ziweizhang0304.github.io/Stats_learning_trig/img/Stim/FN_013_g.png"",""time"":355.7000000476837},{""stimulus"":""blank"",""time"":671.3999999761581},{""stimulus"":""https://ziweizhang0304.github.io/Stats_learning_trig/img/Stim/FN_024_g.png"",""time"":681},{""stimulus"":""blank"",""time"":987.5},{""stimulus"":""https://ziweizhang0304.github.io/Stats_learning_trig/img/Stim/FN_006_g.png"",""time"":1023},{""stimulus"":""blank"",""time"":1336.2000000476837},{""stimulus"":""https://ziweizhang0304.github.io/Stats_learning_trig/img/Stim/FN_019_g.png"",""time"":1373.8999999761581},{""stimulus"":""blank"",""time"":1674.1000000238419},{""stimulus"":""https://ziweizhang0304.github.io/Stats_learning_trig/img/Stim/FN_026_g.png"",""time"":1710},{""stimulus"":""blank"",""time"":2021.8000000715256},{""stimulus"":""https://ziweizhang0304.github.io/Stats_learning_trig/img/Stim/FN_012_g.png"",""time"":2050.600000023842},{""stimulus"":""blank"",""time"":2353.399999976158},{""stimulus"":""https://ziweizhang0304.github.io/Stats_learning_trig/img/Stim/FN_007_g.png"",""time"":2397.8000000715256},{""stimulus"":""blank"",""time"":2707.3000000715256},{""stimulus"":""https://ziweizhang0304.github.io/Stats_learning_trig/img/Stim/FN_005_g.png"",""time"":2724.600000023842},{""stimulus"":""blank"",""time"":3039.7000000476837},{""stimulus"":""https://ziweizhang0304.github.io/Stats_learning_trig/img/Stim/FN_011_g.png"",""time"":3061.899999976158},{""stimulus"":""blank"",""time"":3377.399999976158},{""stimulus"":""https://ziweizhang0304.github.io/Stats_learning_trig/img/Stim/FN_003_g.png"",""time"":3412.5},{""stimulus"":""blank"",""time"":3724.600000023842},{""stimulus"":""https://ziweizhang0304.github.io/Stats_learning_trig/img/Stim/FN_015_g.png"",""time"":3741.2000000476837},{""stimulus"":""blank"",""time"":4050},{""stimulus"":""https://ziweizhang0304.github.io/Stats_learning_trig/img/Stim/FN_004_g.png"",""time"":4081.600000023842},{""stimulus"":""blank"",""time"":4395.899999976158}]","[{""key_press"":32,""rt"":2083.7000000476837,""stimulus"":""https://ziweizhang0304.github.io/Stats_learning_trig/img/Stim/FN_012_g.png""}]","373.7000000476837","https://ziweizhang0304.github.io/Stats_learning_trig/img/Stim/FN_026_g.png","post_TD","12","1710","2083.7000000476837","slow","5","1","5cabc2ee9c7620001214f395","","","","","",""
"","image-keyboard-response","37","131749","0.0-5.0-12.0-0.0","720.5","","","https://ziweizhang0304.github.io/Stats_learning_trig/img/Stim/FN_021_g.png","13","","","","","","","","","","","","","","","","","",""
"","animation","38","136176","0.0-5.0-12.0-1.0","","","","","","[{""stimulus"":""https://ziweizhang0304.github.io/Stats_learning_trig/img/Stim/FN_019_g.png"",""time"":347.89999997615814},{""stimulus"":""blank"",""time"":648.2000000476837},{""stimulus"":""https://ziweizhang0304.github.io/Stats_learning_trig/img/Stim/FN_015_g.png"",""time"":684.8999999761581},{""stimulus"":""blank"",""time"":995.2000000476837},{""stimulus"":""https://ziweizhang0304.github.io/Stats_learning_trig/img/Stim/FN_005_g.png"",""time"":1033.5},{""stimulus"":""blank"",""time"":1333.7000000476837},{""stimulus"":""https://ziweizhang0304.github.io/Stats_learning_trig/img/Stim/FN_013_g.png"",""time"":1365.7000000476837},{""stimulus"":""blank"",""time"":1681.8999999761581},{""stimulus"":""https://ziweizhang0304.github.io/Stats_learning_trig/img/Stim/FN_023_g.png"",""time"":1711.3999999761581},{""stimulus"":""blank"",""time"":2014},{""stimulus"":""https://ziweizhang0304.github.io/Stats_learning_trig/img/Stim/FN_020_g.png"",""time"":2046.5},{""stimulus"":""blank"",""time"":2351.399999976158},{""stimulus"":""https://ziweizhang0304.github.io/Stats_learning_trig/img/Stim/FN_021_g.png"",""time"":2387.2000000476837},{""stimulus"":""blank"",""time"":2697.399999976158},{""stimulus"":""https://ziweizhang0304.github.io/Stats_learning_trig/img/Stim/FN_011_g.png"",""time"":2736.7000000476837},{""stimulus"":""blank"",""time"":3037.2999999523163},{""stimulus"":""https://ziweizhang0304.github.io/Stats_learning_trig/img/Stim/FN_006_g.png"",""time"":3073.7999999523163},{""stimulus"":""blank"",""time"":3384.399999976158},{""stimulus"":""https://ziweizhang0304.github.io/Stats_learning_trig/img/Stim/FN_003_g.png"",""time"":3421.7000000476837},{""stimulus"":""blank"",""time"":3727.100000023842},{""stimulus"":""https://ziweizhang0304.github.io/Stats_learning_trig/img/Stim/FN_024_g.png"",""time"":3740.5},{""stimulus"":""blank"",""time"":4054.399999976158},{""stimulus"":""https://ziweizhang0304.github.io/Stats_learning_trig/img/Stim/FN_004_g.png"",""time"":4081.7999999523163},{""stimulus"":""blank"",""time"":4395.100000023842}]","[{""key_press"":32,""rt"":2704,""stimulus"":""blank""}]","316.7999999523163","https://ziweizhang0304.github.io/Stats_learning_trig/img/Stim/FN_021_g.png","post_TD","13","2387.2000000476837","2704","fast","7","3","5cabc2ee9c7620001214f395","","","","","",""
"","image-keyboard-response","39","136545","0.0-5.0-13.0-0.0","368.10000002384186","","","https://ziweizhang0304.github.io/Stats_learning_trig/img/Stim/FN_012_g.png","13","","","","","","","","","","","","","","","","","",""
"","animation","40","140967","0.0-5.0-13.0-1.0","","","","","","[{""stimulus"":""https://ziweizhang0304.github.io/Stats_learning_trig/img/Stim/FN_013_g.png"",""time"":343.59999990463257},{""stimulus"":""blank"",""time"":644},{""stimulus"":""https://ziweizhang0304.github.io/Stats_learning_trig/img/Stim/FN_024_g.png"",""time"":695.6999999284744},{""stimulus"":""blank"",""time"":1007.8999999761581},{""stimulus"":""https://ziweizhang0304.github.io/Stats_learning_trig/img/Stim/FN_006_g.png"",""time"":1030.0999999046326},{""stimulus"":""blank"",""time"":1347},{""stimulus"":""https://ziweizhang0304.github.io/Stats_learning_trig/img/Stim/FN_019_g.png"",""time"":1361.1999999284744},{""stimulus"":""blank"",""time"":1663.1999999284744},{""stimulus"":""https://ziweizhang0304.github.io/Stats_learning_trig/img/Stim/FN_026_g.png"",""time"":1714.8999999761581},{""stimulus"":""blank"",""time"":2015.7999999523163},{""stimulus"":""https://ziweizhang0304.github.io/Stats_learning_trig/img/Stim/FN_012_g.png"",""time"":2048.7999999523163},{""stimulus"":""blank"",""time"":2349.2999999523163},{""stimulus"":""https://ziweizhang0304.github.io/Stats_learning_trig/img/Stim/FN_007_g.png"",""time"":2381.899999976158},{""stimulus"":""blank"",""time"":2696.5},{""stimulus"":""https://ziweizhang0304.github.io/Stats_learning_trig/img/Stim/FN_005_g.png"",""time"":2728.899999976158},{""stimulus"":""blank"",""time"":3050.399999976158},{""stimulus"":""https://ziweizhang0304.github.io/Stats_learning_trig/img/Stim/FN_011_g.png"",""time"":3061},{""stimulus"":""blank"",""time"":3367.5},{""stimulus"":""https://ziweizhang0304.github.io/Stats_learning_trig/img/Stim/FN_003_g.png"",""time"":3403.2999999523163},{""stimulus"":""blank"",""time"":3714.399999976158},{""stimulus"":""https://ziweizhang0304.github.io/Stats_learning_trig/img/Stim/FN_015_g.png"",""time"":3752.1999999284744},{""stimulus"":""blank"",""time"":4061.399999976158},{""stimulus"":""https://ziweizhang0304.github.io/Stats_learning_trig/img/Stim/FN_004_g.png"",""time"":4081.2999999523163},{""stimulus"":""blank"",""time"":4385.899999976158}]","[{""key_press"":32,""rt"":2401.8000000715256,""stimulus"":""https://ziweizhang0304.github.io/Stats_learning_trig/img/Stim/FN_007_g.png""}]","353.0000001192093","https://ziweizhang0304.github.io/Stats_learning_trig/img/Stim/FN_012_g.png","post_TD","14","2048.7999999523163","2401.8000000715256","slow","6","2","5cabc2ee9c7620001214f395","","","","","",""
"","image-keyboard-response","41","141694","0.0-5.0-14.0-0.0","725.3000000715256","","","https://ziweizhang0304.github.io/Stats_learning_trig/img/Stim/FN_023_g.png","13","","","","","","","","","","","","","","","","","",""
"","animation","42","146114","0.0-5.0-14.0-1.0","","","","","","[{""stimulus"":""https://ziweizhang0304.github.io/Stats_learning_trig/img/Stim/FN_015_g.png"",""time"":354.39999997615814},{""stimulus"":""blank"",""time"":669.8999999761581},{""stimulus"":""https://ziweizhang0304.github.io/Stats_learning_trig/img/Stim/FN_011_g.png"",""time"":680.5},{""stimulus"":""blank"",""time"":987.5999999046326},{""stimulus"":""https://ziweizhang0304.github.io/Stats_learning_trig/img/Stim/FN_005_g.png"",""time"":1026.5},{""stimulus"":""blank"",""time"":1338.7999999523163},{""stimulus"":""https://ziweizhang0304.github.io/Stats_learning_trig/img/Stim/FN_004_g.png"",""time"":1373.5999999046326},{""stimulus"":""blank"",""time"":1686.7999999523163},{""stimulus"":""https://ziweizhang0304.github.io/Stats_learning_trig/img/Stim/FN_006_g.png"",""time"":1702.5999999046326},{""stimulus"":""blank"",""time"":2010},{""stimulus"":""https://ziweizhang0304.github.io/Stats_learning_trig/img/Stim/FN_023_g.png"",""time"":2047.8999999761581},{""stimulus"":""blank"",""time"":2357.5999999046326},{""stimulus"":""https://ziweizhang0304.github.io/Stats_learning_trig/img/Stim/FN_020_g.png"",""time"":2395.2999999523163},{""stimulus"":""blank"",""time"":2711.399999976158},{""stimulus"":""https://ziweizhang0304.github.io/Stats_learning_trig/img/Stim/FN_021_g.png"",""time"":2721.0999999046326},{""stimulus"":""blank"",""time"":3027.399999976158},{""stimulus"":""https://ziweizhang0304.github.io/Stats_learning_trig/img/Stim/FN_019_g.png"",""time"":3060.899999976158},{""stimulus"":""blank"",""time"":3374.6999999284744},{""stimulus"":""https://ziweizhang0304.github.io/Stats_learning_trig/img/Stim/FN_003_g.png"",""time"":3412.399999976158},{""stimulus"":""blank"",""time"":3722},{""stimulus"":""https://ziweizhang0304.github.io/Stats_learning_trig/img/Stim/FN_024_g.png"",""time"":3753.399999976158},{""stimulus"":""blank"",""time"":4063.6999999284744},{""stimulus"":""https://ziweizhang0304.github.io/Stats_learning_trig/img/Stim/FN_013_g.png"",""time"":4094.5},{""stimulus"":""blank"",""time"":4394.599999904633}]","[{""key_press"":32,""rt"":2477.899999976158,""stimulus"":""https://ziweizhang0304.github.io/Stats_learning_trig/img/Stim/FN_020_g.png""}]","430","https://ziweizhang0304.github.io/Stats_learning_trig/img/Stim/FN_023_g.png","post_TD","15","2047.8999999761581","2477.899999976158","fast","6","1","5cabc2ee9c7620001214f395","","","","","",""
"","image-keyboard-response","43","146676","0.0-5.0-15.0-0.0","560.1000000238419","","","https://ziweizhang0304.github.io/Stats_learning_trig/img/Stim/FN_023_g.png","13","","","","","","","","","","","","","","","","","",""
"","animation","44","151105","0.0-5.0-15.0-1.0","","","","","","[{""stimulus"":""https://ziweizhang0304.github.io/Stats_learning_trig/img/Stim/FN_003_g.png"",""time"":348.59999990463257},{""stimulus"":""blank"",""time"":664.5},{""stimulus"":""https://ziweizhang0304.github.io/Stats_learning_trig/img/Stim/FN_011_g.png"",""time"":680.7999999523163},{""stimulus"":""blank"",""time"":997.0999999046326},{""stimulus"":""https://ziweizhang0304.github.io/Stats_learning_trig/img/Stim/FN_004_g.png"",""time"":1033.8999999761581},{""stimulus"":""blank"",""time"":1334.1999999284744},{""stimulus"":""https://ziweizhang0304.github.io/Stats_learning_trig/img/Stim/FN_023_g.png"",""time"":1360.5},{""stimulus"":""blank"",""time"":1661.6999999284744},{""stimulus"":""https://ziweizhang0304.github.io/Stats_learning_trig/img/Stim/FN_020_g.png"",""time"":1712.3999999761581},{""stimulus"":""blank"",""time"":2031.2999999523163},{""stimulus"":""https://ziweizhang0304.github.io/Stats_learning_trig/img/Stim/FN_021_g.png"",""time"":2041.2999999523163},{""stimulus"":""blank"",""time"":2342.1999999284744},{""stimulus"":""https://ziweizhang0304.github.io/Stats_learning_trig/img/Stim/FN_019_g.png"",""time"":2382.1999999284744},{""stimulus"":""blank"",""time"":2697.5999999046326},{""stimulus"":""https://ziweizhang0304.github.io/Stats_learning_trig/img/Stim/FN_005_g.png"",""time"":2734.2999999523163},{""stimulus"":""blank"",""time"":3035.5},{""stimulus"":""https://ziweizhang0304.github.io/Stats_learning_trig/img/Stim/FN_006_g.png"",""time"":3060.5},{""stimulus"":""blank"",""time"":3361.1999999284744},{""stimulus"":""https://ziweizhang0304.github.io/Stats_learning_trig/img/Stim/FN_024_g.png"",""time"":3414.5999999046326},{""stimulus"":""blank"",""time"":3729.7999999523163},{""stimulus"":""https://ziweizhang0304.github.io/Stats_learning_trig/img/Stim/FN_015_g.png"",""time"":3740.899999976158},{""stimulus"":""blank"",""time"":4055},{""stimulus"":""https://ziweizhang0304.github.io/Stats_learning_trig/img/Stim/FN_013_g.png"",""time"":4085.7999999523163},{""stimulus"":""blank"",""time"":4397.299999952316}]","[{""key_press"":32,""rt"":1891.0999999046326,""stimulus"":""https://ziweizhang0304.github.io/Stats_learning_trig/img/Stim/FN_020_g.png""}]","530.5999999046326","https://ziweizhang0304.github.io/Stats_learning_trig/img/Stim/FN_023_g.png","post_TD","16","1360.5","1891.0999999046326","fast","4","1","5cabc2ee9c7620001214f395","","","","","",""
"","image-keyboard-response","45","151411","0.0-5.0-16.0-0.0","304","","","https://ziweizhang0304.github.io/Stats_learning_trig/img/Stim/FN_020_g.png","13","","","","","","","","","","","","","","","","","",""
"","animation","46","155836","0.0-5.0-16.0-1.0","","","","","","[{""stimulus"":""https://ziweizhang0304.github.io/Stats_learning_trig/img/Stim/FN_015_g.png"",""time"":347.59999990463257},{""stimulus"":""blank"",""time"":651.2999999523163},{""stimulus"":""https://ziweizhang0304.github.io/Stats_learning_trig/img/Stim/FN_011_g.png"",""time"":684.8999999761581},{""stimulus"":""blank"",""time"":1005},{""stimulus"":""https://ziweizhang0304.github.io/Stats_learning_trig/img/Stim/FN_005_g.png"",""time"":1031.6999999284744},{""stimulus"":""blank"",""time"":1337.3999999761581},{""stimulus"":""https://ziweizhang0304.github.io/Stats_learning_trig/img/Stim/FN_004_g.png"",""time"":1365.2999999523163},{""stimulus"":""blank"",""time"":1669.1999999284744},{""stimulus"":""https://ziweizhang0304.github.io/Stats_learning_trig/img/Stim/FN_006_g.png"",""time"":1707.0999999046326},{""stimulus"":""blank"",""time"":2022.8999999761581},{""stimulus"":""https://ziweizhang0304.github.io/Stats_learning_trig/img/Stim/FN_023_g.png"",""time"":2060.0999999046326},{""stimulus"":""blank"",""time"":2371.399999976158},{""stimulus"":""https://ziweizhang0304.github.io/Stats_learning_trig/img/Stim/FN_020_g.png"",""time"":2381.2999999523163},{""stimulus"":""blank"",""time"":2687.399999976158},{""stimulus"":""https://ziweizhang0304.github.io/Stats_learning_trig/img/Stim/FN_021_g.png"",""time"":2728},{""stimulus"":""blank"",""time"":3041},{""stimulus"":""https://ziweizhang0304.github.io/Stats_learning_trig/img/Stim/FN_019_g.png"",""time"":3072.899999976158},{""stimulus"":""blank"",""time"":3373.7999999523163},{""stimulus"":""https://ziweizhang0304.github.io/Stats_learning_trig/img/Stim/FN_003_g.png"",""time"":3412.0999999046326},{""stimulus"":""blank"",""time"":3712.6999999284744},{""stimulus"":""https://ziweizhang0304.github.io/Stats_learning_trig/img/Stim/FN_024_g.png"",""time"":3748.0999999046326},{""stimulus"":""blank"",""time"":4052.1999999284744},{""stimulus"":""https://ziweizhang0304.github.io/Stats_learning_trig/img/Stim/FN_013_g.png"",""time"":4083.6999999284744},{""stimulus"":""blank"",""time"":4394.5}]","[{""key_press"":32,""rt"":2768.2000000476837,""stimulus"":""https://ziweizhang0304.github.io/Stats_learning_trig/img/Stim/FN_021_g.png""}]","386.90000009536743","https://ziweizhang0304.github.io/Stats_learning_trig/img/Stim/FN_020_g.png","post_TD","17","2381.2999999523163","2768.2000000476837","fast","7","2","5cabc2ee9c7620001214f395","","","","","",""
"","image-keyboard-response","47","156428","0.0-5.0-17.0-0.0","590.7999999523163","","","https://ziweizhang0304.github.io/Stats_learning_trig/img/Stim/FN_026_g.png","13","","","","","","","","","","","","","","","","","",""
"","animation","48","160850","0.0-5.0-17.0-1.0","","","","","","[{""stimulus"":""https://ziweizhang0304.github.io/Stats_learning_trig/img/Stim/FN_024_g.png"",""time"":346.09999990463257},{""stimulus"":""blank"",""time"":646.5},{""stimulus"":""https://ziweizhang0304.github.io/Stats_learning_trig/img/Stim/FN_003_g.png"",""time"":700.5999999046326},{""stimulus"":""blank"",""time"":1001.6999999284744},{""stimulus"":""https://ziweizhang0304.github.io/Stats_learning_trig/img/Stim/FN_004_g.png"",""time"":1024.3999999761581},{""stimulus"":""blank"",""time"":1334},{""stimulus"":""https://ziweizhang0304.github.io/Stats_learning_trig/img/Stim/FN_011_g.png"",""time"":1369.7999999523163},{""stimulus"":""blank"",""time"":1681.7999999523163},{""stimulus"":""https://ziweizhang0304.github.io/Stats_learning_trig/img/Stim/FN_013_g.png"",""time"":1700.7999999523163},{""stimulus"":""blank"",""time"":2005},{""stimulus"":""https://ziweizhang0304.github.io/Stats_learning_trig/img/Stim/FN_015_g.png"",""time"":2040.2999999523163},{""stimulus"":""blank"",""time"":2353},{""stimulus"":""https://ziweizhang0304.github.io/Stats_learning_trig/img/Stim/FN_026_g.png"",""time"":2390.6999999284744},{""stimulus"":""blank"",""time"":2707.5},{""stimulus"":""https://ziweizhang0304.github.io/Stats_learning_trig/img/Stim/FN_012_g.png"",""time"":2721.399999976158},{""stimulus"":""blank"",""time"":3023.7999999523163},{""stimulus"":""https://ziweizhang0304.github.io/Stats_learning_trig/img/Stim/FN_007_g.png"",""time"":3071.899999976158},{""stimulus"":""blank"",""time"":3386.7999999523163},{""stimulus"":""https://ziweizhang0304.github.io/Stats_learning_trig/img/Stim/FN_019_g.png"",""time"":3409.0999999046326},{""stimulus"":""blank"",""time"":3709.6999999284744},{""stimulus"":""https://ziweizhang0304.github.io/Stats_learning_trig/img/Stim/FN_005_g.png"",""time"":3744},{""stimulus"":""blank"",""time"":4047.899999976158},{""stimulus"":""https://ziweizhang0304.github.io/Stats_learning_trig/img/Stim/FN_006_g.png"",""time"":4094.1999999284744},{""stimulus"":""blank"",""time"":4406.799999952316}]","[{""key_press"":32,""rt"":2741.600000023842,""stimulus"":""https://ziweizhang0304.github.io/Stats_learning_trig/img/Stim/FN_012_g.png""}]","350.90000009536743","https://ziweizhang0304.github.io/Stats_learning_trig/img/Stim/FN_026_g.png","post_TD","18","2390.6999999284744","2741.600000023842","slow","7","1","5cabc2ee9c7620001214f395","","","","","",""
"","image-keyboard-response","49","161407","0.0-5.0-18.0-0.0","555.3000000715256","","","https://ziweizhang0304.github.io/Stats_learning_trig/img/Stim/FN_021_g.png","13","","","","","","","","","","","","","","","","","",""
"","animation","50","165842","0.0-5.0-18.0-1.0","","","","","","[{""stimulus"":""https://ziweizhang0304.github.io/Stats_learning_trig/img/Stim/FN_003_g.png"",""time"":348.60000002384186},{""stimulus"":""blank"",""time"":649.5},{""stimulus"":""https://ziweizhang0304.github.io/Stats_learning_trig/img/Stim/FN_004_g.png"",""time"":696.1999999284744},{""stimulus"":""blank"",""time"":996.5},{""stimulus"":""https://ziweizhang0304.github.io/Stats_learning_trig/img/Stim/FN_013_g.png"",""time"":1034.8999999761581},{""stimulus"":""blank"",""time"":1335.3999999761581},{""stimulus"":""https://ziweizhang0304.github.io/Stats_learning_trig/img/Stim/FN_019_g.png"",""time"":1368},{""stimulus"":""blank"",""time"":1683.1000000238419},{""stimulus"":""https://ziweizhang0304.github.io/Stats_learning_trig/img/Stim/FN_015_g.png"",""time"":1709.1999999284744},{""stimulus"":""blank"",""time"":2015.5},{""stimulus"":""https://ziweizhang0304.github.io/Stats_learning_trig/img/Stim/FN_006_g.png"",""time"":2049.899999976158},{""stimulus"":""blank"",""time"":2353.600000023842},{""stimulus"":""https://ziweizhang0304.github.io/Stats_learning_trig/img/Stim/FN_023_g.png"",""time"":2389.399999976158},{""stimulus"":""blank"",""time"":2700.7999999523163},{""stimulus"":""https://ziweizhang0304.github.io/Stats_learning_trig/img/Stim/FN_020_g.png"",""time"":2720.5},{""stimulus"":""blank"",""time"":3021},{""stimulus"":""https://ziweizhang0304.github.io/Stats_learning_trig/img/Stim/FN_021_g.png"",""time"":3072},{""stimulus"":""blank"",""time"":3373.399999976158},{""stimulus"":""https://ziweizhang0304.github.io/Stats_learning_trig/img/Stim/FN_005_g.png"",""time"":3400.899999976158},{""stimulus"":""blank"",""time"":3704.2999999523163},{""stimulus"":""https://ziweizhang0304.github.io/Stats_learning_trig/img/Stim/FN_011_g.png"",""time"":3742.399999976158},{""stimulus"":""blank"",""time"":4044.600000023842},{""stimulus"":""https://ziweizhang0304.github.io/Stats_learning_trig/img/Stim/FN_024_g.png"",""time"":4091.5},{""stimulus"":""blank"",""time"":4402.600000023842}]","[{""key_press"":32,""rt"":3361.399999976158,""stimulus"":""https://ziweizhang0304.github.io/Stats_learning_trig/img/Stim/FN_021_g.png""}]","289.39999997615814","https://ziweizhang0304.github.io/Stats_learning_trig/img/Stim/FN_021_g.png","post_TD","19","3072","3361.399999976158","fast","9","3","5cabc2ee9c7620001214f395","","","","","",""
"","image-keyboard-response","51","166417","0.0-5.0-19.0-0.0","573.8000000715256","","","https://ziweizhang0304.github.io/Stats_learning_trig/img/Stim/FN_026_g.png","13","","","","","","","","","","","","","","","","","",""
"","animation","52","170839","0.0-5.0-19.0-1.0","","","","","","[{""stimulus"":""https://ziweizhang0304.github.io/Stats_learning_trig/img/Stim/FN_013_g.png"",""time"":350.40000009536743},{""stimulus"":""blank"",""time"":665.8000000715256},{""stimulus"":""https://ziweizhang0304.github.io/Stats_learning_trig/img/Stim/FN_005_g.png"",""time"":680.7000000476837},{""stimulus"":""blank"",""time"":983},{""stimulus"":""https://ziweizhang0304.github.io/Stats_learning_trig/img/Stim/FN_006_g.png"",""time"":1036.1000000238419},{""stimulus"":""blank"",""time"":1336.5},{""stimulus"":""https://ziweizhang0304.github.io/Stats_learning_trig/img/Stim/FN_003_g.png"",""time"":1372.4000000953674},{""stimulus"":""blank"",""time"":1683.9000000953674},{""stimulus"":""https://ziweizhang0304.github.io/Stats_learning_trig/img/Stim/FN_024_g.png"",""time"":1701.1000000238419},{""stimulus"":""blank"",""time"":2015.9000000953674},{""stimulus"":""https://ziweizhang0304.github.io/Stats_learning_trig/img/Stim/FN_026_g.png"",""time"":2054},{""stimulus"":""blank"",""time"":2354.5},{""stimulus"":""https://ziweizhang0304.github.io/Stats_learning_trig/img/Stim/FN_012_g.png"",""time"":2387.100000023842},{""stimulus"":""blank"",""time"":2701.8000000715256},{""stimulus"":""https://ziweizhang0304.github.io/Stats_learning_trig/img/Stim/FN_007_g.png"",""time"":2723.600000023842},{""stimulus"":""blank"",""time"":3031},{""stimulus"":""https://ziweizhang0304.github.io/Stats_learning_trig/img/Stim/FN_019_g.png"",""time"":3067.3000000715256},{""stimulus"":""blank"",""time"":3372.2000000476837},{""stimulus"":""https://ziweizhang0304.github.io/Stats_learning_trig/img/Stim/FN_011_g.png"",""time"":3408},{""stimulus"":""blank"",""time"":3718.8000000715256},{""stimulus"":""https://ziweizhang0304.github.io/Stats_learning_trig/img/Stim/FN_015_g.png"",""time"":3755},{""stimulus"":""blank"",""time"":4060.100000023842},{""stimulus"":""https://ziweizhang0304.github.io/Stats_learning_trig/img/Stim/FN_004_g.png"",""time"":4092},{""stimulus"":""blank"",""time"":4401}]","[{""key_press"":32,""rt"":2498.399999976158,""stimulus"":""https://ziweizhang0304.github.io/Stats_learning_trig/img/Stim/FN_012_g.png""}]","444.39999997615814","https://ziweizhang0304.github.io/Stats_learning_trig/img/Stim/FN_026_g.png","post_TD","20","2054","2498.399999976158","slow","6","1","5cabc2ee9c7620001214f395","","","","","",""
"","image-keyboard-response","53","171367","0.0-5.0-20.0-0.0","526.2999999523163","","","https://ziweizhang0304.github.io/Stats_learning_trig/img/Stim/FN_020_g.png","13","","","","","","","","","","","","","","","","","",""
"","animation","54","175794","0.0-5.0-20.0-1.0","","","","","","[{""stimulus"":""https://ziweizhang0304.github.io/Stats_learning_trig/img/Stim/FN_003_g.png"",""time"":341.09999990463257},{""stimulus"":""blank"",""time"":656.5999999046326},{""stimulus"":""https://ziweizhang0304.github.io/Stats_learning_trig/img/Stim/FN_004_g.png"",""time"":685.2999999523163},{""stimulus"":""blank"",""time"":994.5},{""stimulus"":""https://ziweizhang0304.github.io/Stats_learning_trig/img/Stim/FN_013_g.png"",""time"":1021.1999999284744},{""stimulus"":""blank"",""time"":1322.6999999284744},{""stimulus"":""https://ziweizhang0304.github.io/Stats_learning_trig/img/Stim/FN_019_g.png"",""time"":1369.0999999046326},{""stimulus"":""blank"",""time"":1672.6999999284744},{""stimulus"":""https://ziweizhang0304.github.io/Stats_learning_trig/img/Stim/FN_015_g.png"",""time"":1701.2999999523163},{""stimulus"":""blank"",""time"":2002.5999999046326},{""stimulus"":""https://ziweizhang0304.github.io/Stats_learning_trig/img/Stim/FN_006_g.png"",""time"":2042},{""stimulus"":""blank"",""time"":2357.6999999284744},{""stimulus"":""https://ziweizhang0304.github.io/Stats_learning_trig/img/Stim/FN_023_g.png"",""time"":2387.0999999046326},{""stimulus"":""blank"",""time"":2699.7999999523163},{""stimulus"":""https://ziweizhang0304.github.io/Stats_learning_trig/img/Stim/FN_020_g.png"",""time"":2736},{""stimulus"":""blank"",""time"":3047},{""stimulus"":""https://ziweizhang0304.github.io/Stats_learning_trig/img/Stim/FN_021_g.png"",""time"":3060.5999999046326},{""stimulus"":""blank"",""time"":3363.399999976158},{""stimulus"":""https://ziweizhang0304.github.io/Stats_learning_trig/img/Stim/FN_005_g.png"",""time"":3401.1999999284744},{""stimulus"":""blank"",""time"":3702},{""stimulus"":""https://ziweizhang0304.github.io/Stats_learning_trig/img/Stim/FN_011_g.png"",""time"":3744.6999999284744},{""stimulus"":""blank"",""time"":4057.2999999523163},{""stimulus"":""https://ziweizhang0304.github.io/Stats_learning_trig/img/Stim/FN_024_g.png"",""time"":4088.0999999046326},{""stimulus"":""blank"",""time"":4396.199999928474}]","[{""key_press"":32,""rt"":2783.2000000476837,""stimulus"":""https://ziweizhang0304.github.io/Stats_learning_trig/img/Stim/FN_020_g.png""}]","47.200000047683716","https://ziweizhang0304.github.io/Stats_learning_trig/img/Stim/FN_020_g.png","post_TD","21","2736","2783.2000000476837","fast","8","2","5cabc2ee9c7620001214f395","","","","","",""
"","image-keyboard-response","55","176247","0.0-5.0-21.0-0.0","450.90000009536743","","","https://ziweizhang0304.github.io/Stats_learning_trig/img/Stim/FN_021_g.png","13","","","","","","","","","","","","","","","","","",""
"","animation","56","180671","0.0-5.0-21.0-1.0","","","","","","[{""stimulus"":""https://ziweizhang0304.github.io/Stats_learning_trig/img/Stim/FN_003_g.png"",""time"":356.6999999284744},{""stimulus"":""blank"",""time"":657.5999999046326},{""stimulus"":""https://ziweizhang0304.github.io/Stats_learning_trig/img/Stim/FN_011_g.png"",""time"":689.8999999761581},{""stimulus"":""blank"",""time"":1005.5},{""stimulus"":""https://ziweizhang0304.github.io/Stats_learning_trig/img/Stim/FN_004_g.png"",""time"":1028.1999999284744},{""stimulus"":""blank"",""time"":1343.6999999284744},{""stimulus"":""https://ziweizhang0304.github.io/Stats_learning_trig/img/Stim/FN_023_g.png"",""time"":1377.2999999523163},{""stimulus"":""blank"",""time"":1691.8999999761581},{""stimulus"":""https://ziweizhang0304.github.io/Stats_learning_trig/img/Stim/FN_020_g.png"",""time"":1701.3999999761581},{""stimulus"":""blank"",""time"":2008.2999999523163},{""stimulus"":""https://ziweizhang0304.github.io/Stats_learning_trig/img/Stim/FN_021_g.png"",""time"":2043.6999999284744},{""stimulus"":""blank"",""time"":2346.5999999046326},{""stimulus"":""https://ziweizhang0304.github.io/Stats_learning_trig/img/Stim/FN_019_g.png"",""time"":2384.1999999284744},{""stimulus"":""blank"",""time"":2695.5999999046326},{""stimulus"":""https://ziweizhang0304.github.io/Stats_learning_trig/img/Stim/FN_005_g.png"",""time"":2733.5},{""stimulus"":""blank"",""time"":3034.0999999046326},{""stimulus"":""https://ziweizhang0304.github.io/Stats_learning_trig/img/Stim/FN_006_g.png"",""time"":3060.6999999284744},{""stimulus"":""blank"",""time"":3365.5},{""stimulus"":""https://ziweizhang0304.github.io/Stats_learning_trig/img/Stim/FN_024_g.png"",""time"":3413.899999976158},{""stimulus"":""blank"",""time"":3734.899999976158},{""stimulus"":""https://ziweizhang0304.github.io/Stats_learning_trig/img/Stim/FN_015_g.png"",""time"":3751.7999999523163},{""stimulus"":""blank"",""time"":4066.7999999523163},{""stimulus"":""https://ziweizhang0304.github.io/Stats_learning_trig/img/Stim/FN_013_g.png"",""time"":4080.399999976158},{""stimulus"":""blank"",""time"":4394.799999952316}]","[{""key_press"":32,""rt"":2399.4000000953674,""stimulus"":""https://ziweizhang0304.github.io/Stats_learning_trig/img/Stim/FN_019_g.png""}]","355.700000166893","https://ziweizhang0304.github.io/Stats_learning_trig/img/Stim/FN_021_g.png","post_TD","22","2043.6999999284744","2399.4000000953674","fast","6","3","5cabc2ee9c7620001214f395","","","","","",""
"","image-keyboard-response","57","181216","0.0-5.0-22.0-0.0","543.7000000476837","","","https://ziweizhang0304.github.io/Stats_learning_trig/img/Stim/FN_012_g.png","13","","","","","","","","","","","","","","","","","",""
"","animation","58","185639","0.0-5.0-22.0-1.0","","","","","","[{""stimulus"":""https://ziweizhang0304.github.io/Stats_learning_trig/img/Stim/FN_013_g.png"",""time"":344.5},{""stimulus"":""blank"",""time"":666.7999999523163},{""stimulus"":""https://ziweizhang0304.github.io/Stats_learning_trig/img/Stim/FN_011_g.png"",""time"":681.2999999523163},{""stimulus"":""blank"",""time"":983.1000000238419},{""stimulus"":""https://ziweizhang0304.github.io/Stats_learning_trig/img/Stim/FN_003_g.png"",""time"":1034},{""stimulus"":""blank"",""time"":1346},{""stimulus"":""https://ziweizhang0304.github.io/Stats_learning_trig/img/Stim/FN_026_g.png"",""time"":1360.5},{""stimulus"":""blank"",""time"":1668.8999999761581},{""stimulus"":""https://ziweizhang0304.github.io/Stats_learning_trig/img/Stim/FN_012_g.png"",""time"":1705.6000000238419},{""stimulus"":""blank"",""time"":2016.7999999523163},{""stimulus"":""https://ziweizhang0304.github.io/Stats_learning_trig/img/Stim/FN_007_g.png"",""time"":2053.2999999523163},{""stimulus"":""blank"",""time"":2354.5},{""stimulus"":""https://ziweizhang0304.github.io/Stats_learning_trig/img/Stim/FN_019_g.png"",""time"":2391.5},{""stimulus"":""blank"",""time"":2692.5},{""stimulus"":""https://ziweizhang0304.github.io/Stats_learning_trig/img/Stim/FN_005_g.png"",""time"":2727},{""stimulus"":""blank"",""time"":3041.5},{""stimulus"":""https://ziweizhang0304.github.io/Stats_learning_trig/img/Stim/FN_006_g.png"",""time"":3067.2999999523163},{""stimulus"":""blank"",""time"":3373.1999999284744},{""stimulus"":""https://ziweizhang0304.github.io/Stats_learning_trig/img/Stim/FN_024_g.png"",""time"":3415.899999976158},{""stimulus"":""blank"",""time"":3716.7999999523163},{""stimulus"":""https://ziweizhang0304.github.io/Stats_learning_trig/img/Stim/FN_015_g.png"",""time"":3755},{""stimulus"":""blank"",""time"":4058.899999976158},{""stimulus"":""https://ziweizhang0304.github.io/Stats_learning_trig/img/Stim/FN_004_g.png"",""time"":4096.899999976158},{""stimulus"":""blank"",""time"":4406.299999952316}]","[{""key_press"":32,""rt"":2111,""stimulus"":""https://ziweizhang0304.github.io/Stats_learning_trig/img/Stim/FN_007_g.png""}]","405.39999997615814","https://ziweizhang0304.github.io/Stats_learning_trig/img/Stim/FN_012_g.png","post_TD","23","1705.6000000238419","2111","slow","5","2","5cabc2ee9c7620001214f395","","","","","",""
"","image-keyboard-response","59","186180","0.0-5.0-23.0-0.0","539.5","","","https://ziweizhang0304.github.io/Stats_learning_trig/img/Stim/FN_007_g.png","13","","","","","","","","","","","","","","","","","",""
"","animation","60","190601","0.0-5.0-23.0-1.0","","","","","","[{""stimulus"":""https://ziweizhang0304.github.io/Stats_learning_trig/img/Stim/FN_013_g.png"",""time"":341.10000002384186},{""stimulus"":""blank"",""time"":641.8999999761581},{""stimulus"":""https://ziweizhang0304.github.io/Stats_learning_trig/img/Stim/FN_024_g.png"",""time"":695.3999999761581},{""stimulus"":""blank"",""time"":998.1999999284744},{""stimulus"":""https://ziweizhang0304.github.io/Stats_learning_trig/img/Stim/FN_006_g.png"",""time"":1036.1000000238419},{""stimulus"":""blank"",""time"":1337.6999999284744},{""stimulus"":""https://ziweizhang0304.github.io/Stats_learning_trig/img/Stim/FN_019_g.png"",""time"":1374.6999999284744},{""stimulus"":""blank"",""time"":1685.3999999761581},{""stimulus"":""https://ziweizhang0304.github.io/Stats_learning_trig/img/Stim/FN_026_g.png"",""time"":1701.3999999761581},{""stimulus"":""blank"",""time"":2016.3999999761581},{""stimulus"":""https://ziweizhang0304.github.io/Stats_learning_trig/img/Stim/FN_012_g.png"",""time"":2054},{""stimulus"":""blank"",""time"":2354.899999976158},{""stimulus"":""https://ziweizhang0304.github.io/Stats_learning_trig/img/Stim/FN_007_g.png"",""time"":2387.5},{""stimulus"":""blank"",""time"":2703.1999999284744},{""stimulus"":""https://ziweizhang0304.github.io/Stats_learning_trig/img/Stim/FN_005_g.png"",""time"":2741.899999976158},{""stimulus"":""blank"",""time"":3049.6999999284744},{""stimulus"":""https://ziweizhang0304.github.io/Stats_learning_trig/img/Stim/FN_011_g.png"",""time"":3066.6999999284744},{""stimulus"":""blank"",""time"":3374.1999999284744},{""stimulus"":""https://ziweizhang0304.github.io/Stats_learning_trig/img/Stim/FN_003_g.png"",""time"":3401.7999999523163},{""stimulus"":""blank"",""time"":3706.6999999284744},{""stimulus"":""https://ziweizhang0304.github.io/Stats_learning_trig/img/Stim/FN_015_g.png"",""time"":3744.399999976158},{""stimulus"":""blank"",""time"":4059.7999999523163},{""stimulus"":""https://ziweizhang0304.github.io/Stats_learning_trig/img/Stim/FN_004_g.png"",""time"":4096.199999928474},{""stimulus"":""blank"",""time"":4406.5}]","[{""key_press"":32,""rt"":2793.6999999284744,""stimulus"":""https://ziweizhang0304.github.io/Stats_learning_trig/img/Stim/FN_005_g.png""}]","406.1999999284744","https://ziweizhang0304.github.io/Stats_learning_trig/img/Stim/FN_007_g.png","post_TD","24","2387.5","2793.6999999284744","slow","7","3","5cabc2ee9c7620001214f395","bd42c","","","","",""
"","survey-text","61","235474","0.0-6.0","44869","","","","","","","","","","","","","","","","","","{""Q0"":""I just took a moment to memorize the image when it was first shown and then kept that image in my head while the images flashed by.""}","","","",""
"","survey-text","62","287791","0.0-7.0","52314.10000002384","","","","","","","","","","","","","","","","","","{""[object Object]"":""It's possible that the images appeared in a set a order, but i'm not sure""}","","","",""
"","instructions","63","295908","0.0-8.0","8117","","[{""page_index"":0,""viewing_time"":8116.700000047684}]","","","","","","","","","","","","","","","","","","","",""
"","free-sort","64","314816","0.0-9.0","18906.900000095367","","","","","","","","","post_drag","","","","fast","","","","","","[{""src"":""https://ziweizhang0304.github.io/Stats_learning_trig/img/Stim/FN_020_g.png"",""x"":475,""y"":0},{""src"":""https://ziweizhang0304.github.io/Stats_learning_trig/img/Stim/FN_023_g.png"",""x"":-225,""y"":50},{""src"":""https://ziweizhang0304.github.io/Stats_learning_trig/img/Stim/FN_021_g.png"",""x"":475,""y"":50}]","[{""src"":""https://ziweizhang0304.github.io/Stats_learning_trig/img/Stim/FN_023_g.png"",""x"":59,""y"":26},{""src"":""https://ziweizhang0304.github.io/Stats_learning_trig/img/Stim/FN_023_g.png"",""x"":112,""y"":26},{""src"":""https://ziweizhang0304.github.io/Stats_learning_trig/img/Stim/FN_021_g.png"",""x"":30,""y"":28},{""src"":""https://ziweizhang0304.github.io/Stats_learning_trig/img/Stim/FN_020_g.png"",""x"":247,""y"":38},{""src"":""https://ziweizhang0304.github.io/Stats_learning_trig/img/Stim/FN_020_g.png"",""x"":209,""y"":34}]","[{""src"":""https://ziweizhang0304.github.io/Stats_learning_trig/img/Stim/FN_020_g.png"",""x"":209,""y"":34},{""src"":""https://ziweizhang0304.github.io/Stats_learning_trig/img/Stim/FN_023_g.png"",""x"":112,""y"":26},{""src"":""https://ziweizhang0304.github.io/Stats_learning_trig/img/Stim/FN_021_g.png"",""x"":30,""y"":28}]",""
"","free-sort","65","320838","0.0-10.0","6021.200000047684","","","","","","","","","post_drag","","","","slow","","","","","","[{""src"":""https://ziweizhang0304.github.io/Stats_learning_trig/img/Stim/FN_007_g.png"",""x"":475,""y"":0},{""src"":""https://ziweizhang0304.github.io/Stats_learning_trig/img/Stim/FN_012_g.png"",""x"":-225,""y"":50},{""src"":""https://ziweizhang0304.github.io/Stats_learning_trig/img/Stim/FN_026_g.png"",""x"":475,""y"":50}]","[{""src"":""https://ziweizhang0304.github.io/Stats_learning_trig/img/Stim/FN_012_g.png"",""x"":34,""y"":23},{""src"":""https://ziweizhang0304.github.io/Stats_learning_trig/img/Stim/FN_026_g.png"",""x"":115,""y"":33},{""src"":""https://ziweizhang0304.github.io/Stats_learning_trig/img/Stim/FN_007_g.png"",""x"":187,""y"":24}]","[{""src"":""https://ziweizhang0304.github.io/Stats_learning_trig/img/Stim/FN_007_g.png"",""x"":187,""y"":24},{""src"":""https://ziweizhang0304.github.io/Stats_learning_trig/img/Stim/FN_012_g.png"",""x"":34,""y"":23},{""src"":""https://ziweizhang0304.github.io/Stats_learning_trig/img/Stim/FN_026_g.png"",""x"":115,""y"":33}]",""
"","survey-multi-choice","66","337249","0.0-11.0","16408.300000071526","","","","","","","","","","","","","","","","5cabc2ee9c7620001214f395","","{""awareness"":""Not sure"",""attention_check"":""Press SPACEBAR to a target""}","","","","[0,1]"
