"success","trial_type","trial_index","time_elapsed","internal_node_id","rt","url","view_history","stimulus","key_press","animation_sequence","response","TD_rt","TD_target","test_part","TD_trial_number","onset","offset","attention_state","TD_target_position","TD_within_triplet_counter","participant","yoke_participant","responses","init_locations","moves","final_locations","question_order"
"true","fullscreen","0","2299","0.0-0.0","","","","","","","","","","","","","","","","","","","","","","",""
"","external-html","1","5643","0.0-1.0","3270.599999964237","https://ziweizhang0304.github.io/Stats_learning_trig/content/consent.html","","","","","","","","","","","","","","","","","","","","",""
"","instructions","2","15603","0.0-2.0","9958.599999964237","","[{""page_index"":0,""viewing_time"":1182},{""page_index"":1,""viewing_time"":1922},{""page_index"":2,""viewing_time"":5890},{""page_index"":3,""viewing_time"":963.8999999761581}]","","","","","","","","","","","","","","","","","","","",""
"","image-keyboard-response","3","20124","0.0-3.0-0.0-0.0","4519.199999988079","","","https://ziweizhang0304.github.io/Stats_learning_trig/img/Stim/FN_018_g.png","13","","","","","","","","","","","","","","","","","",""
"","animation","4","24545","0.0-3.0-0.0-1.0","","","","","","[{""stimulus"":""https://ziweizhang0304.github.io/Stats_learning_trig/img/Stim/FN_004_g.png"",""time"":344.5},{""stimulus"":""blank"",""time"":644.8000000119209},{""stimulus"":""https://ziweizhang0304.github.io/Stats_learning_trig/img/Stim/FN_019_g.png"",""time"":680.5},{""stimulus"":""blank"",""time"":980.6999999880791},{""stimulus"":""https://ziweizhang0304.github.io/Stats_learning_trig/img/Stim/FN_024_g.png"",""time"":1020.5},{""stimulus"":""blank"",""time"":1320.6000000238419},{""stimulus"":""https://ziweizhang0304.github.io/Stats_learning_trig/img/Stim/FN_010_g.png"",""time"":1360.6000000238419},{""stimulus"":""blank"",""time"":1660.699999988079},{""stimulus"":""https://ziweizhang0304.github.io/Stats_learning_trig/img/Stim/FN_018_g.png"",""time"":1700.5},{""stimulus"":""blank"",""time"":2000.699999988079},{""stimulus"":""https://ziweizhang0304.github.io/Stats_learning_trig/img/Stim/FN_017_g.png"",""time"":2040.699999988079},{""stimulus"":""blank"",""time"":2340.800000011921},{""stimulus"":""https://ziweizhang0304.github.io/Stats_learning_trig/img/Stim/FN_022_g.png"",""time"":2380.5},{""stimulus"":""blank"",""time"":2680.699999988079},{""stimulus"":""https://ziweizhang0304.github.io/Stats_learning_trig/img/Stim/FN_002_g.png"",""time"":2720.399999976158},{""stimulus"":""blank"",""time"":3020.600000023842},{""stimulus"":""https://ziweizhang0304.github.io/Stats_learning_trig/img/Stim/FN_020_g.png"",""time"":3060.600000023842},{""stimulus"":""blank"",""time"":3360.800000011921},{""stimulus"":""https://ziweizhang0304.github.io/Stats_learning_trig/img/Stim/FN_023_g.png"",""time"":3400.5},{""stimulus"":""blank"",""time"":3700.800000011921},{""stimulus"":""https://ziweizhang0304.github.io/Stats_learning_trig/img/Stim/FN_011_g.png"",""time"":3740.399999976158},{""stimulus"":""blank"",""time"":4040.800000011921},{""stimulus"":""https://ziweizhang0304.github.io/Stats_learning_trig/img/Stim/FN_008_g.png"",""time"":4080.899999976158},{""stimulus"":""blank"",""time"":4381}]","[{""key_press"":32,""rt"":657.6999999880791,""stimulus"":""blank""},{""key_press"":32,""rt"":2088.7999999523163,""stimulus"":""https://ziweizhang0304.github.io/Stats_learning_trig/img/Stim/FN_017_g.png""}]","388.2999999523163","https://ziweizhang0304.github.io/Stats_learning_trig/img/Stim/FN_018_g.png","post_prac","","","","","","","","","","","","",""
"","html-keyboard-response","5","28611","0.0-3.0-0.0-2.0","4063.699999988079","","","<p>Your reaction time for this trial was 388.3 ms.</p><p>Remember that you should only press the SPACEBAR when you see the shape presented at the beginning of the trial. </b> </p><p>Press enter to move on.</p>","13","","","","","","","","","","","","","","","","","",""
"","image-keyboard-response","6","31123","0.0-3.0-1.0-0.0","2511","","","https://ziweizhang0304.github.io/Stats_learning_trig/img/Stim/FN_023_g.png","13","","","","","","","","","","","","","","","","","",""
"","animation","7","35544","0.0-3.0-1.0-1.0","","","","","","[{""stimulus"":""https://ziweizhang0304.github.io/Stats_learning_trig/img/Stim/FN_004_g.png"",""time"":340.5},{""stimulus"":""blank"",""time"":640.6999999880791},{""stimulus"":""https://ziweizhang0304.github.io/Stats_learning_trig/img/Stim/FN_011_g.png"",""time"":680.3999999761581},{""stimulus"":""blank"",""time"":980.6000000238419},{""stimulus"":""https://ziweizhang0304.github.io/Stats_learning_trig/img/Stim/FN_022_g.png"",""time"":1020.3999999761581},{""stimulus"":""blank"",""time"":1320.6000000238419},{""stimulus"":""https://ziweizhang0304.github.io/Stats_learning_trig/img/Stim/FN_023_g.png"",""time"":1360.3999999761581},{""stimulus"":""blank"",""time"":1660.6000000238419},{""stimulus"":""https://ziweizhang0304.github.io/Stats_learning_trig/img/Stim/FN_018_g.png"",""time"":1700.5},{""stimulus"":""blank"",""time"":2000.6000000238419},{""stimulus"":""https://ziweizhang0304.github.io/Stats_learning_trig/img/Stim/FN_008_g.png"",""time"":2040.800000011921},{""stimulus"":""blank"",""time"":2341},{""stimulus"":""https://ziweizhang0304.github.io/Stats_learning_trig/img/Stim/FN_017_g.png"",""time"":2380.399999976158},{""stimulus"":""blank"",""time"":2680.600000023842},{""stimulus"":""https://ziweizhang0304.github.io/Stats_learning_trig/img/Stim/FN_019_g.png"",""time"":2720.5},{""stimulus"":""blank"",""time"":3020.600000023842},{""stimulus"":""https://ziweizhang0304.github.io/Stats_learning_trig/img/Stim/FN_010_g.png"",""time"":3060.5},{""stimulus"":""blank"",""time"":3360.600000023842},{""stimulus"":""https://ziweizhang0304.github.io/Stats_learning_trig/img/Stim/FN_020_g.png"",""time"":3400.5},{""stimulus"":""blank"",""time"":3700.600000023842},{""stimulus"":""https://ziweizhang0304.github.io/Stats_learning_trig/img/Stim/FN_002_g.png"",""time"":3740.5},{""stimulus"":""blank"",""time"":4040.800000011921},{""stimulus"":""https://ziweizhang0304.github.io/Stats_learning_trig/img/Stim/FN_024_g.png"",""time"":4080.699999988079},{""stimulus"":""blank"",""time"":4380.899999976158}]","[{""key_press"":32,""rt"":1771.0999999642372,""stimulus"":""https://ziweizhang0304.github.io/Stats_learning_trig/img/Stim/FN_018_g.png""}]","410.69999998807907","https://ziweizhang0304.github.io/Stats_learning_trig/img/Stim/FN_023_g.png","post_prac","","","","","","","","","","","","",""
"","html-keyboard-response","8","37491","0.0-3.0-1.0-2.0","1945.7999999523163","","","<p>Your reaction time for this trial was 410.7 ms.</p><p>Remember that you should only press the SPACEBAR when you see the shape presented at the beginning of the trial. </b> </p><p>Press enter to move on.</p>","13","","","","","","","","","","","","","","","","","",""
"","image-keyboard-response","9","39594","0.0-3.0-2.0-0.0","2102.300000011921","","","https://ziweizhang0304.github.io/Stats_learning_trig/img/Stim/FN_018_g.png","13","","","","","","","","","","","","","","","","","",""
"","animation","10","44015","0.0-3.0-2.0-1.0","","","","","","[{""stimulus"":""https://ziweizhang0304.github.io/Stats_learning_trig/img/Stim/FN_010_g.png"",""time"":340.5},{""stimulus"":""blank"",""time"":640.7000000476837},{""stimulus"":""https://ziweizhang0304.github.io/Stats_learning_trig/img/Stim/FN_011_g.png"",""time"":680.5},{""stimulus"":""blank"",""time"":980.7000000476837},{""stimulus"":""https://ziweizhang0304.github.io/Stats_learning_trig/img/Stim/FN_002_g.png"",""time"":1020.4000000357628},{""stimulus"":""blank"",""time"":1320.6000000238419},{""stimulus"":""https://ziweizhang0304.github.io/Stats_learning_trig/img/Stim/FN_022_g.png"",""time"":1360.5},{""stimulus"":""blank"",""time"":1660.6000000238419},{""stimulus"":""https://ziweizhang0304.github.io/Stats_learning_trig/img/Stim/FN_019_g.png"",""time"":1700.5},{""stimulus"":""blank"",""time"":2000.5},{""stimulus"":""https://ziweizhang0304.github.io/Stats_learning_trig/img/Stim/FN_023_g.png"",""time"":2040.5},{""stimulus"":""blank"",""time"":2340.600000023842},{""stimulus"":""https://ziweizhang0304.github.io/Stats_learning_trig/img/Stim/FN_018_g.png"",""time"":2380.400000035763},{""stimulus"":""blank"",""time"":2680.600000023842},{""stimulus"":""https://ziweizhang0304.github.io/Stats_learning_trig/img/Stim/FN_008_g.png"",""time"":2720.5},{""stimulus"":""blank"",""time"":3020.600000023842},{""stimulus"":""https://ziweizhang0304.github.io/Stats_learning_trig/img/Stim/FN_017_g.png"",""time"":3060.400000035763},{""stimulus"":""blank"",""time"":3360.5},{""stimulus"":""https://ziweizhang0304.github.io/Stats_learning_trig/img/Stim/FN_020_g.png"",""time"":3400.5},{""stimulus"":""blank"",""time"":3700.600000023842},{""stimulus"":""https://ziweizhang0304.github.io/Stats_learning_trig/img/Stim/FN_004_g.png"",""time"":3740.400000035763},{""stimulus"":""blank"",""time"":4040.5},{""stimulus"":""https://ziweizhang0304.github.io/Stats_learning_trig/img/Stim/FN_024_g.png"",""time"":4080.5},{""stimulus"":""blank"",""time"":4380.5}]","[{""key_press"":32,""rt"":2755.600000023842,""stimulus"":""https://ziweizhang0304.github.io/Stats_learning_trig/img/Stim/FN_008_g.png""}]","375.19999998807907","https://ziweizhang0304.github.io/Stats_learning_trig/img/Stim/FN_018_g.png","post_prac","","","","","","","","","","","","",""
"","html-keyboard-response","11","45772","0.0-3.0-2.0-2.0","1755.800000011921","","","<p>Your reaction time for this trial was 375.2 ms.</p><p>Remember that you should only press the SPACEBAR when you see the shape presented at the beginning of the trial. </b> </p><p>Press enter to move on.</p>","13","","","","","","","","","","","","","","","","","",""
"","instructions","12","48259","0.0-4.0","2486.899999976158","","[{""page_index"":0,""viewing_time"":2486.699999988079}]","","","","","","","","","","","","","","","","","","","",""
"","image-keyboard-response","13","50100","0.0-5.0-0.0-0.0","1840.199999988079","","","https://ziweizhang0304.github.io/Stats_learning_trig/img/Stim/FN_026_g.png","13","","","","","","","","","","","","","","","","","",""
"","animation","14","54521","0.0-5.0-0.0-1.0","","","","","","[{""stimulus"":""https://ziweizhang0304.github.io/Stats_learning_trig/img/Stim/FN_017_g.png"",""time"":340.5999999642372},{""stimulus"":""blank"",""time"":640.8000000119209},{""stimulus"":""https://ziweizhang0304.github.io/Stats_learning_trig/img/Stim/FN_002_g.png"",""time"":680.3999999761581},{""stimulus"":""blank"",""time"":980.5999999642372},{""stimulus"":""https://ziweizhang0304.github.io/Stats_learning_trig/img/Stim/FN_011_g.png"",""time"":1020.3999999761581},{""stimulus"":""blank"",""time"":1320.5999999642372},{""stimulus"":""https://ziweizhang0304.github.io/Stats_learning_trig/img/Stim/FN_020_g.png"",""time"":1360.3999999761581},{""stimulus"":""blank"",""time"":1660.5},{""stimulus"":""https://ziweizhang0304.github.io/Stats_learning_trig/img/Stim/FN_022_g.png"",""time"":1700.5},{""stimulus"":""blank"",""time"":2000.5999999642372},{""stimulus"":""https://ziweizhang0304.github.io/Stats_learning_trig/img/Stim/FN_004_g.png"",""time"":2040.3999999761581},{""stimulus"":""blank"",""time"":2340.5},{""stimulus"":""https://ziweizhang0304.github.io/Stats_learning_trig/img/Stim/FN_026_g.png"",""time"":2380.399999976158},{""stimulus"":""blank"",""time"":2680.599999964237},{""stimulus"":""https://ziweizhang0304.github.io/Stats_learning_trig/img/Stim/FN_012_g.png"",""time"":2720.5},{""stimulus"":""blank"",""time"":3020.699999988079},{""stimulus"":""https://ziweizhang0304.github.io/Stats_learning_trig/img/Stim/FN_015_g.png"",""time"":3060.399999976158},{""stimulus"":""blank"",""time"":3360.599999964237},{""stimulus"":""https://ziweizhang0304.github.io/Stats_learning_trig/img/Stim/FN_019_g.png"",""time"":3400.599999964237},{""stimulus"":""blank"",""time"":3700.699999988079},{""stimulus"":""https://ziweizhang0304.github.io/Stats_learning_trig/img/Stim/FN_010_g.png"",""time"":3740.399999976158},{""stimulus"":""blank"",""time"":4040.599999964237},{""stimulus"":""https://ziweizhang0304.github.io/Stats_learning_trig/img/Stim/FN_024_g.png"",""time"":4080.5},{""stimulus"":""blank"",""time"":4380.599999964237}]","[{""key_press"":32,""rt"":2764.300000011921,""stimulus"":""https://ziweizhang0304.github.io/Stats_learning_trig/img/Stim/FN_012_g.png""}]","383.9000000357628","https://ziweizhang0304.github.io/Stats_learning_trig/img/Stim/FN_026_g.png","post_TD","1","2380.399999976158","2764.300000011921","fast","7","1","5ec62902bb44c16b842128f9","","","","","",""
"","image-keyboard-response","15","57363","0.0-5.0-1.0-0.0","2840.199999988079","","","https://ziweizhang0304.github.io/Stats_learning_trig/img/Stim/FN_026_g.png","13","","","","","","","","","","","","","","","","","",""
"","animation","16","61784","0.0-5.0-1.0-1.0","","","","","","[{""stimulus"":""https://ziweizhang0304.github.io/Stats_learning_trig/img/Stim/FN_024_g.png"",""time"":340.5999999642372},{""stimulus"":""blank"",""time"":640.6999999880791},{""stimulus"":""https://ziweizhang0304.github.io/Stats_learning_trig/img/Stim/FN_017_g.png"",""time"":680.3999999761581},{""stimulus"":""blank"",""time"":980.5},{""stimulus"":""https://ziweizhang0304.github.io/Stats_learning_trig/img/Stim/FN_010_g.png"",""time"":1020.5},{""stimulus"":""blank"",""time"":1320.699999988079},{""stimulus"":""https://ziweizhang0304.github.io/Stats_learning_trig/img/Stim/FN_002_g.png"",""time"":1360.5},{""stimulus"":""blank"",""time"":1660.5999999642372},{""stimulus"":""https://ziweizhang0304.github.io/Stats_learning_trig/img/Stim/FN_011_g.png"",""time"":1700.3999999761581},{""stimulus"":""blank"",""time"":2000.5999999642372},{""stimulus"":""https://ziweizhang0304.github.io/Stats_learning_trig/img/Stim/FN_026_g.png"",""time"":2040.699999988079},{""stimulus"":""blank"",""time"":2340.899999976158},{""stimulus"":""https://ziweizhang0304.github.io/Stats_learning_trig/img/Stim/FN_012_g.png"",""time"":2380.399999976158},{""stimulus"":""blank"",""time"":2680.599999964237},{""stimulus"":""https://ziweizhang0304.github.io/Stats_learning_trig/img/Stim/FN_015_g.png"",""time"":2720.5},{""stimulus"":""blank"",""time"":3020.7999999523163},{""stimulus"":""https://ziweizhang0304.github.io/Stats_learning_trig/img/Stim/FN_019_g.png"",""time"":3060.399999976158},{""stimulus"":""blank"",""time"":3360.599999964237},{""stimulus"":""https://ziweizhang0304.github.io/Stats_learning_trig/img/Stim/FN_020_g.png"",""time"":3400.399999976158},{""stimulus"":""blank"",""time"":3700.5},{""stimulus"":""https://ziweizhang0304.github.io/Stats_learning_trig/img/Stim/FN_004_g.png"",""time"":3740.399999976158},{""stimulus"":""blank"",""time"":4040.5},{""stimulus"":""https://ziweizhang0304.github.io/Stats_learning_trig/img/Stim/FN_022_g.png"",""time"":4080.399999976158},{""stimulus"":""blank"",""time"":4380.5}]","[{""key_press"":32,""rt"":2407.399999976158,""stimulus"":""https://ziweizhang0304.github.io/Stats_learning_trig/img/Stim/FN_012_g.png""}]","366.69999998807907","https://ziweizhang0304.github.io/Stats_learning_trig/img/Stim/FN_026_g.png","post_TD","2","2040.699999988079","2407.399999976158","fast","6","1","5ec62902bb44c16b842128f9","","","","","",""
"","image-keyboard-response","17","62505","0.0-5.0-2.0-0.0","720.1999999880791","","","https://ziweizhang0304.github.io/Stats_learning_trig/img/Stim/FN_023_g.png","13","","","","","","","","","","","","","","","","","",""
"","animation","18","66926","0.0-5.0-2.0-1.0","","","","","","[{""stimulus"":""https://ziweizhang0304.github.io/Stats_learning_trig/img/Stim/FN_010_g.png"",""time"":340.5},{""stimulus"":""blank"",""time"":640.5999999642372},{""stimulus"":""https://ziweizhang0304.github.io/Stats_learning_trig/img/Stim/FN_011_g.png"",""time"":680.5},{""stimulus"":""blank"",""time"":980.5999999642372},{""stimulus"":""https://ziweizhang0304.github.io/Stats_learning_trig/img/Stim/FN_002_g.png"",""time"":1020.5},{""stimulus"":""blank"",""time"":1320.5999999642372},{""stimulus"":""https://ziweizhang0304.github.io/Stats_learning_trig/img/Stim/FN_022_g.png"",""time"":1360.3999999761581},{""stimulus"":""blank"",""time"":1660.5},{""stimulus"":""https://ziweizhang0304.github.io/Stats_learning_trig/img/Stim/FN_019_g.png"",""time"":1700.5},{""stimulus"":""blank"",""time"":2000.699999988079},{""stimulus"":""https://ziweizhang0304.github.io/Stats_learning_trig/img/Stim/FN_023_g.png"",""time"":2040.3999999761581},{""stimulus"":""blank"",""time"":2340.599999964237},{""stimulus"":""https://ziweizhang0304.github.io/Stats_learning_trig/img/Stim/FN_018_g.png"",""time"":2380.5},{""stimulus"":""blank"",""time"":2680.599999964237},{""stimulus"":""https://ziweizhang0304.github.io/Stats_learning_trig/img/Stim/FN_008_g.png"",""time"":2720.399999976158},{""stimulus"":""blank"",""time"":3020.599999964237},{""stimulus"":""https://ziweizhang0304.github.io/Stats_learning_trig/img/Stim/FN_017_g.png"",""time"":3060.399999976158},{""stimulus"":""blank"",""time"":3360.5},{""stimulus"":""https://ziweizhang0304.github.io/Stats_learning_trig/img/Stim/FN_020_g.png"",""time"":3400.399999976158},{""stimulus"":""blank"",""time"":3700.599999964237},{""stimulus"":""https://ziweizhang0304.github.io/Stats_learning_trig/img/Stim/FN_004_g.png"",""time"":3740.5},{""stimulus"":""blank"",""time"":4040.599999964237},{""stimulus"":""https://ziweizhang0304.github.io/Stats_learning_trig/img/Stim/FN_024_g.png"",""time"":4080.5},{""stimulus"":""blank"",""time"":4380.699999988079}]","[{""key_press"":32,""rt"":1051.7999999523163,""stimulus"":""https://ziweizhang0304.github.io/Stats_learning_trig/img/Stim/FN_002_g.png""},{""key_press"":32,""rt"":2675.399999976158,""stimulus"":""https://ziweizhang0304.github.io/Stats_learning_trig/img/Stim/FN_018_g.png""}]","635","https://ziweizhang0304.github.io/Stats_learning_trig/img/Stim/FN_023_g.png","post_TD","3","2040.3999999761581","2675.399999976158","slow","6","1","5ec62902bb44c16b842128f9","","","","","",""
"","image-keyboard-response","19","69139","0.0-5.0-3.0-0.0","2212.199999988079","","","https://ziweizhang0304.github.io/Stats_learning_trig/img/Stim/FN_015_g.png","13","","","","","","","","","","","","","","","","","",""
"","animation","20","73560","0.0-5.0-3.0-1.0","","","","","","[{""stimulus"":""https://ziweizhang0304.github.io/Stats_learning_trig/img/Stim/FN_020_g.png"",""time"":340.5999999642372},{""stimulus"":""blank"",""time"":640.7999999523163},{""stimulus"":""https://ziweizhang0304.github.io/Stats_learning_trig/img/Stim/FN_002_g.png"",""time"":680.5},{""stimulus"":""blank"",""time"":980.7999999523163},{""stimulus"":""https://ziweizhang0304.github.io/Stats_learning_trig/img/Stim/FN_024_g.png"",""time"":1020.5},{""stimulus"":""blank"",""time"":1320.5999999642372},{""stimulus"":""https://ziweizhang0304.github.io/Stats_learning_trig/img/Stim/FN_004_g.png"",""time"":1360.5999999642372},{""stimulus"":""blank"",""time"":1660.7999999523163},{""stimulus"":""https://ziweizhang0304.github.io/Stats_learning_trig/img/Stim/FN_026_g.png"",""time"":1700.5999999642372},{""stimulus"":""blank"",""time"":2000.699999988079},{""stimulus"":""https://ziweizhang0304.github.io/Stats_learning_trig/img/Stim/FN_012_g.png"",""time"":2040.5},{""stimulus"":""blank"",""time"":2340.7999999523163},{""stimulus"":""https://ziweizhang0304.github.io/Stats_learning_trig/img/Stim/FN_015_g.png"",""time"":2380.399999976158},{""stimulus"":""blank"",""time"":2680.599999964237},{""stimulus"":""https://ziweizhang0304.github.io/Stats_learning_trig/img/Stim/FN_017_g.png"",""time"":2720.5},{""stimulus"":""blank"",""time"":3020.599999964237},{""stimulus"":""https://ziweizhang0304.github.io/Stats_learning_trig/img/Stim/FN_019_g.png"",""time"":3060.599999964237},{""stimulus"":""blank"",""time"":3360.899999976158},{""stimulus"":""https://ziweizhang0304.github.io/Stats_learning_trig/img/Stim/FN_010_g.png"",""time"":3400.599999964237},{""stimulus"":""blank"",""time"":3700.7999999523163},{""stimulus"":""https://ziweizhang0304.github.io/Stats_learning_trig/img/Stim/FN_022_g.png"",""time"":3740.399999976158},{""stimulus"":""blank"",""time"":4040.599999964237},{""stimulus"":""https://ziweizhang0304.github.io/Stats_learning_trig/img/Stim/FN_011_g.png"",""time"":4080.399999976158},{""stimulus"":""blank"",""time"":4380.599999964237}]","[{""key_press"":32,""rt"":2748.300000011921,""stimulus"":""https://ziweizhang0304.github.io/Stats_learning_trig/img/Stim/FN_017_g.png""}]","367.9000000357628","https://ziweizhang0304.github.io/Stats_learning_trig/img/Stim/FN_015_g.png","post_TD","4","2380.399999976158","2748.300000011921","fast","7","3","5ec62902bb44c16b842128f9","","","","","",""
"","image-keyboard-response","21","74191","0.0-5.0-4.0-0.0","629.5","","","https://ziweizhang0304.github.io/Stats_learning_trig/img/Stim/FN_008_g.png","13","","","","","","","","","","","","","","","","","",""
"","animation","22","78611","0.0-5.0-4.0-1.0","","","","","","[{""stimulus"":""https://ziweizhang0304.github.io/Stats_learning_trig/img/Stim/FN_004_g.png"",""time"":340.69999998807907},{""stimulus"":""blank"",""time"":640.8999999761581},{""stimulus"":""https://ziweizhang0304.github.io/Stats_learning_trig/img/Stim/FN_011_g.png"",""time"":680.6999999880791},{""stimulus"":""blank"",""time"":980.8000000119209},{""stimulus"":""https://ziweizhang0304.github.io/Stats_learning_trig/img/Stim/FN_022_g.png"",""time"":1020.6000000238419},{""stimulus"":""blank"",""time"":1320.800000011921},{""stimulus"":""https://ziweizhang0304.github.io/Stats_learning_trig/img/Stim/FN_023_g.png"",""time"":1360.6000000238419},{""stimulus"":""blank"",""time"":1660.699999988079},{""stimulus"":""https://ziweizhang0304.github.io/Stats_learning_trig/img/Stim/FN_018_g.png"",""time"":1700.5},{""stimulus"":""blank"",""time"":2000.699999988079},{""stimulus"":""https://ziweizhang0304.github.io/Stats_learning_trig/img/Stim/FN_008_g.png"",""time"":2040.6000000238419},{""stimulus"":""blank"",""time"":2340.800000011921},{""stimulus"":""https://ziweizhang0304.github.io/Stats_learning_trig/img/Stim/FN_017_g.png"",""time"":2380.600000023842},{""stimulus"":""blank"",""time"":2680.899999976158},{""stimulus"":""https://ziweizhang0304.github.io/Stats_learning_trig/img/Stim/FN_019_g.png"",""time"":2720.800000011921},{""stimulus"":""blank"",""time"":3020.899999976158},{""stimulus"":""https://ziweizhang0304.github.io/Stats_learning_trig/img/Stim/FN_010_g.png"",""time"":3060.600000023842},{""stimulus"":""blank"",""time"":3360.800000011921},{""stimulus"":""https://ziweizhang0304.github.io/Stats_learning_trig/img/Stim/FN_020_g.png"",""time"":3400.600000023842},{""stimulus"":""blank"",""time"":3700.699999988079},{""stimulus"":""https://ziweizhang0304.github.io/Stats_learning_trig/img/Stim/FN_002_g.png"",""time"":3740.600000023842},{""stimulus"":""blank"",""time"":4040.699999988079},{""stimulus"":""https://ziweizhang0304.github.io/Stats_learning_trig/img/Stim/FN_024_g.png"",""time"":4080.600000023842},{""stimulus"":""blank"",""time"":4380.800000011921}]","[{""key_press"":32,""rt"":2351.699999988079,""stimulus"":""blank""}]","311.0999999642372","https://ziweizhang0304.github.io/Stats_learning_trig/img/Stim/FN_008_g.png","post_TD","5","2040.6000000238419","2351.699999988079","slow","6","3","5ec62902bb44c16b842128f9","","","","","",""
"","image-keyboard-response","23","78960","0.0-5.0-5.0-0.0","346.89999997615814","","","https://ziweizhang0304.github.io/Stats_learning_trig/img/Stim/FN_008_g.png","13","","","","","","","","","","","","","","","","","",""
"","animation","24","83380","0.0-5.0-5.0-1.0","","","","","","[{""stimulus"":""https://ziweizhang0304.github.io/Stats_learning_trig/img/Stim/FN_024_g.png"",""time"":340.60000002384186},{""stimulus"":""blank"",""time"":640.6999999880791},{""stimulus"":""https://ziweizhang0304.github.io/Stats_learning_trig/img/Stim/FN_022_g.png"",""time"":680.5},{""stimulus"":""blank"",""time"":980.6000000238419},{""stimulus"":""https://ziweizhang0304.github.io/Stats_learning_trig/img/Stim/FN_002_g.png"",""time"":1020.5},{""stimulus"":""blank"",""time"":1320.699999988079},{""stimulus"":""https://ziweizhang0304.github.io/Stats_learning_trig/img/Stim/FN_004_g.png"",""time"":1360.5},{""stimulus"":""blank"",""time"":1660.699999988079},{""stimulus"":""https://ziweizhang0304.github.io/Stats_learning_trig/img/Stim/FN_023_g.png"",""time"":1700.5},{""stimulus"":""blank"",""time"":2000.699999988079},{""stimulus"":""https://ziweizhang0304.github.io/Stats_learning_trig/img/Stim/FN_018_g.png"",""time"":2040.800000011921},{""stimulus"":""blank"",""time"":2340.900000035763},{""stimulus"":""https://ziweizhang0304.github.io/Stats_learning_trig/img/Stim/FN_008_g.png"",""time"":2380.5},{""stimulus"":""blank"",""time"":2680.600000023842},{""stimulus"":""https://ziweizhang0304.github.io/Stats_learning_trig/img/Stim/FN_017_g.png"",""time"":2720.5},{""stimulus"":""blank"",""time"":3020.600000023842},{""stimulus"":""https://ziweizhang0304.github.io/Stats_learning_trig/img/Stim/FN_019_g.png"",""time"":3060.5},{""stimulus"":""blank"",""time"":3360.699999988079},{""stimulus"":""https://ziweizhang0304.github.io/Stats_learning_trig/img/Stim/FN_010_g.png"",""time"":3400.5},{""stimulus"":""blank"",""time"":3700.699999988079},{""stimulus"":""https://ziweizhang0304.github.io/Stats_learning_trig/img/Stim/FN_020_g.png"",""time"":3740.400000035763},{""stimulus"":""blank"",""time"":4040.600000023842},{""stimulus"":""https://ziweizhang0304.github.io/Stats_learning_trig/img/Stim/FN_011_g.png"",""time"":4080.400000035763},{""stimulus"":""blank"",""time"":4380.600000023842}]","[{""key_press"":32,""rt"":2332.5,""stimulus"":""https://ziweizhang0304.github.io/Stats_learning_trig/img/Stim/FN_018_g.png""}]","NaN","https://ziweizhang0304.github.io/Stats_learning_trig/img/Stim/FN_008_g.png","post_TD","6","2380.5","","slow","7","3","5ec62902bb44c16b842128f9","","","","","",""
"","image-keyboard-response","25","84688","0.0-5.0-6.0-0.0","1306.4000000357628","","","https://ziweizhang0304.github.io/Stats_learning_trig/img/Stim/FN_023_g.png","13","","","","","","","","","","","","","","","","","",""
"","animation","26","89109","0.0-5.0-6.0-1.0","","","","","","[{""stimulus"":""https://ziweizhang0304.github.io/Stats_learning_trig/img/Stim/FN_017_g.png"",""time"":340.69999998807907},{""stimulus"":""blank"",""time"":641},{""stimulus"":""https://ziweizhang0304.github.io/Stats_learning_trig/img/Stim/FN_002_g.png"",""time"":680.5},{""stimulus"":""blank"",""time"":980.6999999880791},{""stimulus"":""https://ziweizhang0304.github.io/Stats_learning_trig/img/Stim/FN_022_g.png"",""time"":1020.5999999642372},{""stimulus"":""blank"",""time"":1320.7999999523163},{""stimulus"":""https://ziweizhang0304.github.io/Stats_learning_trig/img/Stim/FN_019_g.png"",""time"":1360.5},{""stimulus"":""blank"",""time"":1660.5999999642372},{""stimulus"":""https://ziweizhang0304.github.io/Stats_learning_trig/img/Stim/FN_024_g.png"",""time"":1700.5},{""stimulus"":""blank"",""time"":2000.699999988079},{""stimulus"":""https://ziweizhang0304.github.io/Stats_learning_trig/img/Stim/FN_011_g.png"",""time"":2040.5},{""stimulus"":""blank"",""time"":2340.7999999523163},{""stimulus"":""https://ziweizhang0304.github.io/Stats_learning_trig/img/Stim/FN_023_g.png"",""time"":2380.5},{""stimulus"":""blank"",""time"":2680.599999964237},{""stimulus"":""https://ziweizhang0304.github.io/Stats_learning_trig/img/Stim/FN_018_g.png"",""time"":2720.5},{""stimulus"":""blank"",""time"":3020.7999999523163},{""stimulus"":""https://ziweizhang0304.github.io/Stats_learning_trig/img/Stim/FN_008_g.png"",""time"":3060.699999988079},{""stimulus"":""blank"",""time"":3360.7999999523163},{""stimulus"":""https://ziweizhang0304.github.io/Stats_learning_trig/img/Stim/FN_010_g.png"",""time"":3400.5},{""stimulus"":""blank"",""time"":3700.599999964237},{""stimulus"":""https://ziweizhang0304.github.io/Stats_learning_trig/img/Stim/FN_020_g.png"",""time"":3740.5},{""stimulus"":""blank"",""time"":4040.7999999523163},{""stimulus"":""https://ziweizhang0304.github.io/Stats_learning_trig/img/Stim/FN_004_g.png"",""time"":4080.5},{""stimulus"":""blank"",""time"":4380.599999964237}]","[{""key_press"":32,""rt"":2779,""stimulus"":""https://ziweizhang0304.github.io/Stats_learning_trig/img/Stim/FN_018_g.png""}]","398.5","https://ziweizhang0304.github.io/Stats_learning_trig/img/Stim/FN_023_g.png","post_TD","7","2380.5","2779","slow","7","1","5ec62902bb44c16b842128f9","","","","","",""
"","image-keyboard-response","27","90711","0.0-5.0-7.0-0.0","1600.7999999523163","","","https://ziweizhang0304.github.io/Stats_learning_trig/img/Stim/FN_012_g.png","13","","","","","","","","","","","","","","","","","",""
"","animation","28","95132","0.0-5.0-7.0-1.0","","","","","","[{""stimulus"":""https://ziweizhang0304.github.io/Stats_learning_trig/img/Stim/FN_017_g.png"",""time"":340.69999998807907},{""stimulus"":""blank"",""time"":640.8000000119209},{""stimulus"":""https://ziweizhang0304.github.io/Stats_learning_trig/img/Stim/FN_002_g.png"",""time"":680.6999999880791},{""stimulus"":""blank"",""time"":980.8000000119209},{""stimulus"":""https://ziweizhang0304.github.io/Stats_learning_trig/img/Stim/FN_011_g.png"",""time"":1020.5},{""stimulus"":""blank"",""time"":1320.5999999642372},{""stimulus"":""https://ziweizhang0304.github.io/Stats_learning_trig/img/Stim/FN_020_g.png"",""time"":1360.5999999642372},{""stimulus"":""blank"",""time"":1660.699999988079},{""stimulus"":""https://ziweizhang0304.github.io/Stats_learning_trig/img/Stim/FN_022_g.png"",""time"":1700.699999988079},{""stimulus"":""blank"",""time"":2000.800000011921},{""stimulus"":""https://ziweizhang0304.github.io/Stats_learning_trig/img/Stim/FN_004_g.png"",""time"":2040.5},{""stimulus"":""blank"",""time"":2340.699999988079},{""stimulus"":""https://ziweizhang0304.github.io/Stats_learning_trig/img/Stim/FN_026_g.png"",""time"":2380.599999964237},{""stimulus"":""blank"",""time"":2680.699999988079},{""stimulus"":""https://ziweizhang0304.github.io/Stats_learning_trig/img/Stim/FN_012_g.png"",""time"":2720.699999988079},{""stimulus"":""blank"",""time"":3020.699999988079},{""stimulus"":""https://ziweizhang0304.github.io/Stats_learning_trig/img/Stim/FN_015_g.png"",""time"":3060.599999964237},{""stimulus"":""blank"",""time"":3360.699999988079},{""stimulus"":""https://ziweizhang0304.github.io/Stats_learning_trig/img/Stim/FN_019_g.png"",""time"":3400.599999964237},{""stimulus"":""blank"",""time"":3700.699999988079},{""stimulus"":""https://ziweizhang0304.github.io/Stats_learning_trig/img/Stim/FN_010_g.png"",""time"":3740.599999964237},{""stimulus"":""blank"",""time"":4040.699999988079},{""stimulus"":""https://ziweizhang0304.github.io/Stats_learning_trig/img/Stim/FN_024_g.png"",""time"":4080.699999988079},{""stimulus"":""blank"",""time"":4380.800000011921}]","[{""key_press"":32,""rt"":3017.400000035763,""stimulus"":""https://ziweizhang0304.github.io/Stats_learning_trig/img/Stim/FN_012_g.png""}]","296.7000000476837","https://ziweizhang0304.github.io/Stats_learning_trig/img/Stim/FN_012_g.png","post_TD","8","2720.699999988079","3017.400000035763","fast","8","2","5ec62902bb44c16b842128f9","","","","","",""
"","image-keyboard-response","29","95937","0.0-5.0-8.0-0.0","804.1000000238419","","","https://ziweizhang0304.github.io/Stats_learning_trig/img/Stim/FN_023_g.png","13","","","","","","","","","","","","","","","","","",""
"","animation","30","100358","0.0-5.0-8.0-1.0","","","","","","[{""stimulus"":""https://ziweizhang0304.github.io/Stats_learning_trig/img/Stim/FN_004_g.png"",""time"":340.60000002384186},{""stimulus"":""blank"",""time"":640.8000000119209},{""stimulus"":""https://ziweizhang0304.github.io/Stats_learning_trig/img/Stim/FN_011_g.png"",""time"":680.5},{""stimulus"":""blank"",""time"":980.6999999880791},{""stimulus"":""https://ziweizhang0304.github.io/Stats_learning_trig/img/Stim/FN_022_g.png"",""time"":1020.6000000238419},{""stimulus"":""blank"",""time"":1320.6000000238419},{""stimulus"":""https://ziweizhang0304.github.io/Stats_learning_trig/img/Stim/FN_023_g.png"",""time"":1360.3999999761581},{""stimulus"":""blank"",""time"":1660.6000000238419},{""stimulus"":""https://ziweizhang0304.github.io/Stats_learning_trig/img/Stim/FN_018_g.png"",""time"":1700.5},{""stimulus"":""blank"",""time"":2000.6000000238419},{""stimulus"":""https://ziweizhang0304.github.io/Stats_learning_trig/img/Stim/FN_008_g.png"",""time"":2040.5},{""stimulus"":""blank"",""time"":2340.600000023842},{""stimulus"":""https://ziweizhang0304.github.io/Stats_learning_trig/img/Stim/FN_017_g.png"",""time"":2380.5},{""stimulus"":""blank"",""time"":2680.699999988079},{""stimulus"":""https://ziweizhang0304.github.io/Stats_learning_trig/img/Stim/FN_019_g.png"",""time"":2720.5},{""stimulus"":""blank"",""time"":3020.600000023842},{""stimulus"":""https://ziweizhang0304.github.io/Stats_learning_trig/img/Stim/FN_010_g.png"",""time"":3060.699999988079},{""stimulus"":""blank"",""time"":3360.800000011921},{""stimulus"":""https://ziweizhang0304.github.io/Stats_learning_trig/img/Stim/FN_020_g.png"",""time"":3400.5},{""stimulus"":""blank"",""time"":3700.600000023842},{""stimulus"":""https://ziweizhang0304.github.io/Stats_learning_trig/img/Stim/FN_002_g.png"",""time"":3740.5},{""stimulus"":""blank"",""time"":4040.699999988079},{""stimulus"":""https://ziweizhang0304.github.io/Stats_learning_trig/img/Stim/FN_024_g.png"",""time"":4080.5},{""stimulus"":""blank"",""time"":4380.600000023842}]","[{""key_press"":32,""rt"":2009.0999999642372,""stimulus"":""blank""}]","648.6999999880791","https://ziweizhang0304.github.io/Stats_learning_trig/img/Stim/FN_023_g.png","post_TD","9","1360.3999999761581","2009.0999999642372","slow","4","1","5ec62902bb44c16b842128f9","","","","","",""
"","image-keyboard-response","31","104739","0.0-5.0-9.0-0.0","4379.800000011921","","","https://ziweizhang0304.github.io/Stats_learning_trig/img/Stim/FN_026_g.png","13","","","","","","","","","","","","","","","","","",""
"","animation","32","109159","0.0-5.0-9.0-1.0","","","","","","[{""stimulus"":""https://ziweizhang0304.github.io/Stats_learning_trig/img/Stim/FN_020_g.png"",""time"":340.5},{""stimulus"":""blank"",""time"":640.7000000476837},{""stimulus"":""https://ziweizhang0304.github.io/Stats_learning_trig/img/Stim/FN_002_g.png"",""time"":680.5},{""stimulus"":""blank"",""time"":980.6000000238419},{""stimulus"":""https://ziweizhang0304.github.io/Stats_learning_trig/img/Stim/FN_024_g.png"",""time"":1020.4000000357628},{""stimulus"":""blank"",""time"":1320.5},{""stimulus"":""https://ziweizhang0304.github.io/Stats_learning_trig/img/Stim/FN_004_g.png"",""time"":1360.4000000357628},{""stimulus"":""blank"",""time"":1660.6000000238419},{""stimulus"":""https://ziweizhang0304.github.io/Stats_learning_trig/img/Stim/FN_026_g.png"",""time"":1700.300000011921},{""stimulus"":""blank"",""time"":2000.5},{""stimulus"":""https://ziweizhang0304.github.io/Stats_learning_trig/img/Stim/FN_012_g.png"",""time"":2040.300000011921},{""stimulus"":""blank"",""time"":2340.5},{""stimulus"":""https://ziweizhang0304.github.io/Stats_learning_trig/img/Stim/FN_015_g.png"",""time"":2380.400000035763},{""stimulus"":""blank"",""time"":2680.600000023842},{""stimulus"":""https://ziweizhang0304.github.io/Stats_learning_trig/img/Stim/FN_017_g.png"",""time"":2720.400000035763},{""stimulus"":""blank"",""time"":3020.600000023842},{""stimulus"":""https://ziweizhang0304.github.io/Stats_learning_trig/img/Stim/FN_019_g.png"",""time"":3060.300000011921},{""stimulus"":""blank"",""time"":3360.400000035763},{""stimulus"":""https://ziweizhang0304.github.io/Stats_learning_trig/img/Stim/FN_010_g.png"",""time"":3400.300000011921},{""stimulus"":""blank"",""time"":3700.600000023842},{""stimulus"":""https://ziweizhang0304.github.io/Stats_learning_trig/img/Stim/FN_022_g.png"",""time"":3740.400000035763},{""stimulus"":""blank"",""time"":4040.600000023842},{""stimulus"":""https://ziweizhang0304.github.io/Stats_learning_trig/img/Stim/FN_011_g.png"",""time"":4080.400000035763},{""stimulus"":""blank"",""time"":4380.600000023842}]","[{""key_press"":32,""rt"":2294.800000011921,""stimulus"":""https://ziweizhang0304.github.io/Stats_learning_trig/img/Stim/FN_012_g.png""}]","594.5","https://ziweizhang0304.github.io/Stats_learning_trig/img/Stim/FN_026_g.png","post_TD","10","1700.300000011921","2294.800000011921","fast","5","1","5ec62902bb44c16b842128f9","","","","","",""
"","image-keyboard-response","33","110530","0.0-5.0-10.0-0.0","1368.800000011921","","","https://ziweizhang0304.github.io/Stats_learning_trig/img/Stim/FN_023_g.png","13","","","","","","","","","","","","","","","","","",""
"","animation","34","114950","0.0-5.0-10.0-1.0","","","","","","[{""stimulus"":""https://ziweizhang0304.github.io/Stats_learning_trig/img/Stim/FN_024_g.png"",""time"":340.60000002384186},{""stimulus"":""blank"",""time"":640.6999999880791},{""stimulus"":""https://ziweizhang0304.github.io/Stats_learning_trig/img/Stim/FN_022_g.png"",""time"":680.5},{""stimulus"":""blank"",""time"":980.6999999880791},{""stimulus"":""https://ziweizhang0304.github.io/Stats_learning_trig/img/Stim/FN_002_g.png"",""time"":1020.3999999761581},{""stimulus"":""blank"",""time"":1320.6000000238419},{""stimulus"":""https://ziweizhang0304.github.io/Stats_learning_trig/img/Stim/FN_004_g.png"",""time"":1360.3999999761581},{""stimulus"":""blank"",""time"":1660.6000000238419},{""stimulus"":""https://ziweizhang0304.github.io/Stats_learning_trig/img/Stim/FN_023_g.png"",""time"":1700.3999999761581},{""stimulus"":""blank"",""time"":2000.6000000238419},{""stimulus"":""https://ziweizhang0304.github.io/Stats_learning_trig/img/Stim/FN_018_g.png"",""time"":2040.5},{""stimulus"":""blank"",""time"":2340.600000023842},{""stimulus"":""https://ziweizhang0304.github.io/Stats_learning_trig/img/Stim/FN_008_g.png"",""time"":2380.699999988079},{""stimulus"":""blank"",""time"":2680.800000011921},{""stimulus"":""https://ziweizhang0304.github.io/Stats_learning_trig/img/Stim/FN_017_g.png"",""time"":2720.800000011921},{""stimulus"":""blank"",""time"":3021},{""stimulus"":""https://ziweizhang0304.github.io/Stats_learning_trig/img/Stim/FN_019_g.png"",""time"":3060.5},{""stimulus"":""blank"",""time"":3360.600000023842},{""stimulus"":""https://ziweizhang0304.github.io/Stats_learning_trig/img/Stim/FN_010_g.png"",""time"":3400.5},{""stimulus"":""blank"",""time"":3700.699999988079},{""stimulus"":""https://ziweizhang0304.github.io/Stats_learning_trig/img/Stim/FN_020_g.png"",""time"":3740.5},{""stimulus"":""blank"",""time"":4040.600000023842},{""stimulus"":""https://ziweizhang0304.github.io/Stats_learning_trig/img/Stim/FN_011_g.png"",""time"":4080.399999976158},{""stimulus"":""blank"",""time"":4380.600000023842}]","[{""key_press"":32,""rt"":2493.599999964237,""stimulus"":""https://ziweizhang0304.github.io/Stats_learning_trig/img/Stim/FN_008_g.png""}]","793.1999999880791","https://ziweizhang0304.github.io/Stats_learning_trig/img/Stim/FN_023_g.png","post_TD","11","1700.3999999761581","2493.599999964237","slow","5","1","5ec62902bb44c16b842128f9","","","","","",""
"","image-keyboard-response","35","116047","0.0-5.0-11.0-0.0","1096.199999988079","","","https://ziweizhang0304.github.io/Stats_learning_trig/img/Stim/FN_012_g.png","13","","","","","","","","","","","","","","","","","",""
"","animation","36","120468","0.0-5.0-11.0-1.0","","","","","","[{""stimulus"":""https://ziweizhang0304.github.io/Stats_learning_trig/img/Stim/FN_017_g.png"",""time"":340.5},{""stimulus"":""blank"",""time"":640.7000000476837},{""stimulus"":""https://ziweizhang0304.github.io/Stats_learning_trig/img/Stim/FN_004_g.png"",""time"":680.5},{""stimulus"":""blank"",""time"":980.7000000476837},{""stimulus"":""https://ziweizhang0304.github.io/Stats_learning_trig/img/Stim/FN_020_g.png"",""time"":1020.4000000357628},{""stimulus"":""blank"",""time"":1320.5},{""stimulus"":""https://ziweizhang0304.github.io/Stats_learning_trig/img/Stim/FN_026_g.png"",""time"":1360.5},{""stimulus"":""blank"",""time"":1660.6000000238419},{""stimulus"":""https://ziweizhang0304.github.io/Stats_learning_trig/img/Stim/FN_012_g.png"",""time"":1700.5},{""stimulus"":""blank"",""time"":2000.6000000238419},{""stimulus"":""https://ziweizhang0304.github.io/Stats_learning_trig/img/Stim/FN_015_g.png"",""time"":2040.4000000357628},{""stimulus"":""blank"",""time"":2340.600000023842},{""stimulus"":""https://ziweizhang0304.github.io/Stats_learning_trig/img/Stim/FN_019_g.png"",""time"":2380.5},{""stimulus"":""blank"",""time"":2680.800000011921},{""stimulus"":""https://ziweizhang0304.github.io/Stats_learning_trig/img/Stim/FN_010_g.png"",""time"":2720.5},{""stimulus"":""blank"",""time"":3020.600000023842},{""stimulus"":""https://ziweizhang0304.github.io/Stats_learning_trig/img/Stim/FN_022_g.png"",""time"":3060.5},{""stimulus"":""blank"",""time"":3360.7000000476837},{""stimulus"":""https://ziweizhang0304.github.io/Stats_learning_trig/img/Stim/FN_002_g.png"",""time"":3400.400000035763},{""stimulus"":""blank"",""time"":3700.600000023842},{""stimulus"":""https://ziweizhang0304.github.io/Stats_learning_trig/img/Stim/FN_024_g.png"",""time"":3740.5},{""stimulus"":""blank"",""time"":4040.800000011921},{""stimulus"":""https://ziweizhang0304.github.io/Stats_learning_trig/img/Stim/FN_011_g.png"",""time"":4080.400000035763},{""stimulus"":""blank"",""time"":4380.700000047684}]","[]","NaN","https://ziweizhang0304.github.io/Stats_learning_trig/img/Stim/FN_012_g.png","post_TD","12","1700.5","","fast","5","2","5ec62902bb44c16b842128f9","","","","","",""
"","image-keyboard-response","37","121965","0.0-5.0-12.0-0.0","1496.199999988079","","","https://ziweizhang0304.github.io/Stats_learning_trig/img/Stim/FN_018_g.png","13","","","","","","","","","","","","","","","","","",""
"","animation","38","126386","0.0-5.0-12.0-1.0","","","","","","[{""stimulus"":""https://ziweizhang0304.github.io/Stats_learning_trig/img/Stim/FN_004_g.png"",""time"":340.5},{""stimulus"":""blank"",""time"":640.7000000476837},{""stimulus"":""https://ziweizhang0304.github.io/Stats_learning_trig/img/Stim/FN_011_g.png"",""time"":680.4000000357628},{""stimulus"":""blank"",""time"":980.5},{""stimulus"":""https://ziweizhang0304.github.io/Stats_learning_trig/img/Stim/FN_022_g.png"",""time"":1020.4000000357628},{""stimulus"":""blank"",""time"":1320.6000000238419},{""stimulus"":""https://ziweizhang0304.github.io/Stats_learning_trig/img/Stim/FN_023_g.png"",""time"":1360.5},{""stimulus"":""blank"",""time"":1660.7000000476837},{""stimulus"":""https://ziweizhang0304.github.io/Stats_learning_trig/img/Stim/FN_018_g.png"",""time"":1700.5},{""stimulus"":""blank"",""time"":2000.7000000476837},{""stimulus"":""https://ziweizhang0304.github.io/Stats_learning_trig/img/Stim/FN_008_g.png"",""time"":2040.4000000357628},{""stimulus"":""blank"",""time"":2340.7000000476837},{""stimulus"":""https://ziweizhang0304.github.io/Stats_learning_trig/img/Stim/FN_017_g.png"",""time"":2380.5},{""stimulus"":""blank"",""time"":2680.7000000476837},{""stimulus"":""https://ziweizhang0304.github.io/Stats_learning_trig/img/Stim/FN_019_g.png"",""time"":2720.5},{""stimulus"":""blank"",""time"":3020.5},{""stimulus"":""https://ziweizhang0304.github.io/Stats_learning_trig/img/Stim/FN_010_g.png"",""time"":3060.5},{""stimulus"":""blank"",""time"":3360.7000000476837},{""stimulus"":""https://ziweizhang0304.github.io/Stats_learning_trig/img/Stim/FN_020_g.png"",""time"":3400.400000035763},{""stimulus"":""blank"",""time"":3700.600000023842},{""stimulus"":""https://ziweizhang0304.github.io/Stats_learning_trig/img/Stim/FN_002_g.png"",""time"":3740.600000023842},{""stimulus"":""blank"",""time"":4040.7000000476837},{""stimulus"":""https://ziweizhang0304.github.io/Stats_learning_trig/img/Stim/FN_024_g.png"",""time"":4080.5},{""stimulus"":""blank"",""time"":4380.600000023842}]","[{""key_press"":32,""rt"":1992.800000011921,""stimulus"":""https://ziweizhang0304.github.io/Stats_learning_trig/img/Stim/FN_018_g.png""}]","292.30000001192093","https://ziweizhang0304.github.io/Stats_learning_trig/img/Stim/FN_018_g.png","post_TD","13","1700.5","1992.800000011921","slow","5","2","5ec62902bb44c16b842128f9","","","","","",""
"","image-keyboard-response","39","126722","0.0-5.0-13.0-0.0","335.0999999642372","","","https://ziweizhang0304.github.io/Stats_learning_trig/img/Stim/FN_012_g.png","13","","","","","","","","","","","","","","","","","",""
"","animation","40","131143","0.0-5.0-13.0-1.0","","","","","","[{""stimulus"":""https://ziweizhang0304.github.io/Stats_learning_trig/img/Stim/FN_020_g.png"",""time"":340.60000002384186},{""stimulus"":""blank"",""time"":640.7000000476837},{""stimulus"":""https://ziweizhang0304.github.io/Stats_learning_trig/img/Stim/FN_002_g.png"",""time"":680.5},{""stimulus"":""blank"",""time"":980.7000000476837},{""stimulus"":""https://ziweizhang0304.github.io/Stats_learning_trig/img/Stim/FN_024_g.png"",""time"":1020.6000000238419},{""stimulus"":""blank"",""time"":1320.6000000238419},{""stimulus"":""https://ziweizhang0304.github.io/Stats_learning_trig/img/Stim/FN_004_g.png"",""time"":1360.7000000476837},{""stimulus"":""blank"",""time"":1660.800000011921},{""stimulus"":""https://ziweizhang0304.github.io/Stats_learning_trig/img/Stim/FN_026_g.png"",""time"":1700.5},{""stimulus"":""blank"",""time"":2000.7000000476837},{""stimulus"":""https://ziweizhang0304.github.io/Stats_learning_trig/img/Stim/FN_012_g.png"",""time"":2040.5},{""stimulus"":""blank"",""time"":2340.7000000476837},{""stimulus"":""https://ziweizhang0304.github.io/Stats_learning_trig/img/Stim/FN_015_g.png"",""time"":2380.5},{""stimulus"":""blank"",""time"":2680.7000000476837},{""stimulus"":""https://ziweizhang0304.github.io/Stats_learning_trig/img/Stim/FN_017_g.png"",""time"":2720.5},{""stimulus"":""blank"",""time"":3020.600000023842},{""stimulus"":""https://ziweizhang0304.github.io/Stats_learning_trig/img/Stim/FN_019_g.png"",""time"":3060.5},{""stimulus"":""blank"",""time"":3360.7000000476837},{""stimulus"":""https://ziweizhang0304.github.io/Stats_learning_trig/img/Stim/FN_010_g.png"",""time"":3400.600000023842},{""stimulus"":""blank"",""time"":3700.7000000476837},{""stimulus"":""https://ziweizhang0304.github.io/Stats_learning_trig/img/Stim/FN_022_g.png"",""time"":3740.5},{""stimulus"":""blank"",""time"":4040.600000023842},{""stimulus"":""https://ziweizhang0304.github.io/Stats_learning_trig/img/Stim/FN_011_g.png"",""time"":4080.400000035763},{""stimulus"":""blank"",""time"":4380.700000047684}]","[{""key_press"":32,""rt"":1769.5,""stimulus"":""https://ziweizhang0304.github.io/Stats_learning_trig/img/Stim/FN_026_g.png""},{""key_press"":32,""rt"":2343.300000011921,""stimulus"":""blank""}]","302.80000001192093","https://ziweizhang0304.github.io/Stats_learning_trig/img/Stim/FN_012_g.png","post_TD","14","2040.5","2343.300000011921","fast","6","2","5ec62902bb44c16b842128f9","","","","","",""
"","image-keyboard-response","41","169416","0.0-5.0-14.0-0.0","38271.69999998808","","","https://ziweizhang0304.github.io/Stats_learning_trig/img/Stim/FN_015_g.png","13","","","","","","","","","","","","","","","","","",""
"","animation","42","173837","0.0-5.0-14.0-1.0","","","","","","[{""stimulus"":""https://ziweizhang0304.github.io/Stats_learning_trig/img/Stim/FN_024_g.png"",""time"":340.5999999642372},{""stimulus"":""blank"",""time"":640.6999999880791},{""stimulus"":""https://ziweizhang0304.github.io/Stats_learning_trig/img/Stim/FN_017_g.png"",""time"":680.5},{""stimulus"":""blank"",""time"":980.8000000119209},{""stimulus"":""https://ziweizhang0304.github.io/Stats_learning_trig/img/Stim/FN_010_g.png"",""time"":1020.5999999642372},{""stimulus"":""blank"",""time"":1320.699999988079},{""stimulus"":""https://ziweizhang0304.github.io/Stats_learning_trig/img/Stim/FN_002_g.png"",""time"":1360.3999999761581},{""stimulus"":""blank"",""time"":1660.5999999642372},{""stimulus"":""https://ziweizhang0304.github.io/Stats_learning_trig/img/Stim/FN_011_g.png"",""time"":1700.5999999642372},{""stimulus"":""blank"",""time"":2000.800000011921},{""stimulus"":""https://ziweizhang0304.github.io/Stats_learning_trig/img/Stim/FN_026_g.png"",""time"":2040.5999999642372},{""stimulus"":""blank"",""time"":2340.800000011921},{""stimulus"":""https://ziweizhang0304.github.io/Stats_learning_trig/img/Stim/FN_012_g.png"",""time"":2380.5},{""stimulus"":""blank"",""time"":2680.599999964237},{""stimulus"":""https://ziweizhang0304.github.io/Stats_learning_trig/img/Stim/FN_015_g.png"",""time"":2720.5},{""stimulus"":""blank"",""time"":3020.599999964237},{""stimulus"":""https://ziweizhang0304.github.io/Stats_learning_trig/img/Stim/FN_019_g.png"",""time"":3060.5},{""stimulus"":""blank"",""time"":3360.699999988079},{""stimulus"":""https://ziweizhang0304.github.io/Stats_learning_trig/img/Stim/FN_020_g.png"",""time"":3400.5},{""stimulus"":""blank"",""time"":3700.599999964237},{""stimulus"":""https://ziweizhang0304.github.io/Stats_learning_trig/img/Stim/FN_004_g.png"",""time"":3740.399999976158},{""stimulus"":""blank"",""time"":4040.599999964237},{""stimulus"":""https://ziweizhang0304.github.io/Stats_learning_trig/img/Stim/FN_022_g.png"",""time"":4080.599999964237},{""stimulus"":""blank"",""time"":4380.800000011921}]","[{""key_press"":32,""rt"":3082.5,""stimulus"":""https://ziweizhang0304.github.io/Stats_learning_trig/img/Stim/FN_019_g.png""}]","362","https://ziweizhang0304.github.io/Stats_learning_trig/img/Stim/FN_015_g.png","post_TD","15","2720.5","3082.5","fast","8","3","5ec62902bb44c16b842128f9","","","","","",""
"","image-keyboard-response","43","174767","0.0-5.0-15.0-0.0","928.3000000119209","","","https://ziweizhang0304.github.io/Stats_learning_trig/img/Stim/FN_008_g.png","13","","","","","","","","","","","","","","","","","",""
"","animation","44","179188","0.0-5.0-15.0-1.0","","","","","","[{""stimulus"":""https://ziweizhang0304.github.io/Stats_learning_trig/img/Stim/FN_010_g.png"",""time"":340.60000002384186},{""stimulus"":""blank"",""time"":640.6999999880791},{""stimulus"":""https://ziweizhang0304.github.io/Stats_learning_trig/img/Stim/FN_011_g.png"",""time"":680.5},{""stimulus"":""blank"",""time"":980.6999999880791},{""stimulus"":""https://ziweizhang0304.github.io/Stats_learning_trig/img/Stim/FN_002_g.png"",""time"":1020.3999999761581},{""stimulus"":""blank"",""time"":1320.6000000238419},{""stimulus"":""https://ziweizhang0304.github.io/Stats_learning_trig/img/Stim/FN_022_g.png"",""time"":1360.5},{""stimulus"":""blank"",""time"":1660.699999988079},{""stimulus"":""https://ziweizhang0304.github.io/Stats_learning_trig/img/Stim/FN_019_g.png"",""time"":1700.5},{""stimulus"":""blank"",""time"":2000.6000000238419},{""stimulus"":""https://ziweizhang0304.github.io/Stats_learning_trig/img/Stim/FN_023_g.png"",""time"":2040.5},{""stimulus"":""blank"",""time"":2340.600000023842},{""stimulus"":""https://ziweizhang0304.github.io/Stats_learning_trig/img/Stim/FN_018_g.png"",""time"":2380.399999976158},{""stimulus"":""blank"",""time"":2680.5},{""stimulus"":""https://ziweizhang0304.github.io/Stats_learning_trig/img/Stim/FN_008_g.png"",""time"":2720.399999976158},{""stimulus"":""blank"",""time"":3020.600000023842},{""stimulus"":""https://ziweizhang0304.github.io/Stats_learning_trig/img/Stim/FN_017_g.png"",""time"":3060.399999976158},{""stimulus"":""blank"",""time"":3360.600000023842},{""stimulus"":""https://ziweizhang0304.github.io/Stats_learning_trig/img/Stim/FN_020_g.png"",""time"":3400.5},{""stimulus"":""blank"",""time"":3700.600000023842},{""stimulus"":""https://ziweizhang0304.github.io/Stats_learning_trig/img/Stim/FN_004_g.png"",""time"":3740.399999976158},{""stimulus"":""blank"",""time"":4040.600000023842},{""stimulus"":""https://ziweizhang0304.github.io/Stats_learning_trig/img/Stim/FN_024_g.png"",""time"":4080.5},{""stimulus"":""blank"",""time"":4380.600000023842}]","[{""key_press"":32,""rt"":3095.2999999523163,""stimulus"":""https://ziweizhang0304.github.io/Stats_learning_trig/img/Stim/FN_017_g.png""}]","374.89999997615814","https://ziweizhang0304.github.io/Stats_learning_trig/img/Stim/FN_008_g.png","post_TD","16","2720.399999976158","3095.2999999523163","slow","8","3","5ec62902bb44c16b842128f9","","","","","",""
"","image-keyboard-response","45","180267","0.0-5.0-16.0-0.0","1078","","","https://ziweizhang0304.github.io/Stats_learning_trig/img/Stim/FN_018_g.png","13","","","","","","","","","","","","","","","","","",""
"","animation","46","184687","0.0-5.0-16.0-1.0","","","","","","[{""stimulus"":""https://ziweizhang0304.github.io/Stats_learning_trig/img/Stim/FN_017_g.png"",""time"":340.5999999642372},{""stimulus"":""blank"",""time"":640.6999999880791},{""stimulus"":""https://ziweizhang0304.github.io/Stats_learning_trig/img/Stim/FN_002_g.png"",""time"":680.3999999761581},{""stimulus"":""blank"",""time"":980.5999999642372},{""stimulus"":""https://ziweizhang0304.github.io/Stats_learning_trig/img/Stim/FN_022_g.png"",""time"":1020.3999999761581},{""stimulus"":""blank"",""time"":1320.5999999642372},{""stimulus"":""https://ziweizhang0304.github.io/Stats_learning_trig/img/Stim/FN_019_g.png"",""time"":1360.3999999761581},{""stimulus"":""blank"",""time"":1660.5},{""stimulus"":""https://ziweizhang0304.github.io/Stats_learning_trig/img/Stim/FN_024_g.png"",""time"":1700.5},{""stimulus"":""blank"",""time"":2000.699999988079},{""stimulus"":""https://ziweizhang0304.github.io/Stats_learning_trig/img/Stim/FN_011_g.png"",""time"":2040.3999999761581},{""stimulus"":""blank"",""time"":2340.5},{""stimulus"":""https://ziweizhang0304.github.io/Stats_learning_trig/img/Stim/FN_023_g.png"",""time"":2380.399999976158},{""stimulus"":""blank"",""time"":2680.5},{""stimulus"":""https://ziweizhang0304.github.io/Stats_learning_trig/img/Stim/FN_018_g.png"",""time"":2720.399999976158},{""stimulus"":""blank"",""time"":3020.5},{""stimulus"":""https://ziweizhang0304.github.io/Stats_learning_trig/img/Stim/FN_008_g.png"",""time"":3060.399999976158},{""stimulus"":""blank"",""time"":3360.699999988079},{""stimulus"":""https://ziweizhang0304.github.io/Stats_learning_trig/img/Stim/FN_010_g.png"",""time"":3400.399999976158},{""stimulus"":""blank"",""time"":3700.5},{""stimulus"":""https://ziweizhang0304.github.io/Stats_learning_trig/img/Stim/FN_020_g.png"",""time"":3740.399999976158},{""stimulus"":""blank"",""time"":4040.599999964237},{""stimulus"":""https://ziweizhang0304.github.io/Stats_learning_trig/img/Stim/FN_004_g.png"",""time"":4080.399999976158},{""stimulus"":""blank"",""time"":4380.5}]","[{""key_press"":32,""rt"":3077.300000011921,""stimulus"":""https://ziweizhang0304.github.io/Stats_learning_trig/img/Stim/FN_008_g.png""}]","356.9000000357628","https://ziweizhang0304.github.io/Stats_learning_trig/img/Stim/FN_018_g.png","post_TD","17","2720.399999976158","3077.300000011921","slow","8","2","5ec62902bb44c16b842128f9","","","","","",""
"","image-keyboard-response","47","185611","0.0-5.0-17.0-0.0","922.1999999880791","","","https://ziweizhang0304.github.io/Stats_learning_trig/img/Stim/FN_026_g.png","13","","","","","","","","","","","","","","","","","",""
"","animation","48","190031","0.0-5.0-17.0-1.0","","","","","","[{""stimulus"":""https://ziweizhang0304.github.io/Stats_learning_trig/img/Stim/FN_017_g.png"",""time"":340.60000002384186},{""stimulus"":""blank"",""time"":640.8000000119209},{""stimulus"":""https://ziweizhang0304.github.io/Stats_learning_trig/img/Stim/FN_004_g.png"",""time"":680.6999999880791},{""stimulus"":""blank"",""time"":980.8000000119209},{""stimulus"":""https://ziweizhang0304.github.io/Stats_learning_trig/img/Stim/FN_020_g.png"",""time"":1020.5},{""stimulus"":""blank"",""time"":1320.699999988079},{""stimulus"":""https://ziweizhang0304.github.io/Stats_learning_trig/img/Stim/FN_026_g.png"",""time"":1360.6000000238419},{""stimulus"":""blank"",""time"":1660.699999988079},{""stimulus"":""https://ziweizhang0304.github.io/Stats_learning_trig/img/Stim/FN_012_g.png"",""time"":1700.5},{""stimulus"":""blank"",""time"":2000.800000011921},{""stimulus"":""https://ziweizhang0304.github.io/Stats_learning_trig/img/Stim/FN_015_g.png"",""time"":2040.6000000238419},{""stimulus"":""blank"",""time"":2340.699999988079},{""stimulus"":""https://ziweizhang0304.github.io/Stats_learning_trig/img/Stim/FN_019_g.png"",""time"":2380.5},{""stimulus"":""blank"",""time"":2680.699999988079},{""stimulus"":""https://ziweizhang0304.github.io/Stats_learning_trig/img/Stim/FN_010_g.png"",""time"":2720.600000023842},{""stimulus"":""blank"",""time"":3020.800000011921},{""stimulus"":""https://ziweizhang0304.github.io/Stats_learning_trig/img/Stim/FN_022_g.png"",""time"":3060.5},{""stimulus"":""blank"",""time"":3360.699999988079},{""stimulus"":""https://ziweizhang0304.github.io/Stats_learning_trig/img/Stim/FN_002_g.png"",""time"":3400.5},{""stimulus"":""blank"",""time"":3700.699999988079},{""stimulus"":""https://ziweizhang0304.github.io/Stats_learning_trig/img/Stim/FN_024_g.png"",""time"":3740.400000035763},{""stimulus"":""blank"",""time"":4040.600000023842},{""stimulus"":""https://ziweizhang0304.github.io/Stats_learning_trig/img/Stim/FN_011_g.png"",""time"":4080.5},{""stimulus"":""blank"",""time"":4380.600000023842}]","[{""key_press"":32,""rt"":1837.4000000357628,""stimulus"":""https://ziweizhang0304.github.io/Stats_learning_trig/img/Stim/FN_012_g.png""}]","476.80000001192093","https://ziweizhang0304.github.io/Stats_learning_trig/img/Stim/FN_026_g.png","post_TD","18","1360.6000000238419","1837.4000000357628","fast","4","1","5ec62902bb44c16b842128f9","","","","","",""
"","image-keyboard-response","49","190304","0.0-5.0-18.0-0.0","271.69999998807907","","","https://ziweizhang0304.github.io/Stats_learning_trig/img/Stim/FN_018_g.png","13","","","","","","","","","","","","","","","","","",""
"","animation","50","194725","0.0-5.0-18.0-1.0","","","","","","[{""stimulus"":""https://ziweizhang0304.github.io/Stats_learning_trig/img/Stim/FN_024_g.png"",""time"":340.5999999642372},{""stimulus"":""blank"",""time"":640.7999999523163},{""stimulus"":""https://ziweizhang0304.github.io/Stats_learning_trig/img/Stim/FN_022_g.png"",""time"":680.5},{""stimulus"":""blank"",""time"":980.6999999880791},{""stimulus"":""https://ziweizhang0304.github.io/Stats_learning_trig/img/Stim/FN_002_g.png"",""time"":1020.5},{""stimulus"":""blank"",""time"":1320.699999988079},{""stimulus"":""https://ziweizhang0304.github.io/Stats_learning_trig/img/Stim/FN_004_g.png"",""time"":1360.5999999642372},{""stimulus"":""blank"",""time"":1660.7999999523163},{""stimulus"":""https://ziweizhang0304.github.io/Stats_learning_trig/img/Stim/FN_023_g.png"",""time"":1700.5},{""stimulus"":""blank"",""time"":2000.699999988079},{""stimulus"":""https://ziweizhang0304.github.io/Stats_learning_trig/img/Stim/FN_018_g.png"",""time"":2040.5},{""stimulus"":""blank"",""time"":2340.699999988079},{""stimulus"":""https://ziweizhang0304.github.io/Stats_learning_trig/img/Stim/FN_008_g.png"",""time"":2380.5},{""stimulus"":""blank"",""time"":2680.699999988079},{""stimulus"":""https://ziweizhang0304.github.io/Stats_learning_trig/img/Stim/FN_017_g.png"",""time"":2720.5},{""stimulus"":""blank"",""time"":3020.699999988079},{""stimulus"":""https://ziweizhang0304.github.io/Stats_learning_trig/img/Stim/FN_019_g.png"",""time"":3060.5},{""stimulus"":""blank"",""time"":3360.699999988079},{""stimulus"":""https://ziweizhang0304.github.io/Stats_learning_trig/img/Stim/FN_010_g.png"",""time"":3400.7999999523163},{""stimulus"":""blank"",""time"":3701},{""stimulus"":""https://ziweizhang0304.github.io/Stats_learning_trig/img/Stim/FN_020_g.png"",""time"":3740.5},{""stimulus"":""blank"",""time"":4040.699999988079},{""stimulus"":""https://ziweizhang0304.github.io/Stats_learning_trig/img/Stim/FN_011_g.png"",""time"":4080.5},{""stimulus"":""blank"",""time"":4380.799999952316}]","[{""key_press"":32,""rt"":2339,""stimulus"":""https://ziweizhang0304.github.io/Stats_learning_trig/img/Stim/FN_018_g.png""}]","298.5","https://ziweizhang0304.github.io/Stats_learning_trig/img/Stim/FN_018_g.png","post_TD","19","2040.5","2339","slow","6","2","5ec62902bb44c16b842128f9","","","","","",""
"","image-keyboard-response","51","197378","0.0-5.0-19.0-0.0","2651.699999988079","","","https://ziweizhang0304.github.io/Stats_learning_trig/img/Stim/FN_015_g.png","13","","","","","","","","","","","","","","","","","",""
"","animation","52","201798","0.0-5.0-19.0-1.0","","","","","","[{""stimulus"":""https://ziweizhang0304.github.io/Stats_learning_trig/img/Stim/FN_017_g.png"",""time"":340.5999999642372},{""stimulus"":""blank"",""time"":640.7999999523163},{""stimulus"":""https://ziweizhang0304.github.io/Stats_learning_trig/img/Stim/FN_004_g.png"",""time"":680.5},{""stimulus"":""blank"",""time"":980.5999999642372},{""stimulus"":""https://ziweizhang0304.github.io/Stats_learning_trig/img/Stim/FN_020_g.png"",""time"":1020.5999999642372},{""stimulus"":""blank"",""time"":1320.7999999523163},{""stimulus"":""https://ziweizhang0304.github.io/Stats_learning_trig/img/Stim/FN_026_g.png"",""time"":1360.3999999761581},{""stimulus"":""blank"",""time"":1660.5999999642372},{""stimulus"":""https://ziweizhang0304.github.io/Stats_learning_trig/img/Stim/FN_012_g.png"",""time"":1700.5999999642372},{""stimulus"":""blank"",""time"":2000.699999988079},{""stimulus"":""https://ziweizhang0304.github.io/Stats_learning_trig/img/Stim/FN_015_g.png"",""time"":2040.5},{""stimulus"":""blank"",""time"":2340.699999988079},{""stimulus"":""https://ziweizhang0304.github.io/Stats_learning_trig/img/Stim/FN_019_g.png"",""time"":2380.399999976158},{""stimulus"":""blank"",""time"":2680.599999964237},{""stimulus"":""https://ziweizhang0304.github.io/Stats_learning_trig/img/Stim/FN_010_g.png"",""time"":2720.5},{""stimulus"":""blank"",""time"":3020.699999988079},{""stimulus"":""https://ziweizhang0304.github.io/Stats_learning_trig/img/Stim/FN_022_g.png"",""time"":3060.5},{""stimulus"":""blank"",""time"":3360.599999964237},{""stimulus"":""https://ziweizhang0304.github.io/Stats_learning_trig/img/Stim/FN_002_g.png"",""time"":3400.5},{""stimulus"":""blank"",""time"":3700.599999964237},{""stimulus"":""https://ziweizhang0304.github.io/Stats_learning_trig/img/Stim/FN_024_g.png"",""time"":3740.599999964237},{""stimulus"":""blank"",""time"":4040.7999999523163},{""stimulus"":""https://ziweizhang0304.github.io/Stats_learning_trig/img/Stim/FN_011_g.png"",""time"":4080.599999964237},{""stimulus"":""blank"",""time"":4380.799999952316}]","[{""key_press"":32,""rt"":2496.100000023842,""stimulus"":""https://ziweizhang0304.github.io/Stats_learning_trig/img/Stim/FN_019_g.png""}]","455.60000002384186","https://ziweizhang0304.github.io/Stats_learning_trig/img/Stim/FN_015_g.png","post_TD","20","2040.5","2496.100000023842","fast","6","3","5ec62902bb44c16b842128f9","","","","","",""
"","image-keyboard-response","53","202092","0.0-5.0-20.0-0.0","292.5","","","https://ziweizhang0304.github.io/Stats_learning_trig/img/Stim/FN_015_g.png","13","","","","","","","","","","","","","","","","","",""
"","animation","54","206513","0.0-5.0-20.0-1.0","","","","","","[{""stimulus"":""https://ziweizhang0304.github.io/Stats_learning_trig/img/Stim/FN_017_g.png"",""time"":340.5},{""stimulus"":""blank"",""time"":640.6999999880791},{""stimulus"":""https://ziweizhang0304.github.io/Stats_learning_trig/img/Stim/FN_002_g.png"",""time"":680.5},{""stimulus"":""blank"",""time"":980.6000000238419},{""stimulus"":""https://ziweizhang0304.github.io/Stats_learning_trig/img/Stim/FN_011_g.png"",""time"":1020.5},{""stimulus"":""blank"",""time"":1320.800000011921},{""stimulus"":""https://ziweizhang0304.github.io/Stats_learning_trig/img/Stim/FN_020_g.png"",""time"":1360.5},{""stimulus"":""blank"",""time"":1660.699999988079},{""stimulus"":""https://ziweizhang0304.github.io/Stats_learning_trig/img/Stim/FN_022_g.png"",""time"":1700.5},{""stimulus"":""blank"",""time"":2000.6000000238419},{""stimulus"":""https://ziweizhang0304.github.io/Stats_learning_trig/img/Stim/FN_004_g.png"",""time"":2040.5},{""stimulus"":""blank"",""time"":2340.699999988079},{""stimulus"":""https://ziweizhang0304.github.io/Stats_learning_trig/img/Stim/FN_026_g.png"",""time"":2380.399999976158},{""stimulus"":""blank"",""time"":2680.5},{""stimulus"":""https://ziweizhang0304.github.io/Stats_learning_trig/img/Stim/FN_012_g.png"",""time"":2720.399999976158},{""stimulus"":""blank"",""time"":3020.600000023842},{""stimulus"":""https://ziweizhang0304.github.io/Stats_learning_trig/img/Stim/FN_015_g.png"",""time"":3060.399999976158},{""stimulus"":""blank"",""time"":3360.600000023842},{""stimulus"":""https://ziweizhang0304.github.io/Stats_learning_trig/img/Stim/FN_019_g.png"",""time"":3400.5},{""stimulus"":""blank"",""time"":3700.600000023842},{""stimulus"":""https://ziweizhang0304.github.io/Stats_learning_trig/img/Stim/FN_010_g.png"",""time"":3740.600000023842},{""stimulus"":""blank"",""time"":4040.800000011921},{""stimulus"":""https://ziweizhang0304.github.io/Stats_learning_trig/img/Stim/FN_024_g.png"",""time"":4080.399999976158},{""stimulus"":""blank"",""time"":4380.600000023842}]","[{""key_press"":32,""rt"":2979,""stimulus"":""https://ziweizhang0304.github.io/Stats_learning_trig/img/Stim/FN_012_g.png""},{""key_press"":32,""rt"":3329,""stimulus"":""https://ziweizhang0304.github.io/Stats_learning_trig/img/Stim/FN_015_g.png""}]","268.60000002384186","https://ziweizhang0304.github.io/Stats_learning_trig/img/Stim/FN_015_g.png","post_TD","21","3060.399999976158","3329","fast","9","3","5ec62902bb44c16b842128f9","","","","","",""
"","image-keyboard-response","55","207349","0.0-5.0-21.0-0.0","834.8000000119209","","","https://ziweizhang0304.github.io/Stats_learning_trig/img/Stim/FN_012_g.png","13","","","","","","","","","","","","","","","","","",""
"","animation","56","211769","0.0-5.0-21.0-1.0","","","","","","[{""stimulus"":""https://ziweizhang0304.github.io/Stats_learning_trig/img/Stim/FN_024_g.png"",""time"":340.5},{""stimulus"":""blank"",""time"":640.6999999880791},{""stimulus"":""https://ziweizhang0304.github.io/Stats_learning_trig/img/Stim/FN_017_g.png"",""time"":680.3999999761581},{""stimulus"":""blank"",""time"":980.8000000119209},{""stimulus"":""https://ziweizhang0304.github.io/Stats_learning_trig/img/Stim/FN_010_g.png"",""time"":1020.5},{""stimulus"":""blank"",""time"":1320.6000000238419},{""stimulus"":""https://ziweizhang0304.github.io/Stats_learning_trig/img/Stim/FN_002_g.png"",""time"":1360.5},{""stimulus"":""blank"",""time"":1660.6000000238419},{""stimulus"":""https://ziweizhang0304.github.io/Stats_learning_trig/img/Stim/FN_011_g.png"",""time"":1700.5},{""stimulus"":""blank"",""time"":2000.699999988079},{""stimulus"":""https://ziweizhang0304.github.io/Stats_learning_trig/img/Stim/FN_026_g.png"",""time"":2040.5},{""stimulus"":""blank"",""time"":2340.600000023842},{""stimulus"":""https://ziweizhang0304.github.io/Stats_learning_trig/img/Stim/FN_012_g.png"",""time"":2380.5},{""stimulus"":""blank"",""time"":2680.800000011921},{""stimulus"":""https://ziweizhang0304.github.io/Stats_learning_trig/img/Stim/FN_015_g.png"",""time"":2720.5},{""stimulus"":""blank"",""time"":3020.699999988079},{""stimulus"":""https://ziweizhang0304.github.io/Stats_learning_trig/img/Stim/FN_019_g.png"",""time"":3060.600000023842},{""stimulus"":""blank"",""time"":3360.800000011921},{""stimulus"":""https://ziweizhang0304.github.io/Stats_learning_trig/img/Stim/FN_020_g.png"",""time"":3400.800000011921},{""stimulus"":""blank"",""time"":3701},{""stimulus"":""https://ziweizhang0304.github.io/Stats_learning_trig/img/Stim/FN_004_g.png"",""time"":3740.5},{""stimulus"":""blank"",""time"":4040.600000023842},{""stimulus"":""https://ziweizhang0304.github.io/Stats_learning_trig/img/Stim/FN_022_g.png"",""time"":4080.600000023842},{""stimulus"":""blank"",""time"":4380.800000011921}]","[{""key_press"":32,""rt"":2025,""stimulus"":""blank""},{""key_press"":32,""rt"":2734.2999999523163,""stimulus"":""https://ziweizhang0304.github.io/Stats_learning_trig/img/Stim/FN_015_g.png""}]","353.7999999523163","https://ziweizhang0304.github.io/Stats_learning_trig/img/Stim/FN_012_g.png","post_TD","22","2380.5","2734.2999999523163","fast","7","2","5ec62902bb44c16b842128f9","","","","","",""
"","image-keyboard-response","57","212149","0.0-5.0-22.0-0.0","378.60000002384186","","","https://ziweizhang0304.github.io/Stats_learning_trig/img/Stim/FN_008_g.png","13","","","","","","","","","","","","","","","","","",""
"","animation","58","216569","0.0-5.0-22.0-1.0","","","","","","[{""stimulus"":""https://ziweizhang0304.github.io/Stats_learning_trig/img/Stim/FN_017_g.png"",""time"":340.5},{""stimulus"":""blank"",""time"":640.6000000238419},{""stimulus"":""https://ziweizhang0304.github.io/Stats_learning_trig/img/Stim/FN_002_g.png"",""time"":680.4000000357628},{""stimulus"":""blank"",""time"":980.6000000238419},{""stimulus"":""https://ziweizhang0304.github.io/Stats_learning_trig/img/Stim/FN_022_g.png"",""time"":1020.4000000357628},{""stimulus"":""blank"",""time"":1320.7000000476837},{""stimulus"":""https://ziweizhang0304.github.io/Stats_learning_trig/img/Stim/FN_019_g.png"",""time"":1360.5},{""stimulus"":""blank"",""time"":1660.6000000238419},{""stimulus"":""https://ziweizhang0304.github.io/Stats_learning_trig/img/Stim/FN_024_g.png"",""time"":1700.4000000357628},{""stimulus"":""blank"",""time"":2000.6000000238419},{""stimulus"":""https://ziweizhang0304.github.io/Stats_learning_trig/img/Stim/FN_011_g.png"",""time"":2040.4000000357628},{""stimulus"":""blank"",""time"":2340.600000023842},{""stimulus"":""https://ziweizhang0304.github.io/Stats_learning_trig/img/Stim/FN_023_g.png"",""time"":2380.5},{""stimulus"":""blank"",""time"":2680.600000023842},{""stimulus"":""https://ziweizhang0304.github.io/Stats_learning_trig/img/Stim/FN_018_g.png"",""time"":2720.5},{""stimulus"":""blank"",""time"":3020.7000000476837},{""stimulus"":""https://ziweizhang0304.github.io/Stats_learning_trig/img/Stim/FN_008_g.png"",""time"":3060.5},{""stimulus"":""blank"",""time"":3360.600000023842},{""stimulus"":""https://ziweizhang0304.github.io/Stats_learning_trig/img/Stim/FN_010_g.png"",""time"":3400.5},{""stimulus"":""blank"",""time"":3700.7000000476837},{""stimulus"":""https://ziweizhang0304.github.io/Stats_learning_trig/img/Stim/FN_020_g.png"",""time"":3740.400000035763},{""stimulus"":""blank"",""time"":4040.5},{""stimulus"":""https://ziweizhang0304.github.io/Stats_learning_trig/img/Stim/FN_004_g.png"",""time"":4080.5},{""stimulus"":""blank"",""time"":4380.700000047684}]","[{""key_press"":32,""rt"":3029,""stimulus"":""blank""},{""key_press"":32,""rt"":3647.100000023842,""stimulus"":""https://ziweizhang0304.github.io/Stats_learning_trig/img/Stim/FN_010_g.png""}]","586.6000000238419","https://ziweizhang0304.github.io/Stats_learning_trig/img/Stim/FN_008_g.png","post_TD","23","3060.5","3647.100000023842","slow","9","3","5ec62902bb44c16b842128f9","","","","","",""
"","image-keyboard-response","59","218336","0.0-5.0-23.0-0.0","1765.800000011921","","","https://ziweizhang0304.github.io/Stats_learning_trig/img/Stim/FN_018_g.png","13","","","","","","","","","","","","","","","","","",""
"","animation","60","222757","0.0-5.0-23.0-1.0","","","","","","[{""stimulus"":""https://ziweizhang0304.github.io/Stats_learning_trig/img/Stim/FN_010_g.png"",""time"":340.5},{""stimulus"":""blank"",""time"":640.6000000238419},{""stimulus"":""https://ziweizhang0304.github.io/Stats_learning_trig/img/Stim/FN_011_g.png"",""time"":680.5},{""stimulus"":""blank"",""time"":980.6000000238419},{""stimulus"":""https://ziweizhang0304.github.io/Stats_learning_trig/img/Stim/FN_002_g.png"",""time"":1020.3000000119209},{""stimulus"":""blank"",""time"":1320.6000000238419},{""stimulus"":""https://ziweizhang0304.github.io/Stats_learning_trig/img/Stim/FN_022_g.png"",""time"":1360.3999999761581},{""stimulus"":""blank"",""time"":1660.6000000238419},{""stimulus"":""https://ziweizhang0304.github.io/Stats_learning_trig/img/Stim/FN_019_g.png"",""time"":1700.3999999761581},{""stimulus"":""blank"",""time"":2000.6000000238419},{""stimulus"":""https://ziweizhang0304.github.io/Stats_learning_trig/img/Stim/FN_023_g.png"",""time"":2040.3999999761581},{""stimulus"":""blank"",""time"":2340.600000023842},{""stimulus"":""https://ziweizhang0304.github.io/Stats_learning_trig/img/Stim/FN_018_g.png"",""time"":2380.399999976158},{""stimulus"":""blank"",""time"":2680.699999988079},{""stimulus"":""https://ziweizhang0304.github.io/Stats_learning_trig/img/Stim/FN_008_g.png"",""time"":2720.399999976158},{""stimulus"":""blank"",""time"":3020.5},{""stimulus"":""https://ziweizhang0304.github.io/Stats_learning_trig/img/Stim/FN_017_g.png"",""time"":3060.699999988079},{""stimulus"":""blank"",""time"":3360.800000011921},{""stimulus"":""https://ziweizhang0304.github.io/Stats_learning_trig/img/Stim/FN_020_g.png"",""time"":3400.399999976158},{""stimulus"":""blank"",""time"":3700.600000023842},{""stimulus"":""https://ziweizhang0304.github.io/Stats_learning_trig/img/Stim/FN_004_g.png"",""time"":3740.399999976158},{""stimulus"":""blank"",""time"":4040.600000023842},{""stimulus"":""https://ziweizhang0304.github.io/Stats_learning_trig/img/Stim/FN_024_g.png"",""time"":4080.5},{""stimulus"":""blank"",""time"":4380.699999988079}]","[{""key_press"":32,""rt"":2755.399999976158,""stimulus"":""https://ziweizhang0304.github.io/Stats_learning_trig/img/Stim/FN_008_g.png""},{""key_press"":32,""rt"":3042.399999976158,""stimulus"":""blank""}]","375","https://ziweizhang0304.github.io/Stats_learning_trig/img/Stim/FN_018_g.png","post_TD","24","2380.399999976158","2755.399999976158","slow","7","2","5ec62902bb44c16b842128f9","f2ac2","","","","",""
"","survey-text","61","237738","0.0-6.0","14976.900000035763","","","","","","","","","","","","","","","","","","{""Q0"":""Tried remembering the shape in my head and visualizing it.""}","","","",""
"","survey-text","62","241933","0.0-7.0","4192.699999988079","","","","","","","","","","","","","","","","","","{""[object Object]"":""No.""}","","","",""
"","instructions","63","247639","0.0-8.0","5706.5","","[{""page_index"":0,""viewing_time"":5706.299999952316}]","","","","","","","","","","","","","","","","","","","",""
"","free-sort","64","255829","0.0-9.0","8187.799999952316","","","","","","","","","post_drag","","","","fast","","","","","","[{""src"":""https://ziweizhang0304.github.io/Stats_learning_trig/img/Stim/FN_012_g.png"",""x"":475,""y"":0},{""src"":""https://ziweizhang0304.github.io/Stats_learning_trig/img/Stim/FN_015_g.png"",""x"":-225,""y"":50},{""src"":""https://ziweizhang0304.github.io/Stats_learning_trig/img/Stim/FN_026_g.png"",""x"":475,""y"":50}]","[{""src"":""https://ziweizhang0304.github.io/Stats_learning_trig/img/Stim/FN_015_g.png"",""x"":54,""y"":22},{""src"":""https://ziweizhang0304.github.io/Stats_learning_trig/img/Stim/FN_012_g.png"",""x"":97,""y"":14},{""src"":""https://ziweizhang0304.github.io/Stats_learning_trig/img/Stim/FN_026_g.png"",""x"":219,""y"":43}]","[{""src"":""https://ziweizhang0304.github.io/Stats_learning_trig/img/Stim/FN_012_g.png"",""x"":97,""y"":14},{""src"":""https://ziweizhang0304.github.io/Stats_learning_trig/img/Stim/FN_015_g.png"",""x"":54,""y"":22},{""src"":""https://ziweizhang0304.github.io/Stats_learning_trig/img/Stim/FN_026_g.png"",""x"":219,""y"":43}]",""
"","free-sort","65","260719","0.0-10.0","4889","","","","","","","","","post_drag","","","","slow","","","","","","[{""src"":""https://ziweizhang0304.github.io/Stats_learning_trig/img/Stim/FN_023_g.png"",""x"":475,""y"":0},{""src"":""https://ziweizhang0304.github.io/Stats_learning_trig/img/Stim/FN_018_g.png"",""x"":-225,""y"":50},{""src"":""https://ziweizhang0304.github.io/Stats_learning_trig/img/Stim/FN_008_g.png"",""x"":475,""y"":50}]","[{""src"":""https://ziweizhang0304.github.io/Stats_learning_trig/img/Stim/FN_018_g.png"",""x"":33,""y"":25},{""src"":""https://ziweizhang0304.github.io/Stats_learning_trig/img/Stim/FN_008_g.png"",""x"":109,""y"":17},{""src"":""https://ziweizhang0304.github.io/Stats_learning_trig/img/Stim/FN_023_g.png"",""x"":203,""y"":32}]","[{""src"":""https://ziweizhang0304.github.io/Stats_learning_trig/img/Stim/FN_023_g.png"",""x"":203,""y"":32},{""src"":""https://ziweizhang0304.github.io/Stats_learning_trig/img/Stim/FN_018_g.png"",""x"":33,""y"":25},{""src"":""https://ziweizhang0304.github.io/Stats_learning_trig/img/Stim/FN_008_g.png"",""x"":109,""y"":17}]",""
"","survey-multi-choice","66","274517","0.0-11.0","13794.599999964237","","","","","","","","","","","","","","","","5ec62902bb44c16b842128f9","","{""awareness"":""No"",""attention_check"":""Press SPACEBAR to a target""}","","","","[0,1]"
