"success","trial_type","trial_index","time_elapsed","internal_node_id","rt","url","view_history","stimulus","key_press","animation_sequence","response","TD_rt","TD_target","test_part","TD_trial_number","onset","offset","attention_state","TD_target_position","TD_within_triplet_counter","participant","yoke_participant","responses","init_locations","moves","final_locations","question_order"
"true","fullscreen","0","2769","0.0-0.0","","","","","","","","","","","","","","","","","","","","","","",""
"","external-html","1","12842","0.0-1.0","9929.20000000298","https://ziweizhang0304.github.io/Stats_learning_trig/content/consent.html","","","","","","","","","","","","","","","","","","","","",""
"","instructions","2","39490","0.0-2.0","26643.20000000298","","[{""page_index"":0,""viewing_time"":1602.7000000029802},{""page_index"":1,""viewing_time"":9831.69999999553},{""page_index"":2,""viewing_time"":13568.20000000298},{""page_index"":3,""viewing_time"":1639.8999999985099}]","","","","","","","","","","","","","","","","","","","",""
"","image-keyboard-response","3","44580","0.0-3.0-0.0-0.0","5089.10000000149","","","https://ziweizhang0304.github.io/Stats_learning_trig/img/Stim/FN_007_g.png","13","","","","","","","","","","","","","","","","","",""
"","animation","4","49003","0.0-3.0-0.0-1.0","","","","","","[{""stimulus"":""https://ziweizhang0304.github.io/Stats_learning_trig/img/Stim/FN_009_g.png"",""time"":348.59999999403954},{""stimulus"":""blank"",""time"":655.8999999985099},{""stimulus"":""https://ziweizhang0304.github.io/Stats_learning_trig/img/Stim/FN_010_g.png"",""time"":688.1999999955297},{""stimulus"":""blank"",""time"":1000.7999999970198},{""stimulus"":""https://ziweizhang0304.github.io/Stats_learning_trig/img/Stim/FN_026_g.png"",""time"":1022.0999999940395},{""stimulus"":""blank"",""time"":1331.8999999985099},{""stimulus"":""https://ziweizhang0304.github.io/Stats_learning_trig/img/Stim/FN_008_g.png"",""time"":1364.2999999970198},{""stimulus"":""blank"",""time"":1673},{""stimulus"":""https://ziweizhang0304.github.io/Stats_learning_trig/img/Stim/FN_006_g.png"",""time"":1705.5},{""stimulus"":""blank"",""time"":2017.0999999940395},{""stimulus"":""https://ziweizhang0304.github.io/Stats_learning_trig/img/Stim/FN_020_g.png"",""time"":2048.5},{""stimulus"":""blank"",""time"":2358.1999999955297},{""stimulus"":""https://ziweizhang0304.github.io/Stats_learning_trig/img/Stim/FN_022_g.png"",""time"":2390.39999999851},{""stimulus"":""blank"",""time"":2704.2999999970198},{""stimulus"":""https://ziweizhang0304.github.io/Stats_learning_trig/img/Stim/FN_018_g.png"",""time"":2722.5999999940395},{""stimulus"":""blank"",""time"":3033.1999999955297},{""stimulus"":""https://ziweizhang0304.github.io/Stats_learning_trig/img/Stim/FN_019_g.png"",""time"":3065.5},{""stimulus"":""blank"",""time"":3376.5},{""stimulus"":""https://ziweizhang0304.github.io/Stats_learning_trig/img/Stim/FN_007_g.png"",""time"":3408.5999999940395},{""stimulus"":""blank"",""time"":3720.5999999940395},{""stimulus"":""https://ziweizhang0304.github.io/Stats_learning_trig/img/Stim/FN_024_g.png"",""time"":3752.39999999851},{""stimulus"":""blank"",""time"":4064.5999999940395},{""stimulus"":""https://ziweizhang0304.github.io/Stats_learning_trig/img/Stim/FN_023_g.png"",""time"":4096.0999999940395},{""stimulus"":""blank"",""time"":4405.69999999553}]","[{""key_press"":32,""rt"":3816,""stimulus"":""https://ziweizhang0304.github.io/Stats_learning_trig/img/Stim/FN_024_g.png""}]","407.40000000596046","https://ziweizhang0304.github.io/Stats_learning_trig/img/Stim/FN_007_g.png","post_prac","","","","","","","","","","","","",""
"","html-keyboard-response","5","56788","0.0-3.0-0.0-2.0","7778.5","","","<p>Your reaction time for this trial was 407.4 ms.</p><p>Remember that you should only press the SPACEBAR when you see the shape presented at the beginning of the trial. </b> </p><p>Press enter to move on.</p>","13","","","","","","","","","","","","","","","","","",""
"","image-keyboard-response","6","60149","0.0-3.0-1.0-0.0","3360.7999999970198","","","https://ziweizhang0304.github.io/Stats_learning_trig/img/Stim/FN_007_g.png","13","","","","","","","","","","","","","","","","","",""
"","animation","7","64582","0.0-3.0-1.0-1.0","","","","","","[{""stimulus"":""https://ziweizhang0304.github.io/Stats_learning_trig/img/Stim/FN_026_g.png"",""time"":356.40000000596046},{""stimulus"":""blank"",""time"":660.9000000059605},{""stimulus"":""https://ziweizhang0304.github.io/Stats_learning_trig/img/Stim/FN_006_g.png"",""time"":682.3000000044703},{""stimulus"":""blank"",""time"":996.1000000014901},{""stimulus"":""https://ziweizhang0304.github.io/Stats_learning_trig/img/Stim/FN_018_g.png"",""time"":1027.5},{""stimulus"":""blank"",""time"":1338.2000000029802},{""stimulus"":""https://ziweizhang0304.github.io/Stats_learning_trig/img/Stim/FN_019_g.png"",""time"":1369.6000000014901},{""stimulus"":""blank"",""time"":1680.3000000044703},{""stimulus"":""https://ziweizhang0304.github.io/Stats_learning_trig/img/Stim/FN_022_g.png"",""time"":1711.7000000029802},{""stimulus"":""blank"",""time"":2026},{""stimulus"":""https://ziweizhang0304.github.io/Stats_learning_trig/img/Stim/FN_008_g.png"",""time"":2041.3000000044703},{""stimulus"":""blank"",""time"":2355.5},{""stimulus"":""https://ziweizhang0304.github.io/Stats_learning_trig/img/Stim/FN_007_g.png"",""time"":2386.9000000059605},{""stimulus"":""blank"",""time"":2701.5},{""stimulus"":""https://ziweizhang0304.github.io/Stats_learning_trig/img/Stim/FN_023_g.png"",""time"":2721.9000000059605},{""stimulus"":""blank"",""time"":3026.7000000029802},{""stimulus"":""https://ziweizhang0304.github.io/Stats_learning_trig/img/Stim/FN_010_g.png"",""time"":3074},{""stimulus"":""blank"",""time"":3386.7000000029802},{""stimulus"":""https://ziweizhang0304.github.io/Stats_learning_trig/img/Stim/FN_020_g.png"",""time"":3403},{""stimulus"":""blank"",""time"":3712.8000000044703},{""stimulus"":""https://ziweizhang0304.github.io/Stats_learning_trig/img/Stim/FN_024_g.png"",""time"":3744.2000000029802},{""stimulus"":""blank"",""time"":4056},{""stimulus"":""https://ziweizhang0304.github.io/Stats_learning_trig/img/Stim/FN_009_g.png"",""time"":4086.4000000059605},{""stimulus"":""blank"",""time"":4400.9000000059605}]","[{""key_press"":32,""rt"":2747.8000000044703,""stimulus"":""https://ziweizhang0304.github.io/Stats_learning_trig/img/Stim/FN_023_g.png""}]","360.8999999985099","https://ziweizhang0304.github.io/Stats_learning_trig/img/Stim/FN_007_g.png","post_prac","","","","","","","","","","","","",""
"","html-keyboard-response","8","69922","0.0-3.0-1.0-2.0","5337.19999999553","","","<p>Your reaction time for this trial was 360.9 ms.</p><p>Remember that you should only press the SPACEBAR when you see the shape presented at the beginning of the trial. </b> </p><p>Press enter to move on.</p>","13","","","","","","","","","","","","","","","","","",""
"","image-keyboard-response","9","72794","0.0-3.0-2.0-0.0","2871.7000000029802","","","https://ziweizhang0304.github.io/Stats_learning_trig/img/Stim/FN_007_g.png","13","","","","","","","","","","","","","","","","","",""
"","animation","10","77224","0.0-3.0-2.0-1.0","","","","","","[{""stimulus"":""https://ziweizhang0304.github.io/Stats_learning_trig/img/Stim/FN_019_g.png"",""time"":352.70000000298023},{""stimulus"":""blank"",""time"":663.2000000029802},{""stimulus"":""https://ziweizhang0304.github.io/Stats_learning_trig/img/Stim/FN_006_g.png"",""time"":694.6000000014901},{""stimulus"":""blank"",""time"":1006.3000000044703},{""stimulus"":""https://ziweizhang0304.github.io/Stats_learning_trig/img/Stim/FN_026_g.png"",""time"":1021.8000000044703},{""stimulus"":""blank"",""time"":1333.5},{""stimulus"":""https://ziweizhang0304.github.io/Stats_learning_trig/img/Stim/FN_022_g.png"",""time"":1361.5},{""stimulus"":""blank"",""time"":1676.5},{""stimulus"":""https://ziweizhang0304.github.io/Stats_learning_trig/img/Stim/FN_008_g.png"",""time"":1708},{""stimulus"":""blank"",""time"":2020.5},{""stimulus"":""https://ziweizhang0304.github.io/Stats_learning_trig/img/Stim/FN_007_g.png"",""time"":2051.9000000059605},{""stimulus"":""blank"",""time"":2352.8000000044703},{""stimulus"":""https://ziweizhang0304.github.io/Stats_learning_trig/img/Stim/FN_023_g.png"",""time"":2383.60000000149},{""stimulus"":""blank"",""time"":2695.7000000029802},{""stimulus"":""https://ziweizhang0304.github.io/Stats_learning_trig/img/Stim/FN_010_g.png"",""time"":2728.10000000149},{""stimulus"":""blank"",""time"":3037.8000000044703},{""stimulus"":""https://ziweizhang0304.github.io/Stats_learning_trig/img/Stim/FN_020_g.png"",""time"":3069.2000000029802},{""stimulus"":""blank"",""time"":3380.9000000059605},{""stimulus"":""https://ziweizhang0304.github.io/Stats_learning_trig/img/Stim/FN_024_g.png"",""time"":3402.2000000029802},{""stimulus"":""blank"",""time"":3709.10000000149},{""stimulus"":""https://ziweizhang0304.github.io/Stats_learning_trig/img/Stim/FN_009_g.png"",""time"":3741.5},{""stimulus"":""blank"",""time"":4054.10000000149},{""stimulus"":""https://ziweizhang0304.github.io/Stats_learning_trig/img/Stim/FN_018_g.png"",""time"":4086.5},{""stimulus"":""blank"",""time"":4398.30000000447}]","[{""key_press"":32,""rt"":2385.60000000149,""stimulus"":""https://ziweizhang0304.github.io/Stats_learning_trig/img/Stim/FN_023_g.png""}]","333.69999999552965","https://ziweizhang0304.github.io/Stats_learning_trig/img/Stim/FN_007_g.png","post_prac","","","","","","","","","","","","",""
"","html-keyboard-response","11","79575","0.0-3.0-2.0-2.0","2347.5999999940395","","","<p>Your reaction time for this trial was 333.7 ms.</p><p>Remember that you should only press the SPACEBAR when you see the shape presented at the beginning of the trial. </b> </p><p>Press enter to move on.</p>","13","","","","","","","","","","","","","","","","","",""
"","instructions","12","82186","0.0-4.0","2611","","[{""page_index"":0,""viewing_time"":2610.7999999970198}]","","","","","","","","","","","","","","","","","","","",""
"","image-keyboard-response","13","86520","0.0-5.0-0.0-0.0","4333.39999999851","","","https://ziweizhang0304.github.io/Stats_learning_trig/img/Stim/FN_011_g.png","13","","","","","","","","","","","","","","","","","",""
"","animation","14","90941","0.0-5.0-0.0-1.0","","","","","","[{""stimulus"":""https://ziweizhang0304.github.io/Stats_learning_trig/img/Stim/FN_019_g.png"",""time"":342.3999999985099},{""stimulus"":""blank"",""time"":657.2999999970198},{""stimulus"":""https://ziweizhang0304.github.io/Stats_learning_trig/img/Stim/FN_006_g.png"",""time"":681.6000000014901},{""stimulus"":""blank"",""time"":983.3999999985099},{""stimulus"":""https://ziweizhang0304.github.io/Stats_learning_trig/img/Stim/FN_024_g.png"",""time"":1020.7000000029802},{""stimulus"":""blank"",""time"":1327.6000000014901},{""stimulus"":""https://ziweizhang0304.github.io/Stats_learning_trig/img/Stim/FN_016_g.png"",""time"":1373.8999999985099},{""stimulus"":""blank"",""time"":1689.5},{""stimulus"":""https://ziweizhang0304.github.io/Stats_learning_trig/img/Stim/FN_011_g.png"",""time"":1701.8999999985099},{""stimulus"":""blank"",""time"":2009.7000000029802},{""stimulus"":""https://ziweizhang0304.github.io/Stats_learning_trig/img/Stim/FN_002_g.png"",""time"":2041},{""stimulus"":""blank"",""time"":2354.7999999970198},{""stimulus"":""https://ziweizhang0304.github.io/Stats_learning_trig/img/Stim/FN_010_g.png"",""time"":2382},{""stimulus"":""blank"",""time"":2685},{""stimulus"":""https://ziweizhang0304.github.io/Stats_learning_trig/img/Stim/FN_020_g.png"",""time"":2721.2999999970198},{""stimulus"":""blank"",""time"":3025.10000000149},{""stimulus"":""https://ziweizhang0304.github.io/Stats_learning_trig/img/Stim/FN_009_g.png"",""time"":3062.2000000029802},{""stimulus"":""blank"",""time"":3372.10000000149},{""stimulus"":""https://ziweizhang0304.github.io/Stats_learning_trig/img/Stim/FN_026_g.png"",""time"":3404.5},{""stimulus"":""blank"",""time"":3719},{""stimulus"":""https://ziweizhang0304.github.io/Stats_learning_trig/img/Stim/FN_022_g.png"",""time"":3751.7000000029802},{""stimulus"":""blank"",""time"":4062.2000000029802},{""stimulus"":""https://ziweizhang0304.github.io/Stats_learning_trig/img/Stim/FN_018_g.png"",""time"":4082.5},{""stimulus"":""blank"",""time"":4389.29999999702}]","[{""key_press"":32,""rt"":2028.3999999985099,""stimulus"":""blank""}]","326.5","https://ziweizhang0304.github.io/Stats_learning_trig/img/Stim/FN_011_g.png","post_TD","1","1701.8999999985099","2028.3999999985099","fast","5","2","60e5d47e17c05633eef565e3","","","","","",""
"","image-keyboard-response","15","94008","0.0-5.0-1.0-0.0","3063.1999999955297","","","https://ziweizhang0304.github.io/Stats_learning_trig/img/Stim/FN_008_g.png","13","","","","","","","","","","","","","","","","","",""
"","animation","16","98430","0.0-5.0-1.0-1.0","","","","","","[{""stimulus"":""https://ziweizhang0304.github.io/Stats_learning_trig/img/Stim/FN_009_g.png"",""time"":355.40000000596046},{""stimulus"":""blank"",""time"":670},{""stimulus"":""https://ziweizhang0304.github.io/Stats_learning_trig/img/Stim/FN_006_g.png"",""time"":681},{""stimulus"":""blank"",""time"":996.1000000014901},{""stimulus"":""https://ziweizhang0304.github.io/Stats_learning_trig/img/Stim/FN_019_g.png"",""time"":1027.5},{""stimulus"":""blank"",""time"":1342.2000000029802},{""stimulus"":""https://ziweizhang0304.github.io/Stats_learning_trig/img/Stim/FN_008_g.png"",""time"":1373.5},{""stimulus"":""blank"",""time"":1681.2000000029802},{""stimulus"":""https://ziweizhang0304.github.io/Stats_learning_trig/img/Stim/FN_007_g.png"",""time"":1700.9000000059605},{""stimulus"":""blank"",""time"":2012.4000000059605},{""stimulus"":""https://ziweizhang0304.github.io/Stats_learning_trig/img/Stim/FN_023_g.png"",""time"":2041.7000000029802},{""stimulus"":""blank"",""time"":2355.4000000059605},{""stimulus"":""https://ziweizhang0304.github.io/Stats_learning_trig/img/Stim/FN_010_g.png"",""time"":2386.8000000044703},{""stimulus"":""blank"",""time"":2700.5},{""stimulus"":""https://ziweizhang0304.github.io/Stats_learning_trig/img/Stim/FN_020_g.png"",""time"":2722},{""stimulus"":""blank"",""time"":3028.60000000149},{""stimulus"":""https://ziweizhang0304.github.io/Stats_learning_trig/img/Stim/FN_024_g.png"",""time"":3062},{""stimulus"":""blank"",""time"":3372.8000000044703},{""stimulus"":""https://ziweizhang0304.github.io/Stats_learning_trig/img/Stim/FN_026_g.png"",""time"":3405.10000000149},{""stimulus"":""blank"",""time"":3715.9000000059605},{""stimulus"":""https://ziweizhang0304.github.io/Stats_learning_trig/img/Stim/FN_022_g.png"",""time"":3746.9000000059605},{""stimulus"":""blank"",""time"":4058.9000000059605},{""stimulus"":""https://ziweizhang0304.github.io/Stats_learning_trig/img/Stim/FN_018_g.png"",""time"":4090.3000000044703},{""stimulus"":""blank"",""time"":4402}]","[{""key_press"":32,""rt"":1731.1000000014901,""stimulus"":""https://ziweizhang0304.github.io/Stats_learning_trig/img/Stim/FN_007_g.png""}]","357.6000000014901","https://ziweizhang0304.github.io/Stats_learning_trig/img/Stim/FN_008_g.png","post_TD","2","1373.5","1731.1000000014901","slow","4","1","60e5d47e17c05633eef565e3","","","","","",""
"","image-keyboard-response","17","101311","0.0-5.0-2.0-0.0","2878.60000000149","","","https://ziweizhang0304.github.io/Stats_learning_trig/img/Stim/FN_016_g.png","13","","","","","","","","","","","","","","","","","",""
"","animation","18","105738","0.0-5.0-2.0-1.0","","","","","","[{""stimulus"":""https://ziweizhang0304.github.io/Stats_learning_trig/img/Stim/FN_010_g.png"",""time"":349.40000000596046},{""stimulus"":""blank"",""time"":658.8000000044703},{""stimulus"":""https://ziweizhang0304.github.io/Stats_learning_trig/img/Stim/FN_006_g.png"",""time"":690.3000000044703},{""stimulus"":""blank"",""time"":1001.9000000059605},{""stimulus"":""https://ziweizhang0304.github.io/Stats_learning_trig/img/Stim/FN_009_g.png"",""time"":1034.3000000044703},{""stimulus"":""blank"",""time"":1349.1000000014901},{""stimulus"":""https://ziweizhang0304.github.io/Stats_learning_trig/img/Stim/FN_019_g.png"",""time"":1361.4000000059605},{""stimulus"":""blank"",""time"":1677.2000000029802},{""stimulus"":""https://ziweizhang0304.github.io/Stats_learning_trig/img/Stim/FN_016_g.png"",""time"":1708.3000000044703},{""stimulus"":""blank"",""time"":2019.4000000059605},{""stimulus"":""https://ziweizhang0304.github.io/Stats_learning_trig/img/Stim/FN_011_g.png"",""time"":2050.8000000044703},{""stimulus"":""blank"",""time"":2365.4000000059605},{""stimulus"":""https://ziweizhang0304.github.io/Stats_learning_trig/img/Stim/FN_002_g.png"",""time"":2381.7000000029802},{""stimulus"":""blank"",""time"":2690.4000000059605},{""stimulus"":""https://ziweizhang0304.github.io/Stats_learning_trig/img/Stim/FN_020_g.png"",""time"":2721.10000000149},{""stimulus"":""blank"",""time"":3034.60000000149},{""stimulus"":""https://ziweizhang0304.github.io/Stats_learning_trig/img/Stim/FN_024_g.png"",""time"":3061.9000000059605},{""stimulus"":""blank"",""time"":3378},{""stimulus"":""https://ziweizhang0304.github.io/Stats_learning_trig/img/Stim/FN_026_g.png"",""time"":3410.10000000149},{""stimulus"":""blank"",""time"":3722.7000000029802},{""stimulus"":""https://ziweizhang0304.github.io/Stats_learning_trig/img/Stim/FN_022_g.png"",""time"":3754.10000000149},{""stimulus"":""blank"",""time"":4069.8000000044703},{""stimulus"":""https://ziweizhang0304.github.io/Stats_learning_trig/img/Stim/FN_018_g.png"",""time"":4082.2000000029802},{""stimulus"":""blank"",""time"":4394.10000000149}]","[{""key_press"":32,""rt"":2082.5,""stimulus"":""https://ziweizhang0304.github.io/Stats_learning_trig/img/Stim/FN_011_g.png""}]","374.19999999552965","https://ziweizhang0304.github.io/Stats_learning_trig/img/Stim/FN_016_g.png","post_TD","3","1708.3000000044703","2082.5","fast","5","1","60e5d47e17c05633eef565e3","","","","","",""
"","image-keyboard-response","19","107883","0.0-5.0-3.0-0.0","2144.39999999851","","","https://ziweizhang0304.github.io/Stats_learning_trig/img/Stim/FN_016_g.png","13","","","","","","","","","","","","","","","","","",""
"","animation","20","112305","0.0-5.0-3.0-1.0","","","","","","[{""stimulus"":""https://ziweizhang0304.github.io/Stats_learning_trig/img/Stim/FN_019_g.png"",""time"":343.30000000447035},{""stimulus"":""blank"",""time"":652},{""stimulus"":""https://ziweizhang0304.github.io/Stats_learning_trig/img/Stim/FN_006_g.png"",""time"":684.4000000059605},{""stimulus"":""blank"",""time"":995},{""stimulus"":""https://ziweizhang0304.github.io/Stats_learning_trig/img/Stim/FN_024_g.png"",""time"":1026.4000000059605},{""stimulus"":""blank"",""time"":1341.1000000014901},{""stimulus"":""https://ziweizhang0304.github.io/Stats_learning_trig/img/Stim/FN_016_g.png"",""time"":1362.5},{""stimulus"":""blank"",""time"":1669.2000000029802},{""stimulus"":""https://ziweizhang0304.github.io/Stats_learning_trig/img/Stim/FN_011_g.png"",""time"":1706},{""stimulus"":""blank"",""time"":2011.3000000044703},{""stimulus"":""https://ziweizhang0304.github.io/Stats_learning_trig/img/Stim/FN_002_g.png"",""time"":2042.6000000014901},{""stimulus"":""blank"",""time"":2356.4000000059605},{""stimulus"":""https://ziweizhang0304.github.io/Stats_learning_trig/img/Stim/FN_010_g.png"",""time"":2387.7000000029802},{""stimulus"":""blank"",""time"":2699.5},{""stimulus"":""https://ziweizhang0304.github.io/Stats_learning_trig/img/Stim/FN_020_g.png"",""time"":2730.9000000059605},{""stimulus"":""blank"",""time"":3043.5},{""stimulus"":""https://ziweizhang0304.github.io/Stats_learning_trig/img/Stim/FN_009_g.png"",""time"":3061.9000000059605},{""stimulus"":""blank"",""time"":3372.7000000029802},{""stimulus"":""https://ziweizhang0304.github.io/Stats_learning_trig/img/Stim/FN_026_g.png"",""time"":3404.10000000149},{""stimulus"":""blank"",""time"":3715.8000000044703},{""stimulus"":""https://ziweizhang0304.github.io/Stats_learning_trig/img/Stim/FN_022_g.png"",""time"":3742},{""stimulus"":""blank"",""time"":4056.8000000044703},{""stimulus"":""https://ziweizhang0304.github.io/Stats_learning_trig/img/Stim/FN_018_g.png"",""time"":4087.9000000059605},{""stimulus"":""blank"",""time"":4402.9000000059605}]","[{""key_press"":32,""rt"":1705.1000000014901,""stimulus"":""blank""}]","342.6000000014901","https://ziweizhang0304.github.io/Stats_learning_trig/img/Stim/FN_016_g.png","post_TD","4","1362.5","1705.1000000014901","fast","4","1","60e5d47e17c05633eef565e3","","","","","",""
"","image-keyboard-response","21","113455","0.0-5.0-4.0-0.0","1147.3999999985099","","","https://ziweizhang0304.github.io/Stats_learning_trig/img/Stim/FN_023_g.png","13","","","","","","","","","","","","","","","","","",""
"","animation","22","117879","0.0-5.0-4.0-1.0","","","","","","[{""stimulus"":""https://ziweizhang0304.github.io/Stats_learning_trig/img/Stim/FN_010_g.png"",""time"":346.29999999701977},{""stimulus"":""blank"",""time"":654.7999999970198},{""stimulus"":""https://ziweizhang0304.github.io/Stats_learning_trig/img/Stim/FN_006_g.png"",""time"":681.7999999970198},{""stimulus"":""blank"",""time"":985.8999999985099},{""stimulus"":""https://ziweizhang0304.github.io/Stats_learning_trig/img/Stim/FN_018_g.png"",""time"":1034},{""stimulus"":""blank"",""time"":1347.8999999985099},{""stimulus"":""https://ziweizhang0304.github.io/Stats_learning_trig/img/Stim/FN_022_g.png"",""time"":1364.3999999985099},{""stimulus"":""blank"",""time"":1674.2000000029802},{""stimulus"":""https://ziweizhang0304.github.io/Stats_learning_trig/img/Stim/FN_019_g.png"",""time"":1705.5},{""stimulus"":""blank"",""time"":2019.2000000029802},{""stimulus"":""https://ziweizhang0304.github.io/Stats_learning_trig/img/Stim/FN_024_g.png"",""time"":2050.60000000149},{""stimulus"":""blank"",""time"":2362.2999999970198},{""stimulus"":""https://ziweizhang0304.github.io/Stats_learning_trig/img/Stim/FN_008_g.png"",""time"":2392.60000000149},{""stimulus"":""blank"",""time"":2703.2999999970198},{""stimulus"":""https://ziweizhang0304.github.io/Stats_learning_trig/img/Stim/FN_007_g.png"",""time"":2735.7999999970198},{""stimulus"":""blank"",""time"":3050.39999999851},{""stimulus"":""https://ziweizhang0304.github.io/Stats_learning_trig/img/Stim/FN_023_g.png"",""time"":3061.7999999970198},{""stimulus"":""blank"",""time"":3363.5},{""stimulus"":""https://ziweizhang0304.github.io/Stats_learning_trig/img/Stim/FN_020_g.png"",""time"":3400.89999999851},{""stimulus"":""blank"",""time"":3706.60000000149},{""stimulus"":""https://ziweizhang0304.github.io/Stats_learning_trig/img/Stim/FN_009_g.png"",""time"":3753},{""stimulus"":""blank"",""time"":4065.7000000029802},{""stimulus"":""https://ziweizhang0304.github.io/Stats_learning_trig/img/Stim/FN_026_g.png"",""time"":4082.10000000149},{""stimulus"":""blank"",""time"":4392.79999999702}]","[{""key_press"":32,""rt"":3400,""stimulus"":""blank""}]","338.20000000298023","https://ziweizhang0304.github.io/Stats_learning_trig/img/Stim/FN_023_g.png","post_TD","5","3061.7999999970198","3400","slow","9","3","60e5d47e17c05633eef565e3","","","","","",""
"","image-keyboard-response","23","118824","0.0-5.0-5.0-0.0","942.0999999940395","","","https://ziweizhang0304.github.io/Stats_learning_trig/img/Stim/FN_002_g.png","13","","","","","","","","","","","","","","","","","",""
"","animation","24","123255","0.0-5.0-5.0-1.0","","","","","","[{""stimulus"":""https://ziweizhang0304.github.io/Stats_learning_trig/img/Stim/FN_018_g.png"",""time"":352.20000000298023},{""stimulus"":""blank"",""time"":662.7000000029802},{""stimulus"":""https://ziweizhang0304.github.io/Stats_learning_trig/img/Stim/FN_006_g.png"",""time"":695.1000000014901},{""stimulus"":""blank"",""time"":1009.6000000014901},{""stimulus"":""https://ziweizhang0304.github.io/Stats_learning_trig/img/Stim/FN_019_g.png"",""time"":1022.1000000014901},{""stimulus"":""blank"",""time"":1322.9000000059605},{""stimulus"":""https://ziweizhang0304.github.io/Stats_learning_trig/img/Stim/FN_010_g.png"",""time"":1370.4000000059605},{""stimulus"":""blank"",""time"":1680.9000000059605},{""stimulus"":""https://ziweizhang0304.github.io/Stats_learning_trig/img/Stim/FN_022_g.png"",""time"":1712.4000000059605},{""stimulus"":""blank"",""time"":2024},{""stimulus"":""https://ziweizhang0304.github.io/Stats_learning_trig/img/Stim/FN_016_g.png"",""time"":2044.5},{""stimulus"":""blank"",""time"":2352.2000000029802},{""stimulus"":""https://ziweizhang0304.github.io/Stats_learning_trig/img/Stim/FN_011_g.png"",""time"":2382.4000000059605},{""stimulus"":""blank"",""time"":2693.4000000059605},{""stimulus"":""https://ziweizhang0304.github.io/Stats_learning_trig/img/Stim/FN_002_g.png"",""time"":2724.60000000149},{""stimulus"":""blank"",""time"":3025.3000000044703},{""stimulus"":""https://ziweizhang0304.github.io/Stats_learning_trig/img/Stim/FN_020_g.png"",""time"":3068.7000000029802},{""stimulus"":""blank"",""time"":3382.4000000059605},{""stimulus"":""https://ziweizhang0304.github.io/Stats_learning_trig/img/Stim/FN_024_g.png"",""time"":3413.8000000044703},{""stimulus"":""blank"",""time"":3728.4000000059605},{""stimulus"":""https://ziweizhang0304.github.io/Stats_learning_trig/img/Stim/FN_009_g.png"",""time"":3741.8000000044703},{""stimulus"":""blank"",""time"":4055.60000000149},{""stimulus"":""https://ziweizhang0304.github.io/Stats_learning_trig/img/Stim/FN_026_g.png"",""time"":4081.9000000059605},{""stimulus"":""blank"",""time"":4385.70000000298}]","[{""key_press"":32,""rt"":3021,""stimulus"":""https://ziweizhang0304.github.io/Stats_learning_trig/img/Stim/FN_002_g.png""}]","296.3999999985099","https://ziweizhang0304.github.io/Stats_learning_trig/img/Stim/FN_002_g.png","post_TD","6","2724.60000000149","3021","fast","8","3","60e5d47e17c05633eef565e3","","","","","",""
"","image-keyboard-response","25","124085","0.0-5.0-6.0-0.0","827.2999999970198","","","https://ziweizhang0304.github.io/Stats_learning_trig/img/Stim/FN_008_g.png","13","","","","","","","","","","","","","","","","","",""
"","animation","26","128520","0.0-5.0-6.0-1.0","","","","","","[{""stimulus"":""https://ziweizhang0304.github.io/Stats_learning_trig/img/Stim/FN_026_g.png"",""time"":341.79999999701977},{""stimulus"":""blank"",""time"":654.3999999985099},{""stimulus"":""https://ziweizhang0304.github.io/Stats_learning_trig/img/Stim/FN_006_g.png"",""time"":686.6999999955297},{""stimulus"":""blank"",""time"":996.3999999985099},{""stimulus"":""https://ziweizhang0304.github.io/Stats_learning_trig/img/Stim/FN_018_g.png"",""time"":1021.6999999955297},{""stimulus"":""blank"",""time"":1326.3999999985099},{""stimulus"":""https://ziweizhang0304.github.io/Stats_learning_trig/img/Stim/FN_019_g.png"",""time"":1374.8999999985099},{""stimulus"":""blank"",""time"":1686.5},{""stimulus"":""https://ziweizhang0304.github.io/Stats_learning_trig/img/Stim/FN_022_g.png"",""time"":1700.6000000014901},{""stimulus"":""blank"",""time"":2013.6999999955297},{""stimulus"":""https://ziweizhang0304.github.io/Stats_learning_trig/img/Stim/FN_008_g.png"",""time"":2046.1000000014901},{""stimulus"":""blank"",""time"":2357.7999999970198},{""stimulus"":""https://ziweizhang0304.github.io/Stats_learning_trig/img/Stim/FN_007_g.png"",""time"":2382.10000000149},{""stimulus"":""blank"",""time"":2686.89999999851},{""stimulus"":""https://ziweizhang0304.github.io/Stats_learning_trig/img/Stim/FN_023_g.png"",""time"":2722.10000000149},{""stimulus"":""blank"",""time"":3029.89999999851},{""stimulus"":""https://ziweizhang0304.github.io/Stats_learning_trig/img/Stim/FN_010_g.png"",""time"":3076.1999999955297},{""stimulus"":""blank"",""time"":3390},{""stimulus"":""https://ziweizhang0304.github.io/Stats_learning_trig/img/Stim/FN_020_g.png"",""time"":3402.39999999851},{""stimulus"":""blank"",""time"":3716.10000000149},{""stimulus"":""https://ziweizhang0304.github.io/Stats_learning_trig/img/Stim/FN_024_g.png"",""time"":3747.5},{""stimulus"":""blank"",""time"":4060.2999999970198},{""stimulus"":""https://ziweizhang0304.github.io/Stats_learning_trig/img/Stim/FN_009_g.png"",""time"":4092.60000000149},{""stimulus"":""blank"",""time"":4403.29999999702}]","[{""key_press"":32,""rt"":2404.7999999970198,""stimulus"":""https://ziweizhang0304.github.io/Stats_learning_trig/img/Stim/FN_007_g.png""}]","358.69999999552965","https://ziweizhang0304.github.io/Stats_learning_trig/img/Stim/FN_008_g.png","post_TD","7","2046.1000000014901","2404.7999999970198","slow","6","1","60e5d47e17c05633eef565e3","","","","","",""
"","image-keyboard-response","27","129379","0.0-5.0-7.0-0.0","855.8999999985099","","","https://ziweizhang0304.github.io/Stats_learning_trig/img/Stim/FN_023_g.png","13","","","","","","","","","","","","","","","","","",""
"","animation","28","133802","0.0-5.0-7.0-1.0","","","","","","[{""stimulus"":""https://ziweizhang0304.github.io/Stats_learning_trig/img/Stim/FN_009_g.png"",""time"":346.90000000596046},{""stimulus"":""blank"",""time"":657.4000000059605},{""stimulus"":""https://ziweizhang0304.github.io/Stats_learning_trig/img/Stim/FN_006_g.png"",""time"":689.9000000059605},{""stimulus"":""blank"",""time"":1001.5},{""stimulus"":""https://ziweizhang0304.github.io/Stats_learning_trig/img/Stim/FN_019_g.png"",""time"":1021.9000000059605},{""stimulus"":""blank"",""time"":1328.7000000029802},{""stimulus"":""https://ziweizhang0304.github.io/Stats_learning_trig/img/Stim/FN_008_g.png"",""time"":1361.3000000044703},{""stimulus"":""blank"",""time"":1671.8000000044703},{""stimulus"":""https://ziweizhang0304.github.io/Stats_learning_trig/img/Stim/FN_007_g.png"",""time"":1704.2000000029802},{""stimulus"":""blank"",""time"":2016.8000000044703},{""stimulus"":""https://ziweizhang0304.github.io/Stats_learning_trig/img/Stim/FN_023_g.png"",""time"":2047.3000000044703},{""stimulus"":""blank"",""time"":2359.9000000059605},{""stimulus"":""https://ziweizhang0304.github.io/Stats_learning_trig/img/Stim/FN_010_g.png"",""time"":2391},{""stimulus"":""blank"",""time"":2704},{""stimulus"":""https://ziweizhang0304.github.io/Stats_learning_trig/img/Stim/FN_020_g.png"",""time"":2722.3000000044703},{""stimulus"":""blank"",""time"":3030.10000000149},{""stimulus"":""https://ziweizhang0304.github.io/Stats_learning_trig/img/Stim/FN_024_g.png"",""time"":3061.60000000149},{""stimulus"":""blank"",""time"":3373.2000000029802},{""stimulus"":""https://ziweizhang0304.github.io/Stats_learning_trig/img/Stim/FN_026_g.png"",""time"":3401.60000000149},{""stimulus"":""blank"",""time"":3716.3000000044703},{""stimulus"":""https://ziweizhang0304.github.io/Stats_learning_trig/img/Stim/FN_022_g.png"",""time"":3747.7000000029802},{""stimulus"":""blank"",""time"":4060.4000000059605},{""stimulus"":""https://ziweizhang0304.github.io/Stats_learning_trig/img/Stim/FN_018_g.png"",""time"":4091.7000000029802},{""stimulus"":""blank"",""time"":4406.30000000447}]","[{""key_press"":32,""rt"":2392.10000000149,""stimulus"":""https://ziweizhang0304.github.io/Stats_learning_trig/img/Stim/FN_010_g.png""}]","344.79999999701977","https://ziweizhang0304.github.io/Stats_learning_trig/img/Stim/FN_023_g.png","post_TD","8","2047.3000000044703","2392.10000000149","slow","6","3","60e5d47e17c05633eef565e3","","","","","",""
"","image-keyboard-response","29","134668","0.0-5.0-8.0-0.0","863.7999999970198","","","https://ziweizhang0304.github.io/Stats_learning_trig/img/Stim/FN_002_g.png","13","","","","","","","","","","","","","","","","","",""
"","animation","30","139090","0.0-5.0-8.0-1.0","","","","","","[{""stimulus"":""https://ziweizhang0304.github.io/Stats_learning_trig/img/Stim/FN_018_g.png"",""time"":350.5},{""stimulus"":""blank"",""time"":664},{""stimulus"":""https://ziweizhang0304.github.io/Stats_learning_trig/img/Stim/FN_006_g.png"",""time"":695.3999999985099},{""stimulus"":""blank"",""time"":1010.2000000029802},{""stimulus"":""https://ziweizhang0304.github.io/Stats_learning_trig/img/Stim/FN_024_g.png"",""time"":1021.5},{""stimulus"":""blank"",""time"":1337.2999999970198},{""stimulus"":""https://ziweizhang0304.github.io/Stats_learning_trig/img/Stim/FN_022_g.png"",""time"":1368.7000000029802},{""stimulus"":""blank"",""time"":1681.3999999985099},{""stimulus"":""https://ziweizhang0304.github.io/Stats_learning_trig/img/Stim/FN_009_g.png"",""time"":1712.8999999985099},{""stimulus"":""blank"",""time"":2022.3999999985099},{""stimulus"":""https://ziweizhang0304.github.io/Stats_learning_trig/img/Stim/FN_020_g.png"",""time"":2053.7999999970198},{""stimulus"":""blank"",""time"":2366.60000000149},{""stimulus"":""https://ziweizhang0304.github.io/Stats_learning_trig/img/Stim/FN_016_g.png"",""time"":2382.60000000149},{""stimulus"":""blank"",""time"":2694.7000000029802},{""stimulus"":""https://ziweizhang0304.github.io/Stats_learning_trig/img/Stim/FN_011_g.png"",""time"":2726.7999999970198},{""stimulus"":""blank"",""time"":3039.7000000029802},{""stimulus"":""https://ziweizhang0304.github.io/Stats_learning_trig/img/Stim/FN_002_g.png"",""time"":3071.7000000029802},{""stimulus"":""blank"",""time"":3383.7999999970198},{""stimulus"":""https://ziweizhang0304.github.io/Stats_learning_trig/img/Stim/FN_010_g.png"",""time"":3402.2000000029802},{""stimulus"":""blank"",""time"":3710.39999999851},{""stimulus"":""https://ziweizhang0304.github.io/Stats_learning_trig/img/Stim/FN_026_g.png"",""time"":3756.2999999970198},{""stimulus"":""blank"",""time"":4071},{""stimulus"":""https://ziweizhang0304.github.io/Stats_learning_trig/img/Stim/FN_019_g.png"",""time"":4086.2999999970198},{""stimulus"":""blank"",""time"":4397.10000000149}]","[{""key_press"":32,""rt"":3396.6999999955297,""stimulus"":""blank""}]","324.9999999925494","https://ziweizhang0304.github.io/Stats_learning_trig/img/Stim/FN_002_g.png","post_TD","9","3071.7000000029802","3396.6999999955297","fast","9","3","60e5d47e17c05633eef565e3","","","","","",""
"","image-keyboard-response","31","139938","0.0-5.0-9.0-0.0","845.7999999970198","","","https://ziweizhang0304.github.io/Stats_learning_trig/img/Stim/FN_008_g.png","13","","","","","","","","","","","","","","","","","",""
"","animation","32","144359","0.0-5.0-9.0-1.0","","","","","","[{""stimulus"":""https://ziweizhang0304.github.io/Stats_learning_trig/img/Stim/FN_010_g.png"",""time"":348.70000000298023},{""stimulus"":""blank"",""time"":662.3000000044703},{""stimulus"":""https://ziweizhang0304.github.io/Stats_learning_trig/img/Stim/FN_006_g.png"",""time"":692.5},{""stimulus"":""blank"",""time"":1004.4000000059605},{""stimulus"":""https://ziweizhang0304.github.io/Stats_learning_trig/img/Stim/FN_018_g.png"",""time"":1020.9000000059605},{""stimulus"":""blank"",""time"":1331.4000000059605},{""stimulus"":""https://ziweizhang0304.github.io/Stats_learning_trig/img/Stim/FN_022_g.png"",""time"":1361.8000000044703},{""stimulus"":""blank"",""time"":1674.5},{""stimulus"":""https://ziweizhang0304.github.io/Stats_learning_trig/img/Stim/FN_019_g.png"",""time"":1706.9000000059605},{""stimulus"":""blank"",""time"":2021.5},{""stimulus"":""https://ziweizhang0304.github.io/Stats_learning_trig/img/Stim/FN_024_g.png"",""time"":2053},{""stimulus"":""blank"",""time"":2364.60000000149},{""stimulus"":""https://ziweizhang0304.github.io/Stats_learning_trig/img/Stim/FN_008_g.png"",""time"":2396.2000000029802},{""stimulus"":""blank"",""time"":2705.8000000044703},{""stimulus"":""https://ziweizhang0304.github.io/Stats_learning_trig/img/Stim/FN_007_g.png"",""time"":2721},{""stimulus"":""blank"",""time"":3033.8000000044703},{""stimulus"":""https://ziweizhang0304.github.io/Stats_learning_trig/img/Stim/FN_023_g.png"",""time"":3065.2000000029802},{""stimulus"":""blank"",""time"":3377.9000000059605},{""stimulus"":""https://ziweizhang0304.github.io/Stats_learning_trig/img/Stim/FN_020_g.png"",""time"":3402.2000000029802},{""stimulus"":""blank"",""time"":3704.10000000149},{""stimulus"":""https://ziweizhang0304.github.io/Stats_learning_trig/img/Stim/FN_009_g.png"",""time"":3752.4000000059605},{""stimulus"":""blank"",""time"":4062.2000000029802},{""stimulus"":""https://ziweizhang0304.github.io/Stats_learning_trig/img/Stim/FN_026_g.png"",""time"":4092.5},{""stimulus"":""blank"",""time"":4405.30000000447}]","[{""key_press"":32,""rt"":2720,""stimulus"":""blank""}]","323.79999999701977","https://ziweizhang0304.github.io/Stats_learning_trig/img/Stim/FN_008_g.png","post_TD","10","2396.2000000029802","2720","slow","7","1","60e5d47e17c05633eef565e3","","","","","",""
"","image-keyboard-response","33","145143","0.0-5.0-10.0-0.0","781.1000000014901","","","https://ziweizhang0304.github.io/Stats_learning_trig/img/Stim/FN_023_g.png","13","","","","","","","","","","","","","","","","","",""
"","animation","34","149568","0.0-5.0-10.0-1.0","","","","","","[{""stimulus"":""https://ziweizhang0304.github.io/Stats_learning_trig/img/Stim/FN_019_g.png"",""time"":348.3999999985099},{""stimulus"":""blank"",""time"":658.1000000014901},{""stimulus"":""https://ziweizhang0304.github.io/Stats_learning_trig/img/Stim/FN_006_g.png"",""time"":689.3999999985099},{""stimulus"":""blank"",""time"":1001.1000000014901},{""stimulus"":""https://ziweizhang0304.github.io/Stats_learning_trig/img/Stim/FN_026_g.png"",""time"":1031.5},{""stimulus"":""blank"",""time"":1342.1999999955297},{""stimulus"":""https://ziweizhang0304.github.io/Stats_learning_trig/img/Stim/FN_022_g.png"",""time"":1374.6000000014901},{""stimulus"":""blank"",""time"":1684.1999999955297},{""stimulus"":""https://ziweizhang0304.github.io/Stats_learning_trig/img/Stim/FN_008_g.png"",""time"":1701.6999999955297},{""stimulus"":""blank"",""time"":2014.3999999985099},{""stimulus"":""https://ziweizhang0304.github.io/Stats_learning_trig/img/Stim/FN_007_g.png"",""time"":2041.6999999955297},{""stimulus"":""blank"",""time"":2343.60000000149},{""stimulus"":""https://ziweizhang0304.github.io/Stats_learning_trig/img/Stim/FN_023_g.png"",""time"":2391.7999999970198},{""stimulus"":""blank"",""time"":2704.5},{""stimulus"":""https://ziweizhang0304.github.io/Stats_learning_trig/img/Stim/FN_010_g.png"",""time"":2721.89999999851},{""stimulus"":""blank"",""time"":3033.6999999955297},{""stimulus"":""https://ziweizhang0304.github.io/Stats_learning_trig/img/Stim/FN_020_g.png"",""time"":3066},{""stimulus"":""blank"",""time"":3376.7999999970198},{""stimulus"":""https://ziweizhang0304.github.io/Stats_learning_trig/img/Stim/FN_024_g.png"",""time"":3408.1999999955297},{""stimulus"":""blank"",""time"":3719.7999999970198},{""stimulus"":""https://ziweizhang0304.github.io/Stats_learning_trig/img/Stim/FN_009_g.png"",""time"":3752.2999999970198},{""stimulus"":""blank"",""time"":4064.89999999851},{""stimulus"":""https://ziweizhang0304.github.io/Stats_learning_trig/img/Stim/FN_018_g.png"",""time"":4082.2999999970198},{""stimulus"":""blank"",""time"":4393.10000000149}]","[{""key_press"":32,""rt"":2744.89999999851,""stimulus"":""https://ziweizhang0304.github.io/Stats_learning_trig/img/Stim/FN_010_g.png""}]","353.1000000014901","https://ziweizhang0304.github.io/Stats_learning_trig/img/Stim/FN_023_g.png","post_TD","11","2391.7999999970198","2744.89999999851","slow","7","3","60e5d47e17c05633eef565e3","","","","","",""
"","image-keyboard-response","35","150381","0.0-5.0-11.0-0.0","810.7000000029802","","","https://ziweizhang0304.github.io/Stats_learning_trig/img/Stim/FN_007_g.png","13","","","","","","","","","","","","","","","","","",""
"","animation","36","154802","0.0-5.0-11.0-1.0","","","","","","[{""stimulus"":""https://ziweizhang0304.github.io/Stats_learning_trig/img/Stim/FN_026_g.png"",""time"":344.1000000014901},{""stimulus"":""blank"",""time"":654.7000000029802},{""stimulus"":""https://ziweizhang0304.github.io/Stats_learning_trig/img/Stim/FN_006_g.png"",""time"":685.1000000014901},{""stimulus"":""blank"",""time"":1000.7000000029802},{""stimulus"":""https://ziweizhang0304.github.io/Stats_learning_trig/img/Stim/FN_018_g.png"",""time"":1031.1000000014901},{""stimulus"":""blank"",""time"":1340.7999999970198},{""stimulus"":""https://ziweizhang0304.github.io/Stats_learning_trig/img/Stim/FN_019_g.png"",""time"":1373.2000000029802},{""stimulus"":""blank"",""time"":1685.8999999985099},{""stimulus"":""https://ziweizhang0304.github.io/Stats_learning_trig/img/Stim/FN_022_g.png"",""time"":1702.2000000029802},{""stimulus"":""blank"",""time"":2014},{""stimulus"":""https://ziweizhang0304.github.io/Stats_learning_trig/img/Stim/FN_008_g.png"",""time"":2045.3999999985099},{""stimulus"":""blank"",""time"":2359.10000000149},{""stimulus"":""https://ziweizhang0304.github.io/Stats_learning_trig/img/Stim/FN_007_g.png"",""time"":2390.2000000029802},{""stimulus"":""blank"",""time"":2691.7000000029802},{""stimulus"":""https://ziweizhang0304.github.io/Stats_learning_trig/img/Stim/FN_023_g.png"",""time"":2733.2999999970198},{""stimulus"":""blank"",""time"":3046.89999999851},{""stimulus"":""https://ziweizhang0304.github.io/Stats_learning_trig/img/Stim/FN_010_g.png"",""time"":3062.7000000029802},{""stimulus"":""blank"",""time"":3375.39999999851},{""stimulus"":""https://ziweizhang0304.github.io/Stats_learning_trig/img/Stim/FN_020_g.png"",""time"":3405.5},{""stimulus"":""blank"",""time"":3717.39999999851},{""stimulus"":""https://ziweizhang0304.github.io/Stats_learning_trig/img/Stim/FN_024_g.png"",""time"":3741.7999999970198},{""stimulus"":""blank"",""time"":4044.60000000149},{""stimulus"":""https://ziweizhang0304.github.io/Stats_learning_trig/img/Stim/FN_009_g.png"",""time"":4081.89999999851},{""stimulus"":""blank"",""time"":4389.60000000149}]","[{""key_press"":32,""rt"":2691.60000000149,""stimulus"":""https://ziweizhang0304.github.io/Stats_learning_trig/img/Stim/FN_007_g.png""}]","301.3999999985099","https://ziweizhang0304.github.io/Stats_learning_trig/img/Stim/FN_007_g.png","post_TD","12","2390.2000000029802","2691.60000000149","slow","7","2","60e5d47e17c05633eef565e3","","","","","",""
"","image-keyboard-response","37","155580","0.0-5.0-12.0-0.0","775.8000000044703","","","https://ziweizhang0304.github.io/Stats_learning_trig/img/Stim/FN_016_g.png","13","","","","","","","","","","","","","","","","","",""
"","animation","38","160004","0.0-5.0-12.0-1.0","","","","","","[{""stimulus"":""https://ziweizhang0304.github.io/Stats_learning_trig/img/Stim/FN_018_g.png"",""time"":345.5},{""stimulus"":""blank"",""time"":659.1000000014901},{""stimulus"":""https://ziweizhang0304.github.io/Stats_learning_trig/img/Stim/FN_006_g.png"",""time"":690.3999999985099},{""stimulus"":""blank"",""time"":998.1999999955297},{""stimulus"":""https://ziweizhang0304.github.io/Stats_learning_trig/img/Stim/FN_019_g.png"",""time"":1030.6000000014901},{""stimulus"":""blank"",""time"":1343.2999999970198},{""stimulus"":""https://ziweizhang0304.github.io/Stats_learning_trig/img/Stim/FN_010_g.png"",""time"":1374.6999999955297},{""stimulus"":""blank"",""time"":1690.3999999985099},{""stimulus"":""https://ziweizhang0304.github.io/Stats_learning_trig/img/Stim/FN_022_g.png"",""time"":1701.6999999955297},{""stimulus"":""blank"",""time"":2015.5},{""stimulus"":""https://ziweizhang0304.github.io/Stats_learning_trig/img/Stim/FN_016_g.png"",""time"":2047.8999999985099},{""stimulus"":""blank"",""time"":2359.60000000149},{""stimulus"":""https://ziweizhang0304.github.io/Stats_learning_trig/img/Stim/FN_011_g.png"",""time"":2391},{""stimulus"":""blank"",""time"":2702.60000000149},{""stimulus"":""https://ziweizhang0304.github.io/Stats_learning_trig/img/Stim/FN_002_g.png"",""time"":2734},{""stimulus"":""blank"",""time"":3049.6999999955297},{""stimulus"":""https://ziweizhang0304.github.io/Stats_learning_trig/img/Stim/FN_020_g.png"",""time"":3066.1999999955297},{""stimulus"":""blank"",""time"":3374.89999999851},{""stimulus"":""https://ziweizhang0304.github.io/Stats_learning_trig/img/Stim/FN_024_g.png"",""time"":3406.2999999970198},{""stimulus"":""blank"",""time"":3717.89999999851},{""stimulus"":""https://ziweizhang0304.github.io/Stats_learning_trig/img/Stim/FN_009_g.png"",""time"":3742.2999999970198},{""stimulus"":""blank"",""time"":4046.10000000149},{""stimulus"":""https://ziweizhang0304.github.io/Stats_learning_trig/img/Stim/FN_026_g.png"",""time"":4082.39999999851},{""stimulus"":""blank"",""time"":4391.10000000149}]","[{""key_press"":32,""rt"":2402.89999999851,""stimulus"":""https://ziweizhang0304.github.io/Stats_learning_trig/img/Stim/FN_011_g.png""}]","355","https://ziweizhang0304.github.io/Stats_learning_trig/img/Stim/FN_016_g.png","post_TD","13","2047.8999999985099","2402.89999999851","fast","6","1","60e5d47e17c05633eef565e3","","","","","",""
"","image-keyboard-response","39","160755","0.0-5.0-13.0-0.0","748.5","","","https://ziweizhang0304.github.io/Stats_learning_trig/img/Stim/FN_007_g.png","13","","","","","","","","","","","","","","","","","",""
"","animation","40","165177","0.0-5.0-13.0-1.0","","","","","","[{""stimulus"":""https://ziweizhang0304.github.io/Stats_learning_trig/img/Stim/FN_010_g.png"",""time"":344.8999999985099},{""stimulus"":""blank"",""time"":658.5},{""stimulus"":""https://ziweizhang0304.github.io/Stats_learning_trig/img/Stim/FN_006_g.png"",""time"":688.8000000044703},{""stimulus"":""blank"",""time"":999.6000000014901},{""stimulus"":""https://ziweizhang0304.github.io/Stats_learning_trig/img/Stim/FN_018_g.png"",""time"":1030.6000000014901},{""stimulus"":""blank"",""time"":1342.7000000029802},{""stimulus"":""https://ziweizhang0304.github.io/Stats_learning_trig/img/Stim/FN_022_g.png"",""time"":1362.3000000044703},{""stimulus"":""blank"",""time"":1668.7000000029802},{""stimulus"":""https://ziweizhang0304.github.io/Stats_learning_trig/img/Stim/FN_019_g.png"",""time"":1716.1000000014901},{""stimulus"":""blank"",""time"":2031.7000000029802},{""stimulus"":""https://ziweizhang0304.github.io/Stats_learning_trig/img/Stim/FN_024_g.png"",""time"":2041.8999999985099},{""stimulus"":""blank"",""time"":2345},{""stimulus"":""https://ziweizhang0304.github.io/Stats_learning_trig/img/Stim/FN_008_g.png"",""time"":2382.3000000044703},{""stimulus"":""blank"",""time"":2689},{""stimulus"":""https://ziweizhang0304.github.io/Stats_learning_trig/img/Stim/FN_007_g.png"",""time"":2735.39999999851},{""stimulus"":""blank"",""time"":3036},{""stimulus"":""https://ziweizhang0304.github.io/Stats_learning_trig/img/Stim/FN_023_g.png"",""time"":3061.10000000149},{""stimulus"":""blank"",""time"":3374.2000000029802},{""stimulus"":""https://ziweizhang0304.github.io/Stats_learning_trig/img/Stim/FN_020_g.png"",""time"":3401.60000000149},{""stimulus"":""blank"",""time"":3715.3000000044703},{""stimulus"":""https://ziweizhang0304.github.io/Stats_learning_trig/img/Stim/FN_009_g.png"",""time"":3747.60000000149},{""stimulus"":""blank"",""time"":4060.5},{""stimulus"":""https://ziweizhang0304.github.io/Stats_learning_trig/img/Stim/FN_026_g.png"",""time"":4090.7000000029802},{""stimulus"":""blank"",""time"":4391.60000000149}]","[{""key_press"":32,""rt"":3019.10000000149,""stimulus"":""https://ziweizhang0304.github.io/Stats_learning_trig/img/Stim/FN_007_g.png""}]","283.70000000298023","https://ziweizhang0304.github.io/Stats_learning_trig/img/Stim/FN_007_g.png","post_TD","14","2735.39999999851","3019.10000000149","slow","8","2","60e5d47e17c05633eef565e3","","","","","",""
"","image-keyboard-response","41","166922","0.0-5.0-14.0-0.0","1742.3999999985099","","","https://ziweizhang0304.github.io/Stats_learning_trig/img/Stim/FN_007_g.png","13","","","","","","","","","","","","","","","","","",""
"","animation","42","171349","0.0-5.0-14.0-1.0","","","","","","[{""stimulus"":""https://ziweizhang0304.github.io/Stats_learning_trig/img/Stim/FN_009_g.png"",""time"":346.29999999701977},{""stimulus"":""blank"",""time"":656.7999999970198},{""stimulus"":""https://ziweizhang0304.github.io/Stats_learning_trig/img/Stim/FN_006_g.png"",""time"":682.1999999955297},{""stimulus"":""blank"",""time"":983},{""stimulus"":""https://ziweizhang0304.github.io/Stats_learning_trig/img/Stim/FN_019_g.png"",""time"":1030.2999999970198},{""stimulus"":""blank"",""time"":1340.8999999985099},{""stimulus"":""https://ziweizhang0304.github.io/Stats_learning_trig/img/Stim/FN_008_g.png"",""time"":1373.3999999985099},{""stimulus"":""blank"",""time"":1674.1000000014901},{""stimulus"":""https://ziweizhang0304.github.io/Stats_learning_trig/img/Stim/FN_007_g.png"",""time"":1706.5},{""stimulus"":""blank"",""time"":2021.1999999955297},{""stimulus"":""https://ziweizhang0304.github.io/Stats_learning_trig/img/Stim/FN_023_g.png"",""time"":2041.5},{""stimulus"":""blank"",""time"":2348.2999999970198},{""stimulus"":""https://ziweizhang0304.github.io/Stats_learning_trig/img/Stim/FN_010_g.png"",""time"":2381.6999999955297},{""stimulus"":""blank"",""time"":2690.39999999851},{""stimulus"":""https://ziweizhang0304.github.io/Stats_learning_trig/img/Stim/FN_020_g.png"",""time"":2722.7999999970198},{""stimulus"":""blank"",""time"":3033.5},{""stimulus"":""https://ziweizhang0304.github.io/Stats_learning_trig/img/Stim/FN_024_g.png"",""time"":3065.89999999851},{""stimulus"":""blank"",""time"":3378.5},{""stimulus"":""https://ziweizhang0304.github.io/Stats_learning_trig/img/Stim/FN_026_g.png"",""time"":3408.89999999851},{""stimulus"":""blank"",""time"":3709.7999999970198},{""stimulus"":""https://ziweizhang0304.github.io/Stats_learning_trig/img/Stim/FN_022_g.png"",""time"":3742},{""stimulus"":""blank"",""time"":4051.7999999970198},{""stimulus"":""https://ziweizhang0304.github.io/Stats_learning_trig/img/Stim/FN_018_g.png"",""time"":4083.10000000149},{""stimulus"":""blank"",""time"":4395.79999999702}]","[{""key_press"":32,""rt"":2084.0999999940395,""stimulus"":""https://ziweizhang0304.github.io/Stats_learning_trig/img/Stim/FN_023_g.png""}]","377.59999999403954","https://ziweizhang0304.github.io/Stats_learning_trig/img/Stim/FN_007_g.png","post_TD","15","1706.5","2084.0999999940395","slow","5","2","60e5d47e17c05633eef565e3","","","","","",""
"","image-keyboard-response","43","172274","0.0-5.0-15.0-0.0","921.6999999955297","","","https://ziweizhang0304.github.io/Stats_learning_trig/img/Stim/FN_023_g.png","13","","","","","","","","","","","","","","","","","",""
"","animation","44","176706","0.0-5.0-15.0-1.0","","","","","","[{""stimulus"":""https://ziweizhang0304.github.io/Stats_learning_trig/img/Stim/FN_026_g.png"",""time"":354.80000000447035},{""stimulus"":""blank"",""time"":664.8000000044703},{""stimulus"":""https://ziweizhang0304.github.io/Stats_learning_trig/img/Stim/FN_006_g.png"",""time"":696.1000000014901},{""stimulus"":""blank"",""time"":1007.8000000044703},{""stimulus"":""https://ziweizhang0304.github.io/Stats_learning_trig/img/Stim/FN_018_g.png"",""time"":1024.3000000044703},{""stimulus"":""blank"",""time"":1325.1000000014901},{""stimulus"":""https://ziweizhang0304.github.io/Stats_learning_trig/img/Stim/FN_019_g.png"",""time"":1373.4000000059605},{""stimulus"":""blank"",""time"":1685},{""stimulus"":""https://ziweizhang0304.github.io/Stats_learning_trig/img/Stim/FN_022_g.png"",""time"":1702.4000000059605},{""stimulus"":""blank"",""time"":2010.2000000029802},{""stimulus"":""https://ziweizhang0304.github.io/Stats_learning_trig/img/Stim/FN_008_g.png"",""time"":2042.5},{""stimulus"":""blank"",""time"":2356.3000000044703},{""stimulus"":""https://ziweizhang0304.github.io/Stats_learning_trig/img/Stim/FN_007_g.png"",""time"":2381.60000000149},{""stimulus"":""blank"",""time"":2685.4000000059605},{""stimulus"":""https://ziweizhang0304.github.io/Stats_learning_trig/img/Stim/FN_023_g.png"",""time"":2731.7000000029802},{""stimulus"":""blank"",""time"":3041.4000000059605},{""stimulus"":""https://ziweizhang0304.github.io/Stats_learning_trig/img/Stim/FN_010_g.png"",""time"":3061.8000000044703},{""stimulus"":""blank"",""time"":3369.60000000149},{""stimulus"":""https://ziweizhang0304.github.io/Stats_learning_trig/img/Stim/FN_020_g.png"",""time"":3401.9000000059605},{""stimulus"":""blank"",""time"":3713.7000000029802},{""stimulus"":""https://ziweizhang0304.github.io/Stats_learning_trig/img/Stim/FN_024_g.png"",""time"":3741.9000000059605},{""stimulus"":""blank"",""time"":4057.7000000029802},{""stimulus"":""https://ziweizhang0304.github.io/Stats_learning_trig/img/Stim/FN_009_g.png"",""time"":4082.10000000149},{""stimulus"":""blank"",""time"":4385.80000000447}]","[{""key_press"":32,""rt"":3102.2000000029802,""stimulus"":""https://ziweizhang0304.github.io/Stats_learning_trig/img/Stim/FN_010_g.png""}]","370.5","https://ziweizhang0304.github.io/Stats_learning_trig/img/Stim/FN_023_g.png","post_TD","16","2731.7000000029802","3102.2000000029802","slow","8","3","60e5d47e17c05633eef565e3","","","","","",""
"","image-keyboard-response","45","177523","0.0-5.0-16.0-0.0","814.3999999985099","","","https://ziweizhang0304.github.io/Stats_learning_trig/img/Stim/FN_011_g.png","13","","","","","","","","","","","","","","","","","",""
"","animation","46","181957","0.0-5.0-16.0-1.0","","","","","","[{""stimulus"":""https://ziweizhang0304.github.io/Stats_learning_trig/img/Stim/FN_018_g.png"",""time"":355.8999999985099},{""stimulus"":""blank"",""time"":669.3999999985099},{""stimulus"":""https://ziweizhang0304.github.io/Stats_learning_trig/img/Stim/FN_006_g.png"",""time"":681.8999999985099},{""stimulus"":""blank"",""time"":997.6000000014901},{""stimulus"":""https://ziweizhang0304.github.io/Stats_learning_trig/img/Stim/FN_024_g.png"",""time"":1029},{""stimulus"":""blank"",""time"":1340.6000000014901},{""stimulus"":""https://ziweizhang0304.github.io/Stats_learning_trig/img/Stim/FN_022_g.png"",""time"":1361.6000000014901},{""stimulus"":""blank"",""time"":1670.6999999955297},{""stimulus"":""https://ziweizhang0304.github.io/Stats_learning_trig/img/Stim/FN_009_g.png"",""time"":1715.6999999955297},{""stimulus"":""blank"",""time"":2027.7999999970198},{""stimulus"":""https://ziweizhang0304.github.io/Stats_learning_trig/img/Stim/FN_020_g.png"",""time"":2042.1000000014901},{""stimulus"":""blank"",""time"":2356.89999999851},{""stimulus"":""https://ziweizhang0304.github.io/Stats_learning_trig/img/Stim/FN_016_g.png"",""time"":2381.89999999851},{""stimulus"":""blank"",""time"":2685.10000000149},{""stimulus"":""https://ziweizhang0304.github.io/Stats_learning_trig/img/Stim/FN_011_g.png"",""time"":2731.2999999970198},{""stimulus"":""blank"",""time"":3045.10000000149},{""stimulus"":""https://ziweizhang0304.github.io/Stats_learning_trig/img/Stim/FN_002_g.png"",""time"":3076.5},{""stimulus"":""blank"",""time"":3386.10000000149},{""stimulus"":""https://ziweizhang0304.github.io/Stats_learning_trig/img/Stim/FN_010_g.png"",""time"":3400.6999999955297},{""stimulus"":""blank"",""time"":3716.2999999970198},{""stimulus"":""https://ziweizhang0304.github.io/Stats_learning_trig/img/Stim/FN_026_g.png"",""time"":3746.2999999970198},{""stimulus"":""blank"",""time"":4057.39999999851},{""stimulus"":""https://ziweizhang0304.github.io/Stats_learning_trig/img/Stim/FN_019_g.png"",""time"":4089},{""stimulus"":""blank"",""time"":4401.5}]","[{""key_press"":32,""rt"":3110.6999999955297,""stimulus"":""https://ziweizhang0304.github.io/Stats_learning_trig/img/Stim/FN_002_g.png""}]","379.3999999985099","https://ziweizhang0304.github.io/Stats_learning_trig/img/Stim/FN_011_g.png","post_TD","17","2731.2999999970198","3110.6999999955297","fast","8","2","60e5d47e17c05633eef565e3","","","","","",""
"","image-keyboard-response","47","182759","0.0-5.0-17.0-0.0","799","","","https://ziweizhang0304.github.io/Stats_learning_trig/img/Stim/FN_002_g.png","13","","","","","","","","","","","","","","","","","",""
"","animation","48","187195","0.0-5.0-17.0-1.0","","","","","","[{""stimulus"":""https://ziweizhang0304.github.io/Stats_learning_trig/img/Stim/FN_019_g.png"",""time"":355},{""stimulus"":""blank"",""time"":666.6000000014901},{""stimulus"":""https://ziweizhang0304.github.io/Stats_learning_trig/img/Stim/FN_006_g.png"",""time"":682.1000000014901},{""stimulus"":""blank"",""time"":992.7000000029802},{""stimulus"":""https://ziweizhang0304.github.io/Stats_learning_trig/img/Stim/FN_024_g.png"",""time"":1024.7000000029802},{""stimulus"":""blank"",""time"":1335.8999999985099},{""stimulus"":""https://ziweizhang0304.github.io/Stats_learning_trig/img/Stim/FN_016_g.png"",""time"":1366.5},{""stimulus"":""blank"",""time"":1677.1000000014901},{""stimulus"":""https://ziweizhang0304.github.io/Stats_learning_trig/img/Stim/FN_011_g.png"",""time"":1709.3000000044703},{""stimulus"":""blank"",""time"":2020.1000000014901},{""stimulus"":""https://ziweizhang0304.github.io/Stats_learning_trig/img/Stim/FN_002_g.png"",""time"":2052},{""stimulus"":""blank"",""time"":2367.10000000149},{""stimulus"":""https://ziweizhang0304.github.io/Stats_learning_trig/img/Stim/FN_010_g.png"",""time"":2381.5},{""stimulus"":""blank"",""time"":2696.3000000044703},{""stimulus"":""https://ziweizhang0304.github.io/Stats_learning_trig/img/Stim/FN_020_g.png"",""time"":2721.60000000149},{""stimulus"":""blank"",""time"":3027.2000000029802},{""stimulus"":""https://ziweizhang0304.github.io/Stats_learning_trig/img/Stim/FN_009_g.png"",""time"":3074.7000000029802},{""stimulus"":""blank"",""time"":3386.39999999851},{""stimulus"":""https://ziweizhang0304.github.io/Stats_learning_trig/img/Stim/FN_026_g.png"",""time"":3401.5},{""stimulus"":""blank"",""time"":3715.5},{""stimulus"":""https://ziweizhang0304.github.io/Stats_learning_trig/img/Stim/FN_022_g.png"",""time"":3747.89999999851},{""stimulus"":""blank"",""time"":4058.60000000149},{""stimulus"":""https://ziweizhang0304.github.io/Stats_learning_trig/img/Stim/FN_018_g.png"",""time"":4088.89999999851},{""stimulus"":""blank"",""time"":4403.70000000298}]","[{""key_press"":32,""rt"":2397.2999999970198,""stimulus"":""https://ziweizhang0304.github.io/Stats_learning_trig/img/Stim/FN_010_g.png""}]","345.29999999701977","https://ziweizhang0304.github.io/Stats_learning_trig/img/Stim/FN_002_g.png","post_TD","18","2052","2397.2999999970198","fast","6","3","60e5d47e17c05633eef565e3","","","","","",""
"","image-keyboard-response","49","187968","0.0-5.0-18.0-0.0","769.8999999985099","","","https://ziweizhang0304.github.io/Stats_learning_trig/img/Stim/FN_008_g.png","13","","","","","","","","","","","","","","","","","",""
"","animation","50","192395","0.0-5.0-18.0-1.0","","","","","","[{""stimulus"":""https://ziweizhang0304.github.io/Stats_learning_trig/img/Stim/FN_019_g.png"",""time"":350},{""stimulus"":""blank"",""time"":662.5},{""stimulus"":""https://ziweizhang0304.github.io/Stats_learning_trig/img/Stim/FN_006_g.png"",""time"":693.8999999985099},{""stimulus"":""blank"",""time"":1002.6000000014901},{""stimulus"":""https://ziweizhang0304.github.io/Stats_learning_trig/img/Stim/FN_026_g.png"",""time"":1035},{""stimulus"":""blank"",""time"":1346.6999999955297},{""stimulus"":""https://ziweizhang0304.github.io/Stats_learning_trig/img/Stim/FN_022_g.png"",""time"":1363.1000000014901},{""stimulus"":""blank"",""time"":1674.7999999970198},{""stimulus"":""https://ziweizhang0304.github.io/Stats_learning_trig/img/Stim/FN_008_g.png"",""time"":1707.2999999970198},{""stimulus"":""blank"",""time"":2022.6000000014901},{""stimulus"":""https://ziweizhang0304.github.io/Stats_learning_trig/img/Stim/FN_007_g.png"",""time"":2041.2999999970198},{""stimulus"":""blank"",""time"":2351.10000000149},{""stimulus"":""https://ziweizhang0304.github.io/Stats_learning_trig/img/Stim/FN_023_g.png"",""time"":2381.39999999851},{""stimulus"":""blank"",""time"":2692.10000000149},{""stimulus"":""https://ziweizhang0304.github.io/Stats_learning_trig/img/Stim/FN_010_g.png"",""time"":2722.5},{""stimulus"":""blank"",""time"":3036.1999999955297},{""stimulus"":""https://ziweizhang0304.github.io/Stats_learning_trig/img/Stim/FN_020_g.png"",""time"":3066.6999999955297},{""stimulus"":""blank"",""time"":3382.2999999970198},{""stimulus"":""https://ziweizhang0304.github.io/Stats_learning_trig/img/Stim/FN_024_g.png"",""time"":3413.60000000149},{""stimulus"":""blank"",""time"":3724.39999999851},{""stimulus"":""https://ziweizhang0304.github.io/Stats_learning_trig/img/Stim/FN_009_g.png"",""time"":3743.89999999851},{""stimulus"":""blank"",""time"":4050.5},{""stimulus"":""https://ziweizhang0304.github.io/Stats_learning_trig/img/Stim/FN_018_g.png"",""time"":4080.89999999851},{""stimulus"":""blank"",""time"":4394.60000000149}]","[{""key_press"":32,""rt"":2032.8999999985099,""stimulus"":""blank""}]","325.6000000014901","https://ziweizhang0304.github.io/Stats_learning_trig/img/Stim/FN_008_g.png","post_TD","19","1707.2999999970198","2032.8999999985099","slow","5","1","60e5d47e17c05633eef565e3","","","","","",""
"","image-keyboard-response","51","193497","0.0-5.0-19.0-0.0","1100.3999999985099","","","https://ziweizhang0304.github.io/Stats_learning_trig/img/Stim/FN_011_g.png","13","","","","","","","","","","","","","","","","","",""
"","animation","52","197927","0.0-5.0-19.0-1.0","","","","","","[{""stimulus"":""https://ziweizhang0304.github.io/Stats_learning_trig/img/Stim/FN_018_g.png"",""time"":350.3999999985099},{""stimulus"":""blank"",""time"":665.7000000029802},{""stimulus"":""https://ziweizhang0304.github.io/Stats_learning_trig/img/Stim/FN_006_g.png"",""time"":681.7999999970198},{""stimulus"":""blank"",""time"":992.5},{""stimulus"":""https://ziweizhang0304.github.io/Stats_learning_trig/img/Stim/FN_019_g.png"",""time"":1024},{""stimulus"":""blank"",""time"":1336.5},{""stimulus"":""https://ziweizhang0304.github.io/Stats_learning_trig/img/Stim/FN_010_g.png"",""time"":1361.8999999985099},{""stimulus"":""blank"",""time"":1666.7000000029802},{""stimulus"":""https://ziweizhang0304.github.io/Stats_learning_trig/img/Stim/FN_022_g.png"",""time"":1702},{""stimulus"":""blank"",""time"":2008.7999999970198},{""stimulus"":""https://ziweizhang0304.github.io/Stats_learning_trig/img/Stim/FN_016_g.png"",""time"":2055.2000000029802},{""stimulus"":""blank"",""time"":2365.7999999970198},{""stimulus"":""https://ziweizhang0304.github.io/Stats_learning_trig/img/Stim/FN_011_g.png"",""time"":2382.2000000029802},{""stimulus"":""blank"",""time"":2683},{""stimulus"":""https://ziweizhang0304.github.io/Stats_learning_trig/img/Stim/FN_002_g.png"",""time"":2729.2999999970198},{""stimulus"":""blank"",""time"":3041.10000000149},{""stimulus"":""https://ziweizhang0304.github.io/Stats_learning_trig/img/Stim/FN_020_g.png"",""time"":3073.39999999851},{""stimulus"":""blank"",""time"":3384.10000000149},{""stimulus"":""https://ziweizhang0304.github.io/Stats_learning_trig/img/Stim/FN_024_g.png"",""time"":3400.7000000029802},{""stimulus"":""blank"",""time"":3712.2000000029802},{""stimulus"":""https://ziweizhang0304.github.io/Stats_learning_trig/img/Stim/FN_009_g.png"",""time"":3742.60000000149},{""stimulus"":""blank"",""time"":4055.2000000029802},{""stimulus"":""https://ziweizhang0304.github.io/Stats_learning_trig/img/Stim/FN_026_g.png"",""time"":4081.39999999851},{""stimulus"":""blank"",""time"":4384.39999999851}]","[{""key_press"":32,""rt"":2675.2999999970198,""stimulus"":""https://ziweizhang0304.github.io/Stats_learning_trig/img/Stim/FN_011_g.png""}]","293.09999999403954","https://ziweizhang0304.github.io/Stats_learning_trig/img/Stim/FN_011_g.png","post_TD","20","2382.2000000029802","2675.2999999970198","fast","7","2","60e5d47e17c05633eef565e3","","","","","",""
"","image-keyboard-response","53","198644","0.0-5.0-20.0-0.0","714","","","https://ziweizhang0304.github.io/Stats_learning_trig/img/Stim/FN_007_g.png","13","","","","","","","","","","","","","","","","","",""
"","animation","54","203066","0.0-5.0-20.0-1.0","","","","","","[{""stimulus"":""https://ziweizhang0304.github.io/Stats_learning_trig/img/Stim/FN_019_g.png"",""time"":345.29999999701977},{""stimulus"":""blank"",""time"":657.8999999985099},{""stimulus"":""https://ziweizhang0304.github.io/Stats_learning_trig/img/Stim/FN_006_g.png"",""time"":689.2999999970198},{""stimulus"":""blank"",""time"":1001},{""stimulus"":""https://ziweizhang0304.github.io/Stats_learning_trig/img/Stim/FN_026_g.png"",""time"":1031.3999999985099},{""stimulus"":""blank"",""time"":1344.0999999940395},{""stimulus"":""https://ziweizhang0304.github.io/Stats_learning_trig/img/Stim/FN_022_g.png"",""time"":1375.5},{""stimulus"":""blank"",""time"":1688.1999999955297},{""stimulus"":""https://ziweizhang0304.github.io/Stats_learning_trig/img/Stim/FN_008_g.png"",""time"":1702.5999999940395},{""stimulus"":""blank"",""time"":2016.1999999955297},{""stimulus"":""https://ziweizhang0304.github.io/Stats_learning_trig/img/Stim/FN_007_g.png"",""time"":2047.7999999970198},{""stimulus"":""blank"",""time"":2358.5},{""stimulus"":""https://ziweizhang0304.github.io/Stats_learning_trig/img/Stim/FN_023_g.png"",""time"":2389.6999999955297},{""stimulus"":""blank"",""time"":2701.39999999851},{""stimulus"":""https://ziweizhang0304.github.io/Stats_learning_trig/img/Stim/FN_010_g.png"",""time"":2721},{""stimulus"":""blank"",""time"":3029.5999999940395},{""stimulus"":""https://ziweizhang0304.github.io/Stats_learning_trig/img/Stim/FN_020_g.png"",""time"":3061.5},{""stimulus"":""blank"",""time"":3375.5999999940395},{""stimulus"":""https://ziweizhang0304.github.io/Stats_learning_trig/img/Stim/FN_024_g.png"",""time"":3407},{""stimulus"":""blank"",""time"":3718.6999999955297},{""stimulus"":""https://ziweizhang0304.github.io/Stats_learning_trig/img/Stim/FN_009_g.png"",""time"":3751.0999999940395},{""stimulus"":""blank"",""time"":4063.7999999970198},{""stimulus"":""https://ziweizhang0304.github.io/Stats_learning_trig/img/Stim/FN_018_g.png"",""time"":4094.39999999851},{""stimulus"":""blank"",""time"":4406.89999999851}]","[{""key_press"":32,""rt"":2403.60000000149,""stimulus"":""https://ziweizhang0304.github.io/Stats_learning_trig/img/Stim/FN_023_g.png""}]","355.80000000447035","https://ziweizhang0304.github.io/Stats_learning_trig/img/Stim/FN_007_g.png","post_TD","21","2047.7999999970198","2403.60000000149","slow","6","2","60e5d47e17c05633eef565e3","","","","","",""
"","image-keyboard-response","55","204206","0.0-5.0-21.0-0.0","1137.1000000014901","","","https://ziweizhang0304.github.io/Stats_learning_trig/img/Stim/FN_002_g.png","13","","","","","","","","","","","","","","","","","",""
"","animation","56","208631","0.0-5.0-21.0-1.0","","","","","","[{""stimulus"":""https://ziweizhang0304.github.io/Stats_learning_trig/img/Stim/FN_010_g.png"",""time"":345.6000000014901},{""stimulus"":""blank"",""time"":656.1000000014901},{""stimulus"":""https://ziweizhang0304.github.io/Stats_learning_trig/img/Stim/FN_006_g.png"",""time"":687.6000000014901},{""stimulus"":""blank"",""time"":1001.1999999955297},{""stimulus"":""https://ziweizhang0304.github.io/Stats_learning_trig/img/Stim/FN_009_g.png"",""time"":1022.5},{""stimulus"":""blank"",""time"":1330.3999999985099},{""stimulus"":""https://ziweizhang0304.github.io/Stats_learning_trig/img/Stim/FN_019_g.png"",""time"":1362.7999999970198},{""stimulus"":""blank"",""time"":1672.3999999985099},{""stimulus"":""https://ziweizhang0304.github.io/Stats_learning_trig/img/Stim/FN_016_g.png"",""time"":1701.7999999970198},{""stimulus"":""blank"",""time"":2016.3999999985099},{""stimulus"":""https://ziweizhang0304.github.io/Stats_learning_trig/img/Stim/FN_011_g.png"",""time"":2048.89999999851},{""stimulus"":""blank"",""time"":2360.60000000149},{""stimulus"":""https://ziweizhang0304.github.io/Stats_learning_trig/img/Stim/FN_002_g.png"",""time"":2391.89999999851},{""stimulus"":""blank"",""time"":2693.6999999955297},{""stimulus"":""https://ziweizhang0304.github.io/Stats_learning_trig/img/Stim/FN_020_g.png"",""time"":2729.5},{""stimulus"":""blank"",""time"":3029.7999999970198},{""stimulus"":""https://ziweizhang0304.github.io/Stats_learning_trig/img/Stim/FN_024_g.png"",""time"":3062.10000000149},{""stimulus"":""blank"",""time"":3373},{""stimulus"":""https://ziweizhang0304.github.io/Stats_learning_trig/img/Stim/FN_026_g.png"",""time"":3402.1999999955297},{""stimulus"":""blank"",""time"":3717.89999999851},{""stimulus"":""https://ziweizhang0304.github.io/Stats_learning_trig/img/Stim/FN_022_g.png"",""time"":3749.2999999970198},{""stimulus"":""blank"",""time"":4062},{""stimulus"":""https://ziweizhang0304.github.io/Stats_learning_trig/img/Stim/FN_018_g.png"",""time"":4093.5},{""stimulus"":""blank"",""time"":4408.10000000149}]","[{""key_press"":32,""rt"":2662.2000000029802,""stimulus"":""https://ziweizhang0304.github.io/Stats_learning_trig/img/Stim/FN_002_g.png""}]","270.30000000447035","https://ziweizhang0304.github.io/Stats_learning_trig/img/Stim/FN_002_g.png","post_TD","22","2391.89999999851","2662.2000000029802","fast","7","3","60e5d47e17c05633eef565e3","","","","","",""
"","image-keyboard-response","57","210483","0.0-5.0-22.0-0.0","1849.8999999985099","","","https://ziweizhang0304.github.io/Stats_learning_trig/img/Stim/FN_016_g.png","13","","","","","","","","","","","","","","","","","",""
"","animation","58","214906","0.0-5.0-22.0-1.0","","","","","","[{""stimulus"":""https://ziweizhang0304.github.io/Stats_learning_trig/img/Stim/FN_018_g.png"",""time"":351.6000000014901},{""stimulus"":""blank"",""time"":662.2000000029802},{""stimulus"":""https://ziweizhang0304.github.io/Stats_learning_trig/img/Stim/FN_006_g.png"",""time"":693.6000000014901},{""stimulus"":""blank"",""time"":1006.2000000029802},{""stimulus"":""https://ziweizhang0304.github.io/Stats_learning_trig/img/Stim/FN_024_g.png"",""time"":1022.7000000029802},{""stimulus"":""blank"",""time"":1333.3000000044703},{""stimulus"":""https://ziweizhang0304.github.io/Stats_learning_trig/img/Stim/FN_022_g.png"",""time"":1364.8000000044703},{""stimulus"":""blank"",""time"":1677.4000000059605},{""stimulus"":""https://ziweizhang0304.github.io/Stats_learning_trig/img/Stim/FN_009_g.png"",""time"":1708.9000000059605},{""stimulus"":""blank"",""time"":2021.6000000014901},{""stimulus"":""https://ziweizhang0304.github.io/Stats_learning_trig/img/Stim/FN_020_g.png"",""time"":2054},{""stimulus"":""blank"",""time"":2364.60000000149},{""stimulus"":""https://ziweizhang0304.github.io/Stats_learning_trig/img/Stim/FN_016_g.png"",""time"":2396},{""stimulus"":""blank"",""time"":2707.7000000029802},{""stimulus"":""https://ziweizhang0304.github.io/Stats_learning_trig/img/Stim/FN_011_g.png"",""time"":2724.10000000149},{""stimulus"":""blank"",""time"":3034.9000000059605},{""stimulus"":""https://ziweizhang0304.github.io/Stats_learning_trig/img/Stim/FN_002_g.png"",""time"":3067.2000000029802},{""stimulus"":""blank"",""time"":3379.9000000059605},{""stimulus"":""https://ziweizhang0304.github.io/Stats_learning_trig/img/Stim/FN_010_g.png"",""time"":3410.3000000044703},{""stimulus"":""blank"",""time"":3724},{""stimulus"":""https://ziweizhang0304.github.io/Stats_learning_trig/img/Stim/FN_026_g.png"",""time"":3754.4000000059605},{""stimulus"":""blank"",""time"":4070},{""stimulus"":""https://ziweizhang0304.github.io/Stats_learning_trig/img/Stim/FN_019_g.png"",""time"":4082.4000000059605},{""stimulus"":""blank"",""time"":4396.20000000298}]","[{""key_press"":32,""rt"":2750.7000000029802,""stimulus"":""https://ziweizhang0304.github.io/Stats_learning_trig/img/Stim/FN_011_g.png""}]","354.70000000298023","https://ziweizhang0304.github.io/Stats_learning_trig/img/Stim/FN_016_g.png","post_TD","23","2396","2750.7000000029802","fast","7","1","60e5d47e17c05633eef565e3","","","","","",""
"","image-keyboard-response","59","215707","0.0-5.0-23.0-0.0","798.1000000014901","","","https://ziweizhang0304.github.io/Stats_learning_trig/img/Stim/FN_011_g.png","13","","","","","","","","","","","","","","","","","",""
"","animation","60","220131","0.0-5.0-23.0-1.0","","","","","","[{""stimulus"":""https://ziweizhang0304.github.io/Stats_learning_trig/img/Stim/FN_010_g.png"",""time"":344.8999999985099},{""stimulus"":""blank"",""time"":656.5},{""stimulus"":""https://ziweizhang0304.github.io/Stats_learning_trig/img/Stim/FN_006_g.png"",""time"":687.8999999985099},{""stimulus"":""blank"",""time"":998.6000000014901},{""stimulus"":""https://ziweizhang0304.github.io/Stats_learning_trig/img/Stim/FN_009_g.png"",""time"":1029},{""stimulus"":""blank"",""time"":1340.6000000014901},{""stimulus"":""https://ziweizhang0304.github.io/Stats_learning_trig/img/Stim/FN_019_g.png"",""time"":1373.2000000029802},{""stimulus"":""blank"",""time"":1685.7000000029802},{""stimulus"":""https://ziweizhang0304.github.io/Stats_learning_trig/img/Stim/FN_016_g.png"",""time"":1702.8999999985099},{""stimulus"":""blank"",""time"":2016.8999999985099},{""stimulus"":""https://ziweizhang0304.github.io/Stats_learning_trig/img/Stim/FN_011_g.png"",""time"":2046.8999999985099},{""stimulus"":""blank"",""time"":2356},{""stimulus"":""https://ziweizhang0304.github.io/Stats_learning_trig/img/Stim/FN_002_g.png"",""time"":2388.2999999970198},{""stimulus"":""blank"",""time"":2703.10000000149},{""stimulus"":""https://ziweizhang0304.github.io/Stats_learning_trig/img/Stim/FN_020_g.png"",""time"":2722.39999999851},{""stimulus"":""blank"",""time"":3030.60000000149},{""stimulus"":""https://ziweizhang0304.github.io/Stats_learning_trig/img/Stim/FN_024_g.png"",""time"":3063},{""stimulus"":""blank"",""time"":3374.7000000029802},{""stimulus"":""https://ziweizhang0304.github.io/Stats_learning_trig/img/Stim/FN_026_g.png"",""time"":3402.10000000149},{""stimulus"":""blank"",""time"":3717.7999999970198},{""stimulus"":""https://ziweizhang0304.github.io/Stats_learning_trig/img/Stim/FN_022_g.png"",""time"":3742.2000000029802},{""stimulus"":""blank"",""time"":4046.10000000149},{""stimulus"":""https://ziweizhang0304.github.io/Stats_learning_trig/img/Stim/FN_018_g.png"",""time"":4094.2999999970198},{""stimulus"":""blank"",""time"":4408}]","[{""key_press"":32,""rt"":2390,""stimulus"":""https://ziweizhang0304.github.io/Stats_learning_trig/img/Stim/FN_002_g.png""}]","343.1000000014901","https://ziweizhang0304.github.io/Stats_learning_trig/img/Stim/FN_011_g.png","post_TD","24","2046.8999999985099","2390","fast","6","2","60e5d47e17c05633eef565e3","738bd","","","","",""
"","survey-text","61","282938","0.0-6.0","62799.70000000298","","","","","","","","","","","","","","","","","","{""Q0"":""i just tried to stare at the image for as long as possible as then tried not to be too twitchy on the spacebar, being somewhat patient to verify that I actually saw the image""}","","","",""
"","survey-text","62","318914","0.0-7.0","35973.19999999553","","","","","","","","","","","","","","","","","","{""[object Object]"":""I felt like the order might've been consistent but I'm not entirely sure""}","","","",""
"","instructions","63","326010","0.0-8.0","7095.20000000298","","[{""page_index"":0,""viewing_time"":7095.20000000298}]","","","","","","","","","","","","","","","","","","","",""
"","free-sort","64","347971","0.0-9.0","21959.39999999851","","","","","","","","","post_drag","","","","fast","","","","","","[{""src"":""https://ziweizhang0304.github.io/Stats_learning_trig/img/Stim/FN_011_g.png"",""x"":475,""y"":0},{""src"":""https://ziweizhang0304.github.io/Stats_learning_trig/img/Stim/FN_002_g.png"",""x"":-225,""y"":50},{""src"":""https://ziweizhang0304.github.io/Stats_learning_trig/img/Stim/FN_016_g.png"",""x"":475,""y"":50}]","[{""src"":""https://ziweizhang0304.github.io/Stats_learning_trig/img/Stim/FN_016_g.png"",""x"":22,""y"":12},{""src"":""https://ziweizhang0304.github.io/Stats_learning_trig/img/Stim/FN_002_g.png"",""x"":102,""y"":19},{""src"":""https://ziweizhang0304.github.io/Stats_learning_trig/img/Stim/FN_011_g.png"",""x"":199,""y"":26}]","[{""src"":""https://ziweizhang0304.github.io/Stats_learning_trig/img/Stim/FN_011_g.png"",""x"":199,""y"":26},{""src"":""https://ziweizhang0304.github.io/Stats_learning_trig/img/Stim/FN_002_g.png"",""x"":102,""y"":19},{""src"":""https://ziweizhang0304.github.io/Stats_learning_trig/img/Stim/FN_016_g.png"",""x"":22,""y"":12}]",""
"","free-sort","65","359098","0.0-10.0","11127","","","","","","","","","post_drag","","","","slow","","","","","","[{""src"":""https://ziweizhang0304.github.io/Stats_learning_trig/img/Stim/FN_023_g.png"",""x"":475,""y"":0},{""src"":""https://ziweizhang0304.github.io/Stats_learning_trig/img/Stim/FN_008_g.png"",""x"":-225,""y"":50},{""src"":""https://ziweizhang0304.github.io/Stats_learning_trig/img/Stim/FN_007_g.png"",""x"":475,""y"":50}]","[{""src"":""https://ziweizhang0304.github.io/Stats_learning_trig/img/Stim/FN_008_g.png"",""x"":54,""y"":17},{""src"":""https://ziweizhang0304.github.io/Stats_learning_trig/img/Stim/FN_008_g.png"",""x"":31,""y"":17},{""src"":""https://ziweizhang0304.github.io/Stats_learning_trig/img/Stim/FN_023_g.png"",""x"":215,""y"":12},{""src"":""https://ziweizhang0304.github.io/Stats_learning_trig/img/Stim/FN_007_g.png"",""x"":141,""y"":29}]","[{""src"":""https://ziweizhang0304.github.io/Stats_learning_trig/img/Stim/FN_023_g.png"",""x"":215,""y"":12},{""src"":""https://ziweizhang0304.github.io/Stats_learning_trig/img/Stim/FN_008_g.png"",""x"":31,""y"":17},{""src"":""https://ziweizhang0304.github.io/Stats_learning_trig/img/Stim/FN_007_g.png"",""x"":141,""y"":29}]",""
"","survey-multi-choice","66","371027","0.0-11.0","11925.60000000149","","","","","","","","","","","","","","","","60e5d47e17c05633eef565e3","","{""awareness"":""Yes"",""attention_check"":""Press SPACEBAR to a target""}","","","","[0,1]"
